trial_loop.thisRepN,trial_loop.thisTrialN,trial_loop.thisN,trial_loop.thisIndex,VAS_slider.started,VAS_text.started,VAS_notstressed_text.started,VAS_stressed_text.started,continue_input.started,continue_text.started,label0.started,label10.started,label20.started,label30.started,label40.started,label50.started,label60.started,label70.started,label80.started,label90.started,label100.started,VAS_slider.response,VAS_slider.rt,VAS_slider.history,Answer_VAS,continue_input.keys,instruction_text.started,continue_text_2.started,continue_input_2.started,continue_input_2.keys,continue_input_2.rt,continue_input_2.duration,example_text.started,example_slider_2.started,example_image.started,example_slider_2.response,example_slider_2.rt,fixcross.started,fixcross.stopped,front_square.started,stim_images.started,trial_inst_images.started,slider_images.started,slider_images.stopped,thisImg,trial_count,slider_images.response,slider_images.rt,outro.started,outro.stopped,participant,condition,date,expName,psychopyVersion,frameRate,
,,,,973.6689970002044,973.6689970002044,973.6689970002044,973.6689970002044,973.6689970002044,973.6689970002044,973.6689970002044,973.6689970002044,973.6689970002044,973.6689970002044,973.6689970002044,973.6689970002044,973.6689970002044,973.6689970002044,973.6689970002044,973.6689970002044,973.6689970002044,1.983333333333333,10.824530600104481,"[(1.983333333333333, 10.824530600104481)]",1.983333333333333,None,,,,,,,,,,,,,,,,,,,,,,,,,002,00,2024-08-01_14h16.57.959,Surprise recog test,2023.1.3,59.94980999980885,
,,,,,,,,,,,,,,,,,,,,,,,,,,984.562301900005,984.562301900005,984.562301900005,space,19.585145000135526,None,,,,,,,,,,,,,,,,,,,002,00,2024-08-01_14h16.57.959,Surprise recog test,2023.1.3,59.94980999980885,
0,0,0,0,,,,,,,,,,,,,,,,,,,,,,,,,,,,,1004.2783123000991,1004.2783123000991,1004.2783123000991,1.0,19.37415589997545,1029.599646200193,1024.6232869001105,1024.6232869001105,1024.6232869001105,1024.6232869001105,1024.6232869001105,1029.5845636001322,old_sceneOut_41.png,1,None,None,,,002,00,2024-08-01_14h16.57.959,Surprise recog test,2023.1.3,59.94980999980885,
1,0,1,0,,,,,,,,,,,,,,,,,,,,,,,,,,,,,,,,,,1033.1277594000567,1034.1549591000658,1030.6135617999826,1030.6135617999826,1030.6135617999826,1030.6135617999826,,old_fruit_11.png,2,2.0,2.5151251000352204,,,002,00,2024-08-01_14h16.57.959,Surprise recog test,2023.1.3,59.94980999980885,
2,0,2,0,,,,,,,,,,,,,,,,,,,,,,,,,,,,,,,,,,1037.7671329001896,1038.7822774001397,1034.1549591000658,1034.1549591000658,1034.1549591000658,1034.1549591000658,,old_fruit_35.png,3,3.0,3.6097744000144303,,,002,00,2024-08-01_14h16.57.959,Surprise recog test,2023.1.3,59.94980999980885,
3,0,3,0,,,,,,,,,,,,,,,,,,,,,,,,,,,,,,,,,,1040.9735579001717,1041.99313670001,1038.7822774001397,1038.7822774001397,1038.7822774001397,1038.7822774001397,,new_sceneIn_38.png,4,4.0,2.1854255001526326,,,002,00,2024-08-01_14h16.57.959,Surprise recog test,2023.1.3,59.94980999980885,
4,0,4,0,,,,,,,,,,,,,,,,,,,,,,,,,,,,,,,,,,1045.6600369000807,1046.6688316999935,1041.99313670001,1041.99313670001,1041.99313670001,1041.99313670001,,new_fruit_42.png,5,4.0,3.6679849999491125,,,002,00,2024-08-01_14h16.57.959,Surprise recog test,2023.1.3,59.94980999980885,
5,0,5,0,,,,,,,,,,,,,,,,,,,,,,,,,,,,,,,,,,1050.8278481999878,1051.8488245001063,1046.6688316999935,1046.6688316999935,1046.6688316999935,1046.6688316999935,,old_stationery_14.png,6,3.0,4.1519762999378145,,,002,00,2024-08-01_14h16.57.959,Surprise recog test,2023.1.3,59.94980999980885,
6,0,6,0,,,,,,,,,,,,,,,,,,,,,,,,,,,,,,,,,,1053.9198989002034,1054.9343139000703,1051.8488245001063,1051.8488245001063,1051.8488245001063,1051.8488245001063,,new_stationery_43.png,7,3.0,2.065517600160092,,,002,00,2024-08-01_14h16.57.959,Surprise recog test,2023.1.3,59.94980999980885,
7,0,7,0,,,,,,,,,,,,,,,,,,,,,,,,,,,,,,,,,,1056.8013408000115,1057.8233588000294,1054.9343139000703,1054.9343139000703,1054.9343139000703,1054.9343139000703,,new_stationery_36.png,8,4.0,1.8673996001016349,,,002,00,2024-08-01_14h16.57.959,Surprise recog test,2023.1.3,59.94980999980885,
8,0,8,0,,,,,,,,,,,,,,,,,,,,,,,,,,,,,,,,,,1061.1021395002026,1062.116645900067,1057.8233588000294,1057.8233588000294,1057.8233588000294,1057.8233588000294,,new_stationery_46.png,9,4.0,3.280217999825254,,,002,00,2024-08-01_14h16.57.959,Surprise recog test,2023.1.3,59.94980999980885,
9,0,9,0,,,,,,,,,,,,,,,,,,,,,,,,,,,,,,,,,,1065.2301286000293,1066.2501694001257,1062.116645900067,1062.116645900067,1062.116645900067,1062.116645900067,,old_fruit_3.png,10,3.0,3.109440900152549,,,002,00,2024-08-01_14h16.57.959,Surprise recog test,2023.1.3,59.94980999980885,
10,0,10,0,,,,,,,,,,,,,,,,,,,,,,,,,,,,,,,,,,1068.3712597000413,1069.4017996001057,1066.2501694001257,1066.2501694001257,1066.2501694001257,1066.2501694001257,,new_sceneIn_42.png,11,4.0,2.1232131998986006,,,002,00,2024-08-01_14h16.57.959,Surprise recog test,2023.1.3,59.94980999980885,
11,0,11,0,,,,,,,,,,,,,,,,,,,,,,,,,,,,,,,,,,1072.2587192000356,1073.2886711000465,1069.4017996001057,1069.4017996001057,1069.4017996001057,1069.4017996001057,,new_sceneOut_23.png,12,2.0,2.8571274999994785,,,002,00,2024-08-01_14h16.57.959,Surprise recog test,2023.1.3,59.94980999980885,
12,0,12,0,,,,,,,,,,,,,,,,,,,,,,,,,,,,,,,,,,1074.9539822000079,1075.9627049001865,1073.2886711000465,1073.2886711000465,1073.2886711000465,1073.2886711000465,,old_stationery_47.png,13,2.0,1.6648307000286877,,,002,00,2024-08-01_14h16.57.959,Surprise recog test,2023.1.3,59.94980999980885,
13,0,13,0,,,,,,,,,,,,,,,,,,,,,,,,,,,,,,,,,,1079.0365069000982,1080.0492321001366,1075.9627049001865,1075.9627049001865,1075.9627049001865,1075.9627049001865,,old_sceneOut_18.png,14,4.0,3.0692553999833763,,,002,00,2024-08-01_14h16.57.959,Surprise recog test,2023.1.3,59.94980999980885,
14,0,14,0,,,,,,,,,,,,,,,,,,,,,,,,,,,,,,,,,,1081.5268827001564,1082.5465569000226,1080.0492321001366,1080.0492321001366,1080.0492321001366,1080.0492321001366,,new_fruit_49.png,15,2.0,1.4712588000111282,,,002,00,2024-08-01_14h16.57.959,Surprise recog test,2023.1.3,59.94980999980885,
15,0,15,0,,,,,,,,,,,,,,,,,,,,,,,,,,,,,,,,,,1085.985815900145,1087.0175928000826,1082.5465569000226,1082.5465569000226,1082.5465569000226,1082.5465569000226,,old_sceneIn_25.png,16,3.0,3.4412871000822634,,,002,00,2024-08-01_14h16.57.959,Surprise recog test,2023.1.3,59.94980999980885,
16,0,16,0,,,,,,,,,,,,,,,,,,,,,,,,,,,,,,,,,,1088.131755599985,1089.1563371000811,1087.0175928000826,1087.0175928000826,1087.0175928000826,1087.0175928000826,,new_sceneOut_6.png,17,3.0,1.1141441999934614,,,002,00,2024-08-01_14h16.57.959,Surprise recog test,2023.1.3,59.94980999980885,
17,0,17,0,,,,,,,,,,,,,,,,,,,,,,,,,,,,,,,,,,1092.1682155001909,1093.1872251001187,1089.1563371000811,1089.1563371000811,1089.1563371000811,1089.1563371000811,,old_stationery_27.png,18,3.0,3.0081573000643402,,,002,00,2024-08-01_14h16.57.959,Surprise recog test,2023.1.3,59.94980999980885,
18,0,18,0,,,,,,,,,,,,,,,,,,,,,,,,,,,,,,,,,,1094.8742351999972,,1093.1872251001187,1093.1872251001187,1093.1872251001187,1093.1872251001187,,old_sceneOut_42.png,19,4.0,1.6891282999422401,,,002,00,2024-08-01_14h16.57.959,Surprise recog test,2023.1.3,59.94980999980885,
19,0,19,0,,,,,,,,,,,,,,,,,,,,,,,,,,,,,,,,,,1097.3891070000827,1098.4102053001989,1095.9041708000004,1095.9041708000004,1095.9041708000004,1095.9041708000004,,old_sceneOut_47.png,20,4.0,1.4888552001211792,,,002,00,2024-08-01_14h16.57.959,Surprise recog test,2023.1.3,59.94980999980885,
20,0,20,0,,,,,,,,,,,,,,,,,,,,,,,,,,,,,,,,,,1100.7602935000323,1101.7662920001894,1098.4102053001989,1098.4102053001989,1098.4102053001989,1098.4102053001989,,old_sceneIn_47.png,21,4.0,2.3508446000050753,,,002,00,2024-08-01_14h16.57.959,Surprise recog test,2023.1.3,59.94980999980885,
21,0,21,0,,,,,,,,,,,,,,,,,,,,,,,,,,,,,,,,,,1104.4179677001666,1105.435396600049,1101.7662920001894,1101.7662920001894,1101.7662920001894,1101.7662920001894,,new_stationery_16.png,22,2.0,2.6468305999878794,,,002,00,2024-08-01_14h16.57.959,Surprise recog test,2023.1.3,59.94980999980885,
22,0,22,0,,,,,,,,,,,,,,,,,,,,,,,,,,,,,,,,,,1108.2217900000978,1109.2506071000826,1105.435396600049,1105.435396600049,1105.435396600049,1105.435396600049,,new_stationery_1.png,23,3.0,2.7819761999417096,,,002,00,2024-08-01_14h16.57.959,Surprise recog test,2023.1.3,59.94980999980885,
23,0,23,0,,,,,,,,,,,,,,,,,,,,,,,,,,,,,,,,,,1111.8767628001515,1112.9091467000544,1109.2506071000826,1109.2506071000826,1109.2506071000826,1109.2506071000826,,old_fruit_40.png,24,1.0,2.6261207999195904,,,002,00,2024-08-01_14h16.57.959,Surprise recog test,2023.1.3,59.94980999980885,
24,0,24,0,,,,,,,,,,,,,,,,,,,,,,,,,,,,,,,,,,1114.5900236000307,,1112.9091467000544,1112.9091467000544,1112.9091467000544,1112.9091467000544,,old_sceneIn_13.png,25,4.0,1.684481699950993,,,002,00,2024-08-01_14h16.57.959,Surprise recog test,2023.1.3,59.94980999980885,
25,0,25,0,,,,,,,,,,,,,,,,,,,,,,,,,,,,,,,,,,1116.828525800025,1117.8473186001647,1115.6203545001335,1115.6203545001335,1115.6203545001335,1115.6203545001335,,old_sceneIn_29.png,26,4.0,1.2002032999880612,,,002,00,2024-08-01_14h16.57.959,Surprise recog test,2023.1.3,59.94980999980885,
26,0,26,0,,,,,,,,,,,,,,,,,,,,,,,,,,,,,,,,,,1119.26656810008,1120.2931559002027,1117.8473186001647,1117.8473186001647,1117.8473186001647,1117.8473186001647,,new_sceneOut_19.png,27,3.0,1.4112708000466228,,,002,00,2024-08-01_14h16.57.959,Surprise recog test,2023.1.3,59.94980999980885,
27,0,27,0,,,,,,,,,,,,,,,,,,,,,,,,,,,,,,,,,,1121.9739817001391,1122.9979224000126,1120.2931559002027,1120.2931559002027,1120.2931559002027,1120.2931559002027,,old_stationery_10.png,28,4.0,1.6819773998577148,,,002,00,2024-08-01_14h16.57.959,Surprise recog test,2023.1.3,59.94980999980885,
28,0,28,0,,,,,,,,,,,,,,,,,,,,,,,,,,,,,,,,,,1125.2178907000925,1126.2485225000419,1122.9979224000126,1122.9979224000126,1122.9979224000126,1122.9979224000126,,new_sceneOut_1.png,29,3.0,2.2225852999836206,,,002,00,2024-08-01_14h16.57.959,Surprise recog test,2023.1.3,59.94980999980885,
29,0,29,0,,,,,,,,,,,,,,,,,,,,,,,,,,,,,,,,,,1129.2432481001597,1130.2750853002071,1126.2485225000419,1126.2485225000419,1126.2485225000419,1126.2485225000419,,old_fruit_38.png,30,1.0,2.994151300052181,,,002,00,2024-08-01_14h16.57.959,Surprise recog test,2023.1.3,59.94980999980885,
30,0,30,0,,,,,,,,,,,,,,,,,,,,,,,,,,,,,,,,,,1132.8383560001384,,1130.2750853002071,1130.2750853002071,1130.2750853002071,1130.2750853002071,,old_sceneOut_11.png,31,3.0,2.5662296002265066,,,002,00,2024-08-01_14h16.57.959,Surprise recog test,2023.1.3,59.94980999980885,
31,0,31,0,,,,,,,,,,,,,,,,,,,,,,,,,,,,,,,,,,1136.3234223001637,1137.3464763001539,1133.8711271001957,1133.8711271001957,1133.8711271001957,1133.8711271001957,,new_stationery_12.png,32,3.0,2.4516877999994904,,,002,00,2024-08-01_14h16.57.959,Surprise recog test,2023.1.3,59.94980999980885,
32,0,32,0,,,,,,,,,,,,,,,,,,,,,,,,,,,,,,,,,,1139.4561781000812,1140.4771479000337,1137.3464763001539,1137.3464763001539,1137.3464763001539,1137.3464763001539,,old_sceneIn_1.png,33,3.0,2.110179000068456,,,002,00,2024-08-01_14h16.57.959,Surprise recog test,2023.1.3,59.94980999980885,
33,0,33,0,,,,,,,,,,,,,,,,,,,,,,,,,,,,,,,,,,1142.6556726000272,1143.6804713001475,1140.4771479000337,1140.4771479000337,1140.4771479000337,1140.4771479000337,,new_sceneOut_41.png,34,3.0,2.1808001999743283,,,002,00,2024-08-01_14h16.57.959,Surprise recog test,2023.1.3,59.94980999980885,
34,0,34,0,,,,,,,,,,,,,,,,,,,,,,,,,,,,,,,,,,1145.857598000206,1146.8858696001116,1143.6804713001475,1143.6804713001475,1143.6804713001475,1143.6804713001475,,new_sceneOut_15.png,35,3.0,2.177559900097549,,,002,00,2024-08-01_14h16.57.959,Surprise recog test,2023.1.3,59.94980999980885,
35,0,35,0,,,,,,,,,,,,,,,,,,,,,,,,,,,,,,,,,,1149.0477824001573,1150.057887500152,1146.8858696001116,1146.8858696001116,1146.8858696001116,1146.8858696001116,,old_fruit_16.png,36,1.0,2.1654998001176864,,,002,00,2024-08-01_14h16.57.959,Surprise recog test,2023.1.3,59.94980999980885,
36,0,36,0,,,,,,,,,,,,,,,,,,,,,,,,,,,,,,,,,,1151.5124553001951,1152.537560600089,1150.057887500152,1150.057887500152,1150.057887500152,1150.057887500152,,old_sceneIn_5.png,37,4.0,1.450195400044322,,,002,00,2024-08-01_14h16.57.959,Surprise recog test,2023.1.3,59.94980999980885,
37,0,37,0,,,,,,,,,,,,,,,,,,,,,,,,,,,,,,,,,,1153.7835475001484,1154.809310800163,1152.537560600089,1152.537560600089,1152.537560600089,1152.537560600089,,new_sceneIn_15.png,38,4.0,1.2482797999400645,,,002,00,2024-08-01_14h16.57.959,Surprise recog test,2023.1.3,59.94980999980885,
38,0,38,0,,,,,,,,,,,,,,,,,,,,,,,,,,,,,,,,,,1156.4625299000181,1157.4790662000887,1154.809310800163,1154.809310800163,1154.809310800163,1154.809310800163,,old_sceneOut_16.png,39,3.0,1.6527567999437451,,,002,00,2024-08-01_14h16.57.959,Surprise recog test,2023.1.3,59.94980999980885,
39,0,39,0,,,,,,,,,,,,,,,,,,,,,,,,,,,,,,,,,,1160.8087389001157,1161.827804800123,1157.4790662000887,1157.4790662000887,1157.4790662000887,1157.4790662000887,,new_sceneIn_12.png,40,4.0,3.319151399889961,,,002,00,2024-08-01_14h16.57.959,Surprise recog test,2023.1.3,59.94980999980885,
40,0,40,0,,,,,,,,,,,,,,,,,,,,,,,,,,,,,,,,,,1164.6814969000407,,1161.827804800123,1161.827804800123,1161.827804800123,1161.827804800123,,old_stationery_7.png,41,4.0,2.857662099879235,,,002,00,2024-08-01_14h16.57.959,Surprise recog test,2023.1.3,59.94980999980885,
41,0,41,0,,,,,,,,,,,,,,,,,,,,,,,,,,,,,,,,,,1167.8451418001205,1168.8693685000762,1165.7137391001452,1165.7137391001452,1165.7137391001452,1165.7137391001452,,new_stationery_8.png,42,5.0,2.1324436999857426,,,002,00,2024-08-01_14h16.57.959,Surprise recog test,2023.1.3,59.94980999980885,
42,0,42,0,,,,,,,,,,,,,,,,,,,,,,,,,,,,,,,,,,1170.2907543000765,1171.3161853000056,1168.8693685000762,1168.8693685000762,1168.8693685000762,1168.8693685000762,,new_sceneOut_2.png,43,3.0,1.423981700092554,,,002,00,2024-08-01_14h16.57.959,Surprise recog test,2023.1.3,59.94980999980885,
43,0,43,0,,,,,,,,,,,,,,,,,,,,,,,,,,,,,,,,,,1171.8871107001323,,1171.3161853000056,1171.3161853000056,1171.3161853000056,1171.3161853000056,,new_sceneOut_7.png,44,3.0,0.5735072998795658,,,002,00,2024-08-01_14h16.57.959,Surprise recog test,2023.1.3,59.94980999980885,
44,0,44,0,,,,,,,,,,,,,,,,,,,,,,,,,,,,,,,,,,1174.508554900065,1175.5438443000894,1172.9089997999836,1172.9089997999836,1172.9089997999836,1172.9089997999836,,old_fruit_6.png,45,1.0,1.5931728000286967,,,002,00,2024-08-01_14h16.57.959,Surprise recog test,2023.1.3,59.94980999980885,
45,0,45,0,,,,,,,,,,,,,,,,,,,,,,,,,,,,,,,,,,1176.8240089002065,,1175.5438443000894,1175.5438443000894,1175.5438443000894,1175.5438443000894,,old_fruit_21.png,46,1.0,1.2823094998020679,,,002,00,2024-08-01_14h16.57.959,Surprise recog test,2023.1.3,59.94980999980885,
46,0,46,0,,,,,,,,,,,,,,,,,,,,,,,,,,,,,,,,,,1179.5097500002012,,1177.8592543001287,1177.8592543001287,1177.8592543001287,1177.8592543001287,,new_sceneOut_37.png,47,4.0,1.65224130009301,,,002,00,2024-08-01_14h16.57.959,Surprise recog test,2023.1.3,59.94980999980885,
47,0,47,0,,,,,,,,,,,,,,,,,,,,,,,,,,,,,,,,,,1183.3896371000446,1184.4125140001997,1180.5335354001727,1180.5335354001727,1180.5335354001727,1180.5335354001727,,new_sceneIn_14.png,48,2.0,2.8528787000104785,,,002,00,2024-08-01_14h16.57.959,Surprise recog test,2023.1.3,59.94980999980885,
48,0,48,0,,,,,,,,,,,,,,,,,,,,,,,,,,,,,,,,,,1186.599643100053,,1184.4125140001997,1184.4125140001997,1184.4125140001997,1184.4125140001997,,new_stationery_3.png,49,4.0,2.187524300068617,,,002,00,2024-08-01_14h16.57.959,Surprise recog test,2023.1.3,59.94980999980885,
49,0,49,0,,,,,,,,,,,,,,,,,,,,,,,,,,,,,,,,,,1189.4690446001478,,1187.6215868000872,1187.6215868000872,1187.6215868000872,1187.6215868000872,,new_sceneIn_40.png,50,4.0,1.8425626999232918,,,002,00,2024-08-01_14h16.57.959,Surprise recog test,2023.1.3,59.94980999980885,
50,0,50,0,,,,,,,,,,,,,,,,,,,,,,,,,,,,,,,,,,1191.7596170001198,1192.7739878001157,1190.5003402000293,1190.5003402000293,1190.5003402000293,1190.5003402000293,,new_fruit_29.png,51,1.0,1.2598191001452506,,,002,00,2024-08-01_14h16.57.959,Surprise recog test,2023.1.3,59.94980999980885,
51,0,51,0,,,,,,,,,,,,,,,,,,,,,,,,,,,,,,,,,,1194.4175605999772,1195.4379973001778,1192.7739878001157,1192.7739878001157,1192.7739878001157,1192.7739878001157,,new_sceneIn_7.png,52,4.0,1.6395837001036853,,,002,00,2024-08-01_14h16.57.959,Surprise recog test,2023.1.3,59.94980999980885,
52,0,52,0,,,,,,,,,,,,,,,,,,,,,,,,,,,,,,,,,,1197.5419161000755,,1195.4379973001778,1195.4379973001778,1195.4379973001778,1195.4379973001778,,new_fruit_14.png,53,2.0,2.105101500172168,,,002,00,2024-08-01_14h16.57.959,Surprise recog test,2023.1.3,59.94980999980885,
53,0,53,0,,,,,,,,,,,,,,,,,,,,,,,,,,,,,,,,,,1200.9572627001908,1201.9815828001592,1198.5748551001307,1198.5748551001307,1198.5748551001307,1198.5748551001307,,new_sceneIn_28.png,54,2.0,2.3827289000619203,,,002,00,2024-08-01_14h16.57.959,Surprise recog test,2023.1.3,59.94980999980885,
54,0,54,0,,,,,,,,,,,,,,,,,,,,,,,,,,,,,,,,,,1203.74740270013,,1201.9815828001592,1201.9815828001592,1201.9815828001592,1201.9815828001592,,new_fruit_4.png,55,3.0,1.767960499972105,,,002,00,2024-08-01_14h16.57.959,Surprise recog test,2023.1.3,59.94980999980885,
55,0,55,0,,,,,,,,,,,,,,,,,,,,,,,,,,,,,,,,,,1205.9565350001212,1206.9716108001303,1204.7750645000488,1204.7750645000488,1204.7750645000488,1204.7750645000488,,new_sceneOut_45.png,56,3.0,1.1803222999442369,,,002,00,2024-08-01_14h16.57.959,Surprise recog test,2023.1.3,59.94980999980885,
56,0,56,0,,,,,,,,,,,,,,,,,,,,,,,,,,,,,,,,,,1209.1814308001194,1210.1871176999994,1206.9716108001303,1206.9716108001303,1206.9716108001303,1206.9716108001303,,old_sceneIn_42.png,57,3.0,2.205256100045517,,,002,00,2024-08-01_14h16.57.959,Surprise recog test,2023.1.3,59.94980999980885,
57,0,57,0,,,,,,,,,,,,,,,,,,,,,,,,,,,,,,,,,,1211.1682601000648,1212.1864063001703,1210.1871176999994,1210.1871176999994,1210.1871176999994,1210.1871176999994,,new_sceneOut_49.png,58,3.0,0.974780699936673,,,002,00,2024-08-01_14h16.57.959,Surprise recog test,2023.1.3,59.94980999980885,
58,0,58,0,,,,,,,,,,,,,,,,,,,,,,,,,,,,,,,,,,1213.8130845001433,1214.8277135000098,1212.1864063001703,1212.1864063001703,1212.1864063001703,1212.1864063001703,,new_stationery_29.png,59,4.0,1.628036100184545,,,002,00,2024-08-01_14h16.57.959,Surprise recog test,2023.1.3,59.94980999980885,
59,0,59,0,,,,,,,,,,,,,,,,,,,,,,,,,,,,,,,,,,1216.3345445999876,1217.3439156999812,1214.8277135000098,1214.8277135000098,1214.8277135000098,1214.8277135000098,,new_fruit_28.png,60,1.0,1.501165899913758,,,002,00,2024-08-01_14h16.57.959,Surprise recog test,2023.1.3,59.94980999980885,
60,0,60,0,,,,,,,,,,,,,,,,,,,,,,,,,,,,,,,,,,1218.9830833000597,1220.004127799999,1217.3439156999812,1217.3439156999812,1217.3439156999812,1217.3439156999812,,old_fruit_20.png,61,1.0,1.6362286999356002,,,002,00,2024-08-01_14h16.57.959,Surprise recog test,2023.1.3,59.94980999980885,
61,0,61,0,,,,,,,,,,,,,,,,,,,,,,,,,,,,,,,,,,1221.5674159000628,1222.597467200132,1220.004127799999,1220.004127799999,1220.004127799999,1220.004127799999,,new_fruit_37.png,62,1.0,1.5628994000144303,,,002,00,2024-08-01_14h16.57.959,Surprise recog test,2023.1.3,59.94980999980885,
62,0,62,0,,,,,,,,,,,,,,,,,,,,,,,,,,,,,,,,,,1223.921420400031,1224.9354528000113,1222.597467200132,1222.597467200132,1222.597467200132,1222.597467200132,,old_sceneIn_50.png,63,4.0,1.325585599988699,,,002,00,2024-08-01_14h16.57.959,Surprise recog test,2023.1.3,59.94980999980885,
63,0,63,0,,,,,,,,,,,,,,,,,,,,,,,,,,,,,,,,,,1225.8833894000854,,1224.9354528000113,1224.9354528000113,1224.9354528000113,1224.9354528000113,,old_sceneOut_50.png,64,3.0,0.9446797999553382,,,002,00,2024-08-01_14h16.57.959,Surprise recog test,2023.1.3,59.94980999980885,
64,0,64,0,,,,,,,,,,,,,,,,,,,,,,,,,,,,,,,,,,1228.2832424000371,1229.2871720001567,1226.9124233999755,1226.9124233999755,1226.9124233999755,1226.9124233999755,,new_sceneIn_31.png,65,4.0,1.3719357000663877,,,002,00,2024-08-01_14h16.57.959,Surprise recog test,2023.1.3,59.94980999980885,
65,0,65,0,,,,,,,,,,,,,,,,,,,,,,,,,,,,,,,,,,1232.2709867001977,,1229.2871720001567,1229.2871720001567,1229.2871720001567,1229.2871720001567,,new_sceneIn_18.png,66,4.0,2.97798279998824,,,002,00,2024-08-01_14h16.57.959,Surprise recog test,2023.1.3,59.94980999980885,
66,0,66,0,,,,,,,,,,,,,,,,,,,,,,,,,,,,,,,,,,1235.28671640018,1236.3064174000174,1233.3072727001272,1233.3072727001272,1233.3072727001272,1233.3072727001272,,new_fruit_16.png,67,4.0,1.9818037999793887,,,002,00,2024-08-01_14h16.57.959,Surprise recog test,2023.1.3,59.94980999980885,
67,0,67,0,,,,,,,,,,,,,,,,,,,,,,,,,,,,,,,,,,1237.6887884000316,1238.705965100089,1236.3064174000174,1236.3064174000174,1236.3064174000174,1236.3064174000174,,old_fruit_10.png,68,4.0,1.382734099868685,,,002,00,2024-08-01_14h16.57.959,Surprise recog test,2023.1.3,59.94980999980885,
68,0,68,0,,,,,,,,,,,,,,,,,,,,,,,,,,,,,,,,,,1240.8680171000306,1241.8802620000206,1238.705965100089,1238.705965100089,1238.705965100089,1238.705965100089,,new_fruit_3.png,69,3.0,2.1625971000175923,,,002,00,2024-08-01_14h16.57.959,Surprise recog test,2023.1.3,59.94980999980885,
69,0,69,0,,,,,,,,,,,,,,,,,,,,,,,,,,,,,,,,,,1243.15152449999,1244.1669946999755,1241.8802620000206,1241.8802620000206,1241.8802620000206,1241.8802620000206,,new_sceneIn_4.png,70,4.0,1.2669969000853598,,,002,00,2024-08-01_14h16.57.959,Surprise recog test,2023.1.3,59.94980999980885,
70,0,70,0,,,,,,,,,,,,,,,,,,,,,,,,,,,,,,,,,,1245.6558265001513,1246.6800979000982,1244.1669946999755,1244.1669946999755,1244.1669946999755,1244.1669946999755,,old_sceneOut_20.png,71,4.0,1.4848068999126554,,,002,00,2024-08-01_14h16.57.959,Surprise recog test,2023.1.3,59.94980999980885,
71,0,71,0,,,,,,,,,,,,,,,,,,,,,,,,,,,,,,,,,,1247.989899000153,1249.0231877001934,1246.6800979000982,1246.6800979000982,1246.6800979000982,1246.6800979000982,,old_sceneIn_41.png,72,4.0,1.3105719001032412,,,002,00,2024-08-01_14h16.57.959,Surprise recog test,2023.1.3,59.94980999980885,
72,0,72,0,,,,,,,,,,,,,,,,,,,,,,,,,,,,,,,,,,1251.0770741000306,1252.0910216001794,1249.0231877001934,1249.0231877001934,1249.0231877001934,1249.0231877001934,,new_sceneIn_36.png,73,4.0,2.057014200137928,,,002,00,2024-08-01_14h16.57.959,Surprise recog test,2023.1.3,59.94980999980885,
73,0,73,0,,,,,,,,,,,,,,,,,,,,,,,,,,,,,,,,,,1253.8200128001627,1254.834294400178,1252.0910216001794,1252.0910216001794,1252.0910216001794,1252.0910216001794,,new_fruit_41.png,74,3.0,1.7240179001819342,,,002,00,2024-08-01_14h16.57.959,Surprise recog test,2023.1.3,59.94980999980885,
74,0,74,0,,,,,,,,,,,,,,,,,,,,,,,,,,,,,,,,,,1257.5476267000195,1258.5800241001416,1254.834294400178,1254.834294400178,1254.834294400178,1254.834294400178,,old_sceneOut_43.png,75,3.0,2.714204200077802,,,002,00,2024-08-01_14h16.57.959,Surprise recog test,2023.1.3,59.94980999980885,
75,0,75,0,,,,,,,,,,,,,,,,,,,,,,,,,,,,,,,,,,1259.1480587001424,1260.1677485001273,1258.5800241001416,1258.5800241001416,1258.5800241001416,1258.5800241001416,,old_sceneOut_34.png,76,3.0,0.5718113998882473,,,002,00,2024-08-01_14h16.57.959,Surprise recog test,2023.1.3,59.94980999980885,
76,0,76,0,,,,,,,,,,,,,,,,,,,,,,,,,,,,,,,,,,1262.8610415000003,1263.8750768001191,1260.1677485001273,1260.1677485001273,1260.1677485001273,1260.1677485001273,,old_sceneIn_38.png,77,5.0,2.6900828999932855,,,002,00,2024-08-01_14h16.57.959,Surprise recog test,2023.1.3,59.94980999980885,
77,0,77,0,,,,,,,,,,,,,,,,,,,,,,,,,,,,,,,,,,1265.1759526000824,1266.1930361001287,1263.8750768001191,1263.8750768001191,1263.8750768001191,1263.8750768001191,,new_fruit_2.png,78,1.0,1.3021537000313401,,,002,00,2024-08-01_14h16.57.959,Surprise recog test,2023.1.3,59.94980999980885,
78,0,78,0,,,,,,,,,,,,,,,,,,,,,,,,,,,,,,,,,,1267.958376100054,1268.9704911001027,1266.1930361001287,1266.1930361001287,1266.1930361001287,1266.1930361001287,,new_stationery_15.png,79,2.0,1.7655519999098033,,,002,00,2024-08-01_14h16.57.959,Surprise recog test,2023.1.3,59.94980999980885,
79,0,79,0,,,,,,,,,,,,,,,,,,,,,,,,,,,,,,,,,,1270.2225357000716,1271.2524431999773,1268.9704911001027,1268.9704911001027,1268.9704911001027,1268.9704911001027,,old_sceneIn_15.png,80,4.0,1.2495618998073041,,,002,00,2024-08-01_14h16.57.959,Surprise recog test,2023.1.3,59.94980999980885,
80,0,80,0,,,,,,,,,,,,,,,,,,,,,,,,,,,,,,,,,,1272.6560567000415,,1271.2524431999773,1271.2524431999773,1271.2524431999773,1271.2524431999773,,new_stationery_14.png,81,4.0,1.4050183000508696,,,002,00,2024-08-01_14h16.57.959,Surprise recog test,2023.1.3,59.94980999980885,
81,0,81,0,,,,,,,,,,,,,,,,,,,,,,,,,,,,,,,,,,1274.6957193000708,1275.714482499985,1273.675787199987,1273.675787199987,1273.675787199987,1273.675787199987,,new_sceneIn_9.png,82,4.0,1.0150981000624597,,,002,00,2024-08-01_14h16.57.959,Surprise recog test,2023.1.3,59.94980999980885,
82,0,82,0,,,,,,,,,,,,,,,,,,,,,,,,,,,,,,,,,,1276.895143700065,1277.9134043001104,1275.714482499985,1275.714482499985,1275.714482499985,1275.714482499985,,old_sceneIn_44.png,83,4.0,1.17793760006316,,,002,00,2024-08-01_14h16.57.959,Surprise recog test,2023.1.3,59.94980999980885,
83,0,83,0,,,,,,,,,,,,,,,,,,,,,,,,,,,,,,,,,,1280.0383953000419,1281.0584738000762,1277.9134043001104,1277.9134043001104,1277.9134043001104,1277.9134043001104,,old_fruit_7.png,84,3.0,2.1188283001538366,,,002,00,2024-08-01_14h16.57.959,Surprise recog test,2023.1.3,59.94980999980885,
84,0,84,0,,,,,,,,,,,,,,,,,,,,,,,,,,,,,,,,,,1281.9515961001161,1282.976764800027,1281.0584738000762,1281.0584738000762,1281.0584738000762,1281.0584738000762,,old_sceneOut_17.png,85,3.0,0.8942281999625266,,,002,00,2024-08-01_14h16.57.959,Surprise recog test,2023.1.3,59.94980999980885,
85,0,85,0,,,,,,,,,,,,,,,,,,,,,,,,,,,,,,,,,,1284.4526520001236,1285.4814920001663,1282.976764800027,1282.976764800027,1282.976764800027,1282.976764800027,,new_fruit_21.png,86,2.0,1.478118099970743,,,002,00,2024-08-01_14h16.57.959,Surprise recog test,2023.1.3,59.94980999980885,
86,0,86,0,,,,,,,,,,,,,,,,,,,,,,,,,,,,,,,,,,1287.3287897000555,1288.3475907000247,1285.4814920001663,1285.4814920001663,1285.4814920001663,1285.4814920001663,,old_fruit_42.png,87,3.0,1.8491411001887172,,,002,00,2024-08-01_14h16.57.959,Surprise recog test,2023.1.3,59.94980999980885,
87,0,87,0,,,,,,,,,,,,,,,,,,,,,,,,,,,,,,,,,,1290.811964200111,1291.8284692000598,1288.3475907000247,1288.3475907000247,1288.3475907000247,1288.3475907000247,,old_stationery_25.png,88,3.0,2.4674113001674414,,,002,00,2024-08-01_14h16.57.959,Surprise recog test,2023.1.3,59.94980999980885,
88,0,88,0,,,,,,,,,,,,,,,,,,,,,,,,,,,,,,,,,,1293.7461531001609,1294.7668753000908,1291.8284692000598,1291.8284692000598,1291.8284692000598,1291.8284692000598,,new_sceneOut_20.png,89,3.0,1.91488269995898,,,002,00,2024-08-01_14h16.57.959,Surprise recog test,2023.1.3,59.94980999980885,
89,0,89,0,,,,,,,,,,,,,,,,,,,,,,,,,,,,,,,,,,1297.101337700151,1298.1249563000165,1294.7668753000908,1294.7668753000908,1294.7668753000908,1294.7668753000908,,old_sceneOut_3.png,90,3.0,2.3351763000246137,,,002,00,2024-08-01_14h16.57.959,Surprise recog test,2023.1.3,59.94980999980885,
90,0,90,0,,,,,,,,,,,,,,,,,,,,,,,,,,,,,,,,,,1299.9338239000645,1300.9507203001995,1298.1249563000165,1298.1249563000165,1298.1249563000165,1298.1249563000165,,old_stationery_8.png,91,4.0,1.810439300024882,,,002,00,2024-08-01_14h16.57.959,Surprise recog test,2023.1.3,59.94980999980885,
91,0,91,0,,,,,,,,,,,,,,,,,,,,,,,,,,,,,,,,,,1302.598694600165,1303.6195969001856,1300.9507203001995,1300.9507203001995,1300.9507203001995,1300.9507203001995,,old_sceneIn_34.png,92,4.0,1.6410872000269592,,,002,00,2024-08-01_14h16.57.959,Surprise recog test,2023.1.3,59.94980999980885,
92,0,92,0,,,,,,,,,,,,,,,,,,,,,,,,,,,,,,,,,,1304.6784557001665,1305.682773400098,1303.6195969001856,1303.6195969001856,1303.6195969001856,1303.6195969001856,,old_sceneOut_21.png,93,3.0,1.050420300103724,,,002,00,2024-08-01_14h16.57.959,Surprise recog test,2023.1.3,59.94980999980885,
93,0,93,0,,,,,,,,,,,,,,,,,,,,,,,,,,,,,,,,,,1308.4846847001463,,1305.682773400098,1305.682773400098,1305.682773400098,1305.682773400098,,new_fruit_46.png,94,3.0,2.795412799809128,,,002,00,2024-08-01_14h16.57.959,Surprise recog test,2023.1.3,59.94980999980885,
94,0,94,0,,,,,,,,,,,,,,,,,,,,,,,,,,,,,,,,,,1312.2364507000893,1313.2411336000077,1309.5119288000278,1309.5119288000278,1309.5119288000278,1309.5119288000278,,new_fruit_40.png,95,4.0,2.724045400042087,,,002,00,2024-08-01_14h16.57.959,Surprise recog test,2023.1.3,59.94980999980885,
95,0,95,0,,,,,,,,,,,,,,,,,,,,,,,,,,,,,,,,,,1314.6531322000083,1315.6732240000274,1313.2411336000077,1313.2411336000077,1313.2411336000077,1313.2411336000077,,old_fruit_12.png,96,3.0,1.406015899963677,,,002,00,2024-08-01_14h16.57.959,Surprise recog test,2023.1.3,59.94980999980885,
96,0,96,0,,,,,,,,,,,,,,,,,,,,,,,,,,,,,,,,,,1317.574293000158,,1315.6732240000274,1315.6732240000274,1315.6732240000274,1315.6732240000274,,old_sceneIn_11.png,97,4.0,1.9027068999130279,,,002,00,2024-08-01_14h16.57.959,Surprise recog test,2023.1.3,59.94980999980885,
97,0,97,0,,,,,,,,,,,,,,,,,,,,,,,,,,,,,,,,,,1320.6045679000672,1321.6282833002042,1318.6091891000979,1318.6091891000979,1318.6091891000979,1318.6091891000979,,old_stationery_28.png,98,3.0,1.9934574000071734,,,002,00,2024-08-01_14h16.57.959,Surprise recog test,2023.1.3,59.94980999980885,
98,0,98,0,,,,,,,,,,,,,,,,,,,,,,,,,,,,,,,,,,1323.3336636000313,1324.364519600058,1321.6282833002042,1321.6282833002042,1321.6282833002042,1321.6282833002042,,new_stationery_37.png,99,4.0,1.707042699912563,,,002,00,2024-08-01_14h16.57.959,Surprise recog test,2023.1.3,59.94980999980885,
99,0,99,0,,,,,,,,,,,,,,,,,,,,,,,,,,,,,,,,,,1326.271223400021,1327.3005574999843,1324.364519600058,1324.364519600058,1324.364519600058,1324.364519600058,,new_sceneIn_16.png,100,5.0,1.9064470001030713,,,002,00,2024-08-01_14h16.57.959,Surprise recog test,2023.1.3,59.94980999980885,
100,0,100,0,,,,,,,,,,,,,,,,,,,,,,,,,,,,,,,,,,1328.909786600154,1329.9233768000267,1327.3005574999843,1327.3005574999843,1327.3005574999843,1327.3005574999843,,new_stationery_31.png,101,4.0,1.6108477001544088,,,002,00,2024-08-01_14h16.57.959,Surprise recog test,2023.1.3,59.94980999980885,
101,0,101,0,,,,,,,,,,,,,,,,,,,,,,,,,,,,,,,,,,1332.7687282999977,1333.787458700128,1329.9233768000267,1329.9233768000267,1329.9233768000267,1329.9233768000267,,old_stationery_17.png,102,2.0,2.840945400064811,,,002,00,2024-08-01_14h16.57.959,Surprise recog test,2023.1.3,59.94980999980885,
102,0,102,0,,,,,,,,,,,,,,,,,,,,,,,,,,,,,,,,,,1335.2935564999934,1336.3216378001962,1333.787458700128,1333.787458700128,1333.787458700128,1333.787458700128,,new_fruit_12.png,103,2.0,1.5072054998017848,,,002,00,2024-08-01_14h16.57.959,Surprise recog test,2023.1.3,59.94980999980885,
103,0,103,0,,,,,,,,,,,,,,,,,,,,,,,,,,,,,,,,,,1339.186042000074,1340.2082520001568,1336.3216378001962,1336.3216378001962,1336.3216378001962,1336.3216378001962,,old_fruit_27.png,104,2.0,2.862756700022146,,,002,00,2024-08-01_14h16.57.959,Surprise recog test,2023.1.3,59.94980999980885,
104,0,104,0,,,,,,,,,,,,,,,,,,,,,,,,,,,,,,,,,,1342.379619100131,,1340.2082520001568,1340.2082520001568,1340.2082520001568,1340.2082520001568,,new_sceneIn_3.png,105,4.0,2.1743876000400633,,,002,00,2024-08-01_14h16.57.959,Surprise recog test,2023.1.3,59.94980999980885,
105,0,105,0,,,,,,,,,,,,,,,,,,,,,,,,,,,,,,,,,,1344.503347299993,1345.53151910007,1343.409062199993,1343.409062199993,1343.409062199993,1343.409062199993,,old_sceneOut_25.png,106,3.0,1.0951699998695403,,,002,00,2024-08-01_14h16.57.959,Surprise recog test,2023.1.3,59.94980999980885,
106,0,106,0,,,,,,,,,,,,,,,,,,,,,,,,,,,,,,,,,,1348.3933343000244,1349.402283700183,1345.53151910007,1345.53151910007,1345.53151910007,1345.53151910007,,new_stationery_34.png,107,3.0,2.8627301000524312,,,002,00,2024-08-01_14h16.57.959,Surprise recog test,2023.1.3,59.94980999980885,
107,0,107,0,,,,,,,,,,,,,,,,,,,,,,,,,,,,,,,,,,1351.942804499995,1352.9652290001977,1349.402283700183,1349.402283700183,1349.402283700183,1349.402283700183,,old_sceneIn_26.png,108,5.0,2.5364995999261737,,,002,00,2024-08-01_14h16.57.959,Surprise recog test,2023.1.3,59.94980999980885,
108,0,108,0,,,,,,,,,,,,,,,,,,,,,,,,,,,,,,,,,,1354.315671700053,1355.3382774000056,1352.9652290001977,1352.9652290001977,1352.9652290001977,1352.9652290001977,,new_sceneOut_25.png,109,3.0,1.3474178998731077,,,002,00,2024-08-01_14h16.57.959,Surprise recog test,2023.1.3,59.94980999980885,
109,0,109,0,,,,,,,,,,,,,,,,,,,,,,,,,,,,,,,,,,1357.9380578000564,1358.9530267000664,1355.3382774000056,1355.3382774000056,1355.3382774000056,1355.3382774000056,,old_fruit_36.png,110,2.0,2.601291700033471,,,002,00,2024-08-01_14h16.57.959,Surprise recog test,2023.1.3,59.94980999980885,
110,0,110,0,,,,,,,,,,,,,,,,,,,,,,,,,,,,,,,,,,1360.7445243999828,,1358.9530267000664,1358.9530267000664,1358.9530267000664,1358.9530267000664,,old_fruit_24.png,111,1.0,1.7912807001266629,,,002,00,2024-08-01_14h16.57.959,Surprise recog test,2023.1.3,59.94980999980885,
111,0,111,0,,,,,,,,,,,,,,,,,,,,,,,,,,,,,,,,,,1363.2986856000498,1364.315961400047,1361.7770166001283,1361.7770166001283,1361.7770166001283,1361.7770166001283,,new_stationery_23.png,112,1.0,1.522920799907297,,,002,00,2024-08-01_14h16.57.959,Surprise recog test,2023.1.3,59.94980999980885,
112,0,112,0,,,,,,,,,,,,,,,,,,,,,,,,,,,,,,,,,,1365.776557300007,1366.7875256000552,1364.315961400047,1364.315961400047,1364.315961400047,1364.315961400047,,old_sceneIn_7.png,113,4.0,1.4570941999554634,,,002,00,2024-08-01_14h16.57.959,Surprise recog test,2023.1.3,59.94980999980885,
113,0,113,0,,,,,,,,,,,,,,,,,,,,,,,,,,,,,,,,,,1368.45242960006,1369.4819332000334,1366.7875256000552,1366.7875256000552,1366.7875256000552,1366.7875256000552,,old_sceneIn_18.png,114,5.0,1.6609196001663804,,,002,00,2024-08-01_14h16.57.959,Surprise recog test,2023.1.3,59.94980999980885,
114,0,114,0,,,,,,,,,,,,,,,,,,,,,,,,,,,,,,,,,,1370.6940329000354,1371.7200200001244,1369.4819332000334,1369.4819332000334,1369.4819332000334,1369.4819332000334,,new_sceneOut_12.png,115,3.0,1.2100839000195265,,,002,00,2024-08-01_14h16.57.959,Surprise recog test,2023.1.3,59.94980999980885,
115,0,115,0,,,,,,,,,,,,,,,,,,,,,,,,,,,,,,,,,,1373.204969700193,,1371.7200200001244,1371.7200200001244,1371.7200200001244,1371.7200200001244,,old_sceneOut_27.png,116,3.0,1.4868876000400633,,,002,00,2024-08-01_14h16.57.959,Surprise recog test,2023.1.3,59.94980999980885,
116,0,116,0,,,,,,,,,,,,,,,,,,,,,,,,,,,,,,,,,,1374.9362582000904,1375.957927200012,1374.2319206001703,1374.2319206001703,1374.2319206001703,1374.2319206001703,,new_sceneOut_42.png,117,3.0,0.7021093000657856,,,002,00,2024-08-01_14h16.57.959,Surprise recog test,2023.1.3,59.94980999980885,
117,0,117,0,,,,,,,,,,,,,,,,,,,,,,,,,,,,,,,,,,1378.5654827000108,1379.5935796999838,1375.957927200012,1375.957927200012,1375.957927200012,1375.957927200012,,old_stationery_18.png,118,3.0,2.610100500052795,,,002,00,2024-08-01_14h16.57.959,Surprise recog test,2023.1.3,59.94980999980885,
118,0,118,0,,,,,,,,,,,,,,,,,,,,,,,,,,,,,,,,,,1381.5346524000634,1382.5638990001753,1379.5935796999838,1379.5935796999838,1379.5935796999838,1379.5935796999838,,old_stationery_3.png,119,2.0,1.943239799933508,,,002,00,2024-08-01_14h16.57.959,Surprise recog test,2023.1.3,59.94980999980885,
119,0,119,0,,,,,,,,,,,,,,,,,,,,,,,,,,,,,,,,,,1384.8039840001147,1385.8160938001238,1382.5638990001753,1382.5638990001753,1382.5638990001753,1382.5638990001753,,old_fruit_46.png,120,2.0,2.2423928000498563,,,002,00,2024-08-01_14h16.57.959,Surprise recog test,2023.1.3,59.94980999980885,
120,0,120,0,,,,,,,,,,,,,,,,,,,,,,,,,,,,,,,,,,1387.0372870999854,1388.0679258001037,1385.8160938001238,1385.8160938001238,1385.8160938001238,1385.8160938001238,,new_sceneOut_40.png,121,3.0,1.216604399960488,,,002,00,2024-08-01_14h16.57.959,Surprise recog test,2023.1.3,59.94980999980885,
121,0,121,0,,,,,,,,,,,,,,,,,,,,,,,,,,,,,,,,,,1390.5026205000468,,1388.0679258001037,1388.0679258001037,1388.0679258001037,1388.0679258001037,,old_stationery_33.png,122,3.0,2.436179800191894,,,002,00,2024-08-01_14h16.57.959,Surprise recog test,2023.1.3,59.94980999980885,
122,0,122,0,,,,,,,,,,,,,,,,,,,,,,,,,,,,,,,,,,1392.6686545000412,1393.6874700000044,1391.523778800154,1391.523778800154,1391.523778800154,1391.523778800154,,old_sceneOut_33.png,123,3.0,1.1410512998700142,,,002,00,2024-08-01_14h16.57.959,Surprise recog test,2023.1.3,59.94980999980885,
123,0,123,0,,,,,,,,,,,,,,,,,,,,,,,,,,,,,,,,,,1395.453716600081,1396.4795245002024,1393.6874700000044,1393.6874700000044,1393.6874700000044,1393.6874700000044,,old_fruit_41.png,124,2.0,1.7614084999077022,,,002,00,2024-08-01_14h16.57.959,Surprise recog test,2023.1.3,59.94980999980885,
124,0,124,0,,,,,,,,,,,,,,,,,,,,,,,,,,,,,,,,,,1398.8436345001683,,1396.4795245002024,1396.4795245002024,1396.4795245002024,1396.4795245002024,,old_sceneIn_40.png,125,5.0,2.3687029001303017,,,002,00,2024-08-01_14h16.57.959,Surprise recog test,2023.1.3,59.94980999980885,
125,0,125,0,,,,,,,,,,,,,,,,,,,,,,,,,,,,,,,,,,1401.759639200056,1402.778423000127,1399.8760675999802,1399.8760675999802,1399.8760675999802,1399.8760675999802,,old_fruit_19.png,126,2.0,1.8851289998274297,,,002,00,2024-08-01_14h16.57.959,Surprise recog test,2023.1.3,59.94980999980885,
126,0,126,0,,,,,,,,,,,,,,,,,,,,,,,,,,,,,,,,,,1404.5258942001965,1405.5445501001086,1402.778423000127,1402.778423000127,1402.778423000127,1402.778423000127,,old_stationery_34.png,127,2.0,1.7457096998114139,,,002,00,2024-08-01_14h16.57.959,Surprise recog test,2023.1.3,59.94980999980885,
127,0,127,0,,,,,,,,,,,,,,,,,,,,,,,,,,,,,,,,,,1408.0058059000876,1409.0226530001964,1405.5445501001086,1405.5445501001086,1405.5445501001086,1405.5445501001086,,old_sceneIn_3.png,128,5.0,2.462896700017154,,,002,00,2024-08-01_14h16.57.959,Surprise recog test,2023.1.3,59.94980999980885,
128,0,128,0,,,,,,,,,,,,,,,,,,,,,,,,,,,,,,,,,,1412.653658100171,,1409.0226530001964,1409.0226530001964,1409.0226530001964,1409.0226530001964,,new_sceneOut_4.png,129,3.0,3.6243247999809682,,,002,00,2024-08-01_14h16.57.959,Surprise recog test,2023.1.3,59.94980999980885,
129,0,129,0,,,,,,,,,,,,,,,,,,,,,,,,,,,,,,,,,,1414.9077083000448,1415.9274058002047,1413.687537800055,1413.687537800055,1413.687537800055,1413.687537800055,,new_fruit_15.png,130,2.0,1.2231497999746352,,,002,00,2024-08-01_14h16.57.959,Surprise recog test,2023.1.3,59.94980999980885,
130,0,130,0,,,,,,,,,,,,,,,,,,,,,,,,,,,,,,,,,,1417.1666139001027,1418.1931280000135,1415.9274058002047,1415.9274058002047,1415.9274058002047,1415.9274058002047,,new_sceneOut_38.png,131,3.0,1.2345432001166046,,,002,00,2024-08-01_14h16.57.959,Surprise recog test,2023.1.3,59.94980999980885,
131,0,131,0,,,,,,,,,,,,,,,,,,,,,,,,,,,,,,,,,,1420.1803452000022,1421.1963596001733,1418.1931280000135,1418.1931280000135,1418.1931280000135,1418.1931280000135,,new_sceneIn_50.png,132,5.0,1.9894254000391811,,,002,00,2024-08-01_14h16.57.959,Surprise recog test,2023.1.3,59.94980999980885,
132,0,132,0,,,,,,,,,,,,,,,,,,,,,,,,,,,,,,,,,,1424.720543500036,1425.74066390004,1421.1963596001733,1421.1963596001733,1421.1963596001733,1421.1963596001733,,old_stationery_15.png,133,4.0,3.520437699975446,,,002,00,2024-08-01_14h16.57.959,Surprise recog test,2023.1.3,59.94980999980885,
133,0,133,0,,,,,,,,,,,,,,,,,,,,,,,,,,,,,,,,,,1428.0759439000394,1429.0963097000495,1425.74066390004,1425.74066390004,1425.74066390004,1425.74066390004,,old_fruit_29.png,134,3.0,2.333200499881059,,,002,00,2024-08-01_14h16.57.959,Surprise recog test,2023.1.3,59.94980999980885,
134,0,134,0,,,,,,,,,,,,,,,,,,,,,,,,,,,,,,,,,,1430.9127009001095,1431.9382927999832,1429.0963097000495,1429.0963097000495,1429.0963097000495,1429.0963097000495,,old_stationery_6.png,135,3.0,1.818716100184247,,,002,00,2024-08-01_14h16.57.959,Surprise recog test,2023.1.3,59.94980999980885,
135,0,135,0,,,,,,,,,,,,,,,,,,,,,,,,,,,,,,,,,,1434.192735500168,1435.22071220004,1431.9382927999832,1431.9382927999832,1431.9382927999832,1431.9382927999832,,new_sceneIn_37.png,136,5.0,2.2554899000097066,,,002,00,2024-08-01_14h16.57.959,Surprise recog test,2023.1.3,59.94980999980885,
136,0,136,0,,,,,,,,,,,,,,,,,,,,,,,,,,,,,,,,,,1436.6892988001928,1437.7071195000317,1435.22071220004,1435.22071220004,1435.22071220004,1435.22071220004,,new_sceneIn_29.png,137,5.0,1.471518199890852,,,002,00,2024-08-01_14h16.57.959,Surprise recog test,2023.1.3,59.94980999980885,
137,0,137,0,,,,,,,,,,,,,,,,,,,,,,,,,,,,,,,,,,1439.2744919001125,1440.2907581001054,1437.7071195000317,1437.7071195000317,1437.7071195000317,1437.7071195000317,,new_sceneIn_5.png,138,5.0,1.5689242999069393,,,002,00,2024-08-01_14h16.57.959,Surprise recog test,2023.1.3,59.94980999980885,
138,0,138,0,,,,,,,,,,,,,,,,,,,,,,,,,,,,,,,,,,1442.5673720000777,1443.5932945001405,1440.2907581001054,1440.2907581001054,1440.2907581001054,1440.2907581001054,,old_sceneOut_29.png,139,4.0,2.277752700028941,,,002,00,2024-08-01_14h16.57.959,Surprise recog test,2023.1.3,59.94980999980885,
139,0,139,0,,,,,,,,,,,,,,,,,,,,,,,,,,,,,,,,,,1445.8039590001572,1446.8273060000502,1443.5932945001405,1443.5932945001405,1443.5932945001405,1443.5932945001405,,old_stationery_40.png,140,3.0,2.212624400155619,,,002,00,2024-08-01_14h16.57.959,Surprise recog test,2023.1.3,59.94980999980885,
140,0,140,0,,,,,,,,,,,,,,,,,,,,,,,,,,,,,,,,,,1448.4600194001105,1449.4851236001123,1446.8273060000502,1446.8273060000502,1446.8273060000502,1446.8273060000502,,old_sceneIn_2.png,141,5.0,1.6324747998733073,,,002,00,2024-08-01_14h16.57.959,Surprise recog test,2023.1.3,59.94980999980885,
141,0,141,0,,,,,,,,,,,,,,,,,,,,,,,,,,,,,,,,,,1451.143859400181,1452.16570410016,1449.4851236001123,1449.4851236001123,1449.4851236001123,1449.4851236001123,,old_sceneIn_45.png,142,5.0,1.658617899985984,,,002,00,2024-08-01_14h16.57.959,Surprise recog test,2023.1.3,59.94980999980885,
142,0,142,0,,,,,,,,,,,,,,,,,,,,,,,,,,,,,,,,,,1453.703924200032,1454.7251623000484,1452.16570410016,1452.16570410016,1452.16570410016,1452.16570410016,,old_stationery_29.png,143,3.0,1.5365065999794751,,,002,00,2024-08-01_14h16.57.959,Surprise recog test,2023.1.3,59.94980999980885,
143,0,143,0,,,,,,,,,,,,,,,,,,,,,,,,,,,,,,,,,,1456.3208757000975,1457.3513673001435,1454.7251623000484,1454.7251623000484,1454.7251623000484,1454.7251623000484,,new_fruit_30.png,144,3.0,1.5920718999113888,,,002,00,2024-08-01_14h16.57.959,Surprise recog test,2023.1.3,59.94980999980885,
144,0,144,0,,,,,,,,,,,,,,,,,,,,,,,,,,,,,,,,,,1458.0166970000137,1459.0301254000515,1457.3513673001435,1457.3513673001435,1457.3513673001435,1457.3513673001435,,old_sceneOut_37.png,145,3.0,0.667335300007835,,,002,00,2024-08-01_14h16.57.959,Surprise recog test,2023.1.3,59.94980999980885,
145,0,145,0,,,,,,,,,,,,,,,,,,,,,,,,,,,,,,,,,,1460.1169548002072,1461.1428595001344,1459.0301254000515,1459.0301254000515,1459.0301254000515,1459.0301254000515,,old_fruit_14.png,146,3.0,1.0821968999225646,,,002,00,2024-08-01_14h16.57.959,Surprise recog test,2023.1.3,59.94980999980885,
146,0,146,0,,,,,,,,,,,,,,,,,,,,,,,,,,,,,,,,,,1461.9302903001662,,1461.1428595001344,1461.1428595001344,1461.1428595001344,1461.1428595001344,,new_sceneOut_28.png,147,3.0,0.7887953999452293,,,002,00,2024-08-01_14h16.57.959,Surprise recog test,2023.1.3,59.94980999980885,
147,0,147,0,,,,,,,,,,,,,,,,,,,,,,,,,,,,,,,,,,1466.192422799999,1467.2174099001568,1462.9616767000407,1462.9616767000407,1462.9616767000407,1462.9616767000407,,old_sceneIn_48.png,148,5.0,3.2313174998853356,,,002,00,2024-08-01_14h16.57.959,Surprise recog test,2023.1.3,59.94980999980885,
148,0,148,0,,,,,,,,,,,,,,,,,,,,,,,,,,,,,,,,,,1470.6947410001885,1471.7168270000257,1467.2174099001568,1467.2174099001568,1467.2174099001568,1467.2174099001568,,old_fruit_25.png,149,2.0,3.4789156999904662,,,002,00,2024-08-01_14h16.57.959,Surprise recog test,2023.1.3,59.94980999980885,
149,0,149,0,,,,,,,,,,,,,,,,,,,,,,,,,,,,,,,,,,1473.624503100058,1474.6502661001869,1471.7168270000257,1471.7168270000257,1471.7168270000257,1471.7168270000257,,new_sceneIn_20.png,150,5.0,1.9096719999797642,,,002,00,2024-08-01_14h16.57.959,Surprise recog test,2023.1.3,59.94980999980885,
150,0,150,0,,,,,,,,,,,,,,,,,,,,,,,,,,,,,,,,,,1477.6170839001425,1478.6310876000207,1474.6502661001869,1474.6502661001869,1474.6502661001869,1474.6502661001869,,new_stationery_21.png,151,4.0,2.967138599837199,,,002,00,2024-08-01_14h16.57.959,Surprise recog test,2023.1.3,59.94980999980885,
151,0,151,0,,,,,,,,,,,,,,,,,,,,,,,,,,,,,,,,,,1479.863348999992,1480.881808300037,1478.6310876000207,1478.6310876000207,1478.6310876000207,1478.6310876000207,,old_sceneOut_14.png,152,3.0,1.2278299001045525,,,002,00,2024-08-01_14h16.57.959,Surprise recog test,2023.1.3,59.94980999980885,
152,0,152,0,,,,,,,,,,,,,,,,,,,,,,,,,,,,,,,,,,1482.6243094000965,1483.6345081999898,1480.881808300037,1480.881808300037,1480.881808300037,1480.881808300037,,new_fruit_43.png,153,5.0,1.7357230999041349,,,002,00,2024-08-01_14h16.57.959,Surprise recog test,2023.1.3,59.94980999980885,
153,0,153,0,,,,,,,,,,,,,,,,,,,,,,,,,,,,,,,,,,1484.9006426001433,1485.9313294000458,1483.6345081999898,1483.6345081999898,1483.6345081999898,1483.6345081999898,,new_sceneOut_35.png,154,3.0,1.2625182999763638,,,002,00,2024-08-01_14h16.57.959,Surprise recog test,2023.1.3,59.94980999980885,
154,0,154,0,,,,,,,,,,,,,,,,,,,,,,,,,,,,,,,,,,1487.7436877000146,1488.7613004001323,1485.9313294000458,1485.9313294000458,1485.9313294000458,1485.9313294000458,,new_fruit_24.png,155,3.0,1.81528879981488,,,002,00,2024-08-01_14h16.57.959,Surprise recog test,2023.1.3,59.94980999980885,
155,0,155,0,,,,,,,,,,,,,,,,,,,,,,,,,,,,,,,,,,1490.5330845999997,1491.5494074001908,1488.7613004001323,1488.7613004001323,1488.7613004001323,1488.7613004001323,,new_sceneIn_41.png,156,5.0,1.7725792001001537,,,002,00,2024-08-01_14h16.57.959,Surprise recog test,2023.1.3,59.94980999980885,
156,0,156,0,,,,,,,,,,,,,,,,,,,,,,,,,,,,,,,,,,1492.4001744000707,1493.4214958001394,1491.5494074001908,1491.5494074001908,1491.5494074001908,1491.5494074001908,,new_sceneIn_17.png,157,5.0,0.8505736000370234,,,002,00,2024-08-01_14h16.57.959,Surprise recog test,2023.1.3,59.94980999980885,
157,0,157,0,,,,,,,,,,,,,,,,,,,,,,,,,,,,,,,,,,1495.2365980001632,1496.2588992000092,1493.4214958001394,1493.4214958001394,1493.4214958001394,1493.4214958001394,,new_fruit_19.png,158,5.0,1.812667899997905,,,002,00,2024-08-01_14h16.57.959,Surprise recog test,2023.1.3,59.94980999980885,
158,0,158,0,,,,,,,,,,,,,,,,,,,,,,,,,,,,,,,,,,1498.439106500009,1499.4474909000564,1496.2588992000092,1496.2588992000092,1496.2588992000092,1496.2588992000092,,new_fruit_7.png,159,3.0,2.1794785000383854,,,002,00,2024-08-01_14h16.57.959,Surprise recog test,2023.1.3,59.94980999980885,
159,0,159,0,,,,,,,,,,,,,,,,,,,,,,,,,,,,,,,,,,1500.6722665000707,1501.686271400191,1499.4474909000564,1499.4474909000564,1499.4474909000564,1499.4474909000564,,old_sceneIn_27.png,160,5.0,1.220505499979481,,,002,00,2024-08-01_14h16.57.959,Surprise recog test,2023.1.3,59.94980999980885,
160,0,160,0,,,,,,,,,,,,,,,,,,,,,,,,,,,,,,,,,,1504.259089600062,1505.2786948999856,1501.686271400191,1501.686271400191,1501.686271400191,1501.686271400191,,old_stationery_9.png,161,3.0,2.5710634000133723,,,002,00,2024-08-01_14h16.57.959,Surprise recog test,2023.1.3,59.94980999980885,
161,0,161,0,,,,,,,,,,,,,,,,,,,,,,,,,,,,,,,,,,1507.2970096000936,1508.322602899978,1505.2786948999856,1505.2786948999856,1505.2786948999856,1505.2786948999856,,new_stationery_7.png,162,3.0,2.016154099954292,,,002,00,2024-08-01_14h16.57.959,Surprise recog test,2023.1.3,59.94980999980885,
162,0,162,0,,,,,,,,,,,,,,,,,,,,,,,,,,,,,,,,,,1509.0451838001609,1510.073272800073,1508.322602899978,1508.322602899978,1508.322602899978,1508.322602899978,,new_sceneOut_29.png,163,3.0,0.7252424999605864,,,002,00,2024-08-01_14h16.57.959,Surprise recog test,2023.1.3,59.94980999980885,
163,0,163,0,,,,,,,,,,,,,,,,,,,,,,,,,,,,,,,,,,1511.4128186001908,1512.4240216000471,1510.073272800073,1510.073272800073,1510.073272800073,1510.073272800073,,old_sceneIn_4.png,164,5.0,1.3417171000037342,,,002,00,2024-08-01_14h16.57.959,Surprise recog test,2023.1.3,59.94980999980885,
164,0,164,0,,,,,,,,,,,,,,,,,,,,,,,,,,,,,,,,,,1514.3418885001447,1515.3709648000076,1512.4240216000471,1512.4240216000471,1512.4240216000471,1512.4240216000471,,new_stationery_4.png,165,3.0,1.9118989000562578,,,002,00,2024-08-01_14h16.57.959,Surprise recog test,2023.1.3,59.94980999980885,
165,0,165,0,,,,,,,,,,,,,,,,,,,,,,,,,,,,,,,,,,1516.5450217002071,1517.571094200015,1515.3709648000076,1515.3709648000076,1515.3709648000076,1515.3709648000076,,old_stationery_38.png,166,3.0,1.1755792999174446,,,002,00,2024-08-01_14h16.57.959,Surprise recog test,2023.1.3,59.94980999980885,
166,0,166,0,,,,,,,,,,,,,,,,,,,,,,,,,,,,,,,,,,1519.1168827000074,1520.1491070999764,1517.571094200015,1517.571094200015,1517.571094200015,1517.571094200015,,new_fruit_33.png,167,3.0,1.5442984998226166,,,002,00,2024-08-01_14h16.57.959,Surprise recog test,2023.1.3,59.94980999980885,
167,0,167,0,,,,,,,,,,,,,,,,,,,,,,,,,,,,,,,,,,1520.8916466000956,1521.9102853001095,1520.1491070999764,1520.1491070999764,1520.1491070999764,1520.1491070999764,,old_sceneOut_24.png,168,3.0,0.7479922999627888,,,002,00,2024-08-01_14h16.57.959,Surprise recog test,2023.1.3,59.94980999980885,
168,0,168,0,,,,,,,,,,,,,,,,,,,,,,,,,,,,,,,,,,1523.760197200114,1524.772855099989,1521.9102853001095,1521.9102853001095,1521.9102853001095,1521.9102853001095,,old_sceneOut_23.png,169,4.0,1.845949999988079,,,002,00,2024-08-01_14h16.57.959,Surprise recog test,2023.1.3,59.94980999980885,
169,0,169,0,,,,,,,,,,,,,,,,,,,,,,,,,,,,,,,,,,1526.3138384001795,1527.332346700132,1524.772855099989,1524.772855099989,1524.772855099989,1524.772855099989,,old_sceneIn_39.png,170,5.0,1.5410662000067532,,,002,00,2024-08-01_14h16.57.959,Surprise recog test,2023.1.3,59.94980999980885,
170,0,170,0,,,,,,,,,,,,,,,,,,,,,,,,,,,,,,,,,,1528.0370834001806,1529.0671632001176,1527.332346700132,1527.332346700132,1527.332346700132,1527.332346700132,,old_sceneIn_28.png,171,5.0,0.705331000033766,,,002,00,2024-08-01_14h16.57.959,Surprise recog test,2023.1.3,59.94980999980885,
171,0,171,0,,,,,,,,,,,,,,,,,,,,,,,,,,,,,,,,,,1532.650964600034,1533.6620595999993,1529.0671632001176,1529.0671632001176,1529.0671632001176,1529.0671632001176,,old_stationery_16.png,172,2.0,3.5790959000587463,,,002,00,2024-08-01_14h16.57.959,Surprise recog test,2023.1.3,59.94980999980885,
172,0,172,0,,,,,,,,,,,,,,,,,,,,,,,,,,,,,,,,,,1535.467866800027,1536.485300600063,1533.6620595999993,1533.6620595999993,1533.6620595999993,1533.6620595999993,,new_stationery_6.png,173,4.0,1.8048088001087308,,,002,00,2024-08-01_14h16.57.959,Surprise recog test,2023.1.3,59.94980999980885,
173,0,173,0,,,,,,,,,,,,,,,,,,,,,,,,,,,,,,,,,,1537.6610690001398,1538.6787170001771,1536.485300600063,1536.485300600063,1536.485300600063,1536.485300600063,,old_sceneOut_13.png,174,3.0,1.1756080000195652,,,002,00,2024-08-01_14h16.57.959,Surprise recog test,2023.1.3,59.94980999980885,
174,0,174,0,,,,,,,,,,,,,,,,,,,,,,,,,,,,,,,,,,1541.8838387001306,1542.912861800054,1538.6787170001771,1538.6787170001771,1538.6787170001771,1538.6787170001771,,old_stationery_48.png,175,1.0,3.2014027999248356,,,002,00,2024-08-01_14h16.57.959,Surprise recog test,2023.1.3,59.94980999980885,
175,0,175,0,,,,,,,,,,,,,,,,,,,,,,,,,,,,,,,,,,1544.5791717001703,1545.5868855000008,1542.912861800054,1542.912861800054,1542.912861800054,1542.912861800054,,old_stationery_43.png,176,2.0,1.6670898001175374,,,002,00,2024-08-01_14h16.57.959,Surprise recog test,2023.1.3,59.94980999980885,
176,0,176,0,,,,,,,,,,,,,,,,,,,,,,,,,,,,,,,,,,1548.8734236001037,1549.898976800032,1545.5868855000008,1545.5868855000008,1545.5868855000008,1545.5868855000008,,new_stationery_42.png,177,4.0,3.283731499919668,,,002,00,2024-08-01_14h16.57.959,Surprise recog test,2023.1.3,59.94980999980885,
177,0,177,0,,,,,,,,,,,,,,,,,,,,,,,,,,,,,,,,,,1551.8712197002023,,1549.898976800032,1549.898976800032,1549.898976800032,1549.898976800032,,new_stationery_47.png,178,4.0,1.9732073000632226,,,002,00,2024-08-01_14h16.57.959,Surprise recog test,2023.1.3,59.94980999980885,
178,0,178,0,,,,,,,,,,,,,,,,,,,,,,,,,,,,,,,,,,1554.6249127001502,1555.659259499982,1552.898444000166,1552.898444000166,1552.898444000166,1552.898444000166,,old_fruit_2.png,179,3.0,1.728735800134018,,,002,00,2024-08-01_14h16.57.959,Surprise recog test,2023.1.3,59.94980999980885,
179,0,179,0,,,,,,,,,,,,,,,,,,,,,,,,,,,,,,,,,,1557.2162453001365,1558.2316479000729,1555.659259499982,1555.659259499982,1555.659259499982,1555.659259499982,,new_sceneIn_49.png,180,5.0,1.5561981000937521,,,002,00,2024-08-01_14h16.57.959,Surprise recog test,2023.1.3,59.94980999980885,
180,0,180,0,,,,,,,,,,,,,,,,,,,,,,,,,,,,,,,,,,1559.7060829000548,1560.7153509000782,1558.2316479000729,1558.2316479000729,1558.2316479000729,1558.2316479000729,,new_sceneIn_35.png,181,5.0,1.4717951000202447,,,002,00,2024-08-01_14h16.57.959,Surprise recog test,2023.1.3,59.94980999980885,
181,0,181,0,,,,,,,,,,,,,,,,,,,,,,,,,,,,,,,,,,1562.8152694001328,1563.8347354000434,1560.7153509000782,1560.7153509000782,1560.7153509000782,1560.7153509000782,,new_stationery_49.png,182,3.0,2.0945212999358773,,,002,00,2024-08-01_14h16.57.959,Surprise recog test,2023.1.3,59.94980999980885,
182,0,182,0,,,,,,,,,,,,,,,,,,,,,,,,,,,,,,,,,,1564.9857495001052,1566.018418900203,1563.8347354000434,1563.8347354000434,1563.8347354000434,1563.8347354000434,,new_sceneOut_32.png,183,3.0,1.1443233001045883,,,002,00,2024-08-01_14h16.57.959,Surprise recog test,2023.1.3,59.94980999980885,
183,0,183,0,,,,,,,,,,,,,,,,,,,,,,,,,,,,,,,,,,1567.9367892001756,1568.963160000043,1566.018418900203,1566.018418900203,1566.018418900203,1566.018418900203,,old_stationery_21.png,184,3.0,1.9210920000914484,,,002,00,2024-08-01_14h16.57.959,Surprise recog test,2023.1.3,59.94980999980885,
184,0,184,0,,,,,,,,,,,,,,,,,,,,,,,,,,,,,,,,,,1570.0053962999955,1571.0336289000697,1568.963160000043,1568.963160000043,1568.963160000043,1568.963160000043,,old_stationery_42.png,185,3.0,1.0443865000270307,,,002,00,2024-08-01_14h16.57.959,Surprise recog test,2023.1.3,59.94980999980885,
185,0,185,0,,,,,,,,,,,,,,,,,,,,,,,,,,,,,,,,,,1572.748124500038,1573.7595097001176,1571.0336289000697,1571.0336289000697,1571.0336289000697,1571.0336289000697,,old_fruit_49.png,186,3.0,1.715816600015387,,,002,00,2024-08-01_14h16.57.959,Surprise recog test,2023.1.3,59.94980999980885,
186,0,186,0,,,,,,,,,,,,,,,,,,,,,,,,,,,,,,,,,,1575.096580900019,1576.1112455001567,1573.7595097001176,1573.7595097001176,1573.7595097001176,1573.7595097001176,,old_sceneOut_28.png,187,3.0,1.3306114999577403,,,002,00,2024-08-01_14h16.57.959,Surprise recog test,2023.1.3,59.94980999980885,
187,0,187,0,,,,,,,,,,,,,,,,,,,,,,,,,,,,,,,,,,1577.0505793001503,1578.0680696000345,1576.1112455001567,1576.1112455001567,1576.1112455001567,1576.1112455001567,,new_sceneOut_39.png,188,3.0,0.9347230999264866,,,002,00,2024-08-01_14h16.57.959,Surprise recog test,2023.1.3,59.94980999980885,
188,0,188,0,,,,,,,,,,,,,,,,,,,,,,,,,,,,,,,,,,1580.870196599979,1581.8818173001055,1578.0680696000345,1578.0680696000345,1578.0680696000345,1578.0680696000345,,new_fruit_31.png,189,3.0,2.80360300000757,,,002,00,2024-08-01_14h16.57.959,Surprise recog test,2023.1.3,59.94980999980885,
189,0,189,0,,,,,,,,,,,,,,,,,,,,,,,,,,,,,,,,,,1583.5213880999945,1584.542891900055,1581.8818173001055,1581.8818173001055,1581.8818173001055,1581.8818173001055,,new_stationery_40.png,190,4.0,1.6317576998844743,,,002,00,2024-08-01_14h16.57.959,Surprise recog test,2023.1.3,59.94980999980885,
190,0,190,0,,,,,,,,,,,,,,,,,,,,,,,,,,,,,,,,,,1585.8535819000099,1586.8816818001214,1584.542891900055,1584.542891900055,1584.542891900055,1584.542891900055,,new_sceneOut_24.png,191,3.0,1.3093954001087695,,,002,00,2024-08-01_14h16.57.959,Surprise recog test,2023.1.3,59.94980999980885,
191,0,191,0,,,,,,,,,,,,,,,,,,,,,,,,,,,,,,,,,,1588.462999700103,1589.470807300182,1586.8816818001214,1586.8816818001214,1586.8816818001214,1586.8816818001214,,new_fruit_32.png,192,3.0,1.5816105001140386,,,002,00,2024-08-01_14h16.57.959,Surprise recog test,2023.1.3,59.94980999980885,
192,0,192,0,,,,,,,,,,,,,,,,,,,,,,,,,,,,,,,,,,1591.0000827000476,1592.0144352000207,1589.470807300182,1589.470807300182,1589.470807300182,1589.470807300182,,old_sceneIn_9.png,193,5.0,1.526600900106132,,,002,00,2024-08-01_14h16.57.959,Surprise recog test,2023.1.3,59.94980999980885,
193,0,193,0,,,,,,,,,,,,,,,,,,,,,,,,,,,,,,,,,,1594.8719043000601,,1592.0144352000207,1592.0144352000207,1592.0144352000207,1592.0144352000207,,old_stationery_36.png,194,2.0,2.8561953001189977,,,002,00,2024-08-01_14h16.57.959,Surprise recog test,2023.1.3,59.94980999980885,
194,0,194,0,,,,,,,,,,,,,,,,,,,,,,,,,,,,,,,,,,1597.2495510000736,1598.2746556000784,1595.8950917001348,1595.8950917001348,1595.8950917001348,1595.8950917001348,,old_fruit_44.png,195,3.0,1.3497684998437762,,,002,00,2024-08-01_14h16.57.959,Surprise recog test,2023.1.3,59.94980999980885,
195,0,195,0,,,,,,,,,,,,,,,,,,,,,,,,,,,,,,,,,,1599.3764555000234,,1598.2746556000784,1598.2746556000784,1598.2746556000784,1598.2746556000784,,old_fruit_5.png,196,3.0,1.104203699855134,,,002,00,2024-08-01_14h16.57.959,Surprise recog test,2023.1.3,59.94980999980885,
196,0,196,0,,,,,,,,,,,,,,,,,,,,,,,,,,,,,,,,,,1601.9258661000058,1602.945205300115,1600.3987927001435,1600.3987927001435,1600.3987927001435,1600.3987927001435,,new_stationery_27.png,197,4.0,1.522192400181666,,,002,00,2024-08-01_14h16.57.959,Surprise recog test,2023.1.3,59.94980999980885,
197,0,197,0,,,,,,,,,,,,,,,,,,,,,,,,,,,,,,,,,,1604.6725588000845,1605.6972225001082,1602.945205300115,1602.945205300115,1602.945205300115,1602.945205300115,,new_sceneIn_48.png,198,5.0,1.7271569999866188,,,002,00,2024-08-01_14h16.57.959,Surprise recog test,2023.1.3,59.94980999980885,
198,0,198,0,,,,,,,,,,,,,,,,,,,,,,,,,,,,,,,,,,1608.6500111001078,,1605.6972225001082,1605.6972225001082,1605.6972225001082,1605.6972225001082,,old_sceneOut_2.png,199,3.0,2.9545058000367135,,,002,00,2024-08-01_14h16.57.959,Surprise recog test,2023.1.3,59.94980999980885,
199,0,199,0,,,,,,,,,,,,,,,,,,,,,,,,,,,,,,,,,,1611.1013799000066,,1609.6850535999984,1609.6850535999984,1609.6850535999984,1609.6850535999984,,new_sceneIn_1.png,200,5.0,1.4177055999170989,,,002,00,2024-08-01_14h16.57.959,Surprise recog test,2023.1.3,59.94980999980885,
200,0,200,0,,,,,,,,,,,,,,,,,,,,,,,,,,,,,,,,,,1614.657247000141,1615.683685600059,1612.1236587001476,1612.1236587001476,1612.1236587001476,1612.1236587001476,,new_fruit_34.png,201,3.0,2.5296451000031084,,,002,00,2024-08-01_14h16.57.959,Surprise recog test,2023.1.3,59.94980999980885,
201,0,201,0,,,,,,,,,,,,,,,,,,,,,,,,,,,,,,,,,,1616.8009798000567,1617.8086672001518,1615.683685600059,1615.683685600059,1615.683685600059,1615.683685600059,,new_stationery_22.png,202,3.0,1.1157239000312984,,,002,00,2024-08-01_14h16.57.959,Surprise recog test,2023.1.3,59.94980999980885,
202,0,202,0,,,,,,,,,,,,,,,,,,,,,,,,,,,,,,,,,,1620.4348171001766,1621.44961780007,1617.8086672001518,1617.8086672001518,1617.8086672001518,1617.8086672001518,,old_stationery_46.png,203,2.0,2.621209300123155,,,002,00,2024-08-01_14h16.57.959,Surprise recog test,2023.1.3,59.94980999980885,
203,0,203,0,,,,,,,,,,,,,,,,,,,,,,,,,,,,,,,,,,1622.9951410000212,,1621.44961780007,1621.44961780007,1621.44961780007,1621.44961780007,,old_sceneOut_45.png,204,5.0,1.5420922001358122,,,002,00,2024-08-01_14h16.57.959,Surprise recog test,2023.1.3,59.94980999980885,
204,0,204,0,,,,,,,,,,,,,,,,,,,,,,,,,,,,,,,,,,1626.1493305000477,,1624.01773219998,1624.01773219998,1624.01773219998,1624.01773219998,,old_fruit_22.png,205,3.0,2.1268774999771267,,,002,00,2024-08-01_14h16.57.959,Surprise recog test,2023.1.3,59.94980999980885,
205,0,205,0,,,,,,,,,,,,,,,,,,,,,,,,,,,,,,,,,,1629.691453800071,1630.7075465000235,1627.1857453000266,1627.1857453000266,1627.1857453000266,1627.1857453000266,,new_sceneOut_30.png,206,3.0,2.5080343999434263,,,002,00,2024-08-01_14h16.57.959,Surprise recog test,2023.1.3,59.94980999980885,
206,0,206,0,,,,,,,,,,,,,,,,,,,,,,,,,,,,,,,,,,1632.6951223001815,1633.7216037001926,1630.7075465000235,1630.7075465000235,1630.7075465000235,1630.7075465000235,,new_sceneIn_22.png,207,5.0,1.9856183000374585,,,002,00,2024-08-01_14h16.57.959,Surprise recog test,2023.1.3,59.94980999980885,
207,0,207,0,,,,,,,,,,,,,,,,,,,,,,,,,,,,,,,,,,1635.4754871001933,1636.4990318000782,1633.7216037001926,1633.7216037001926,1633.7216037001926,1633.7216037001926,,new_stationery_38.png,208,3.0,1.753792999777943,,,002,00,2024-08-01_14h16.57.959,Surprise recog test,2023.1.3,59.94980999980885,
208,0,208,0,,,,,,,,,,,,,,,,,,,,,,,,,,,,,,,,,,1637.9742159000598,,1636.4990318000782,1636.4990318000782,1636.4990318000782,1636.4990318000782,,new_sceneOut_33.png,209,3.0,1.4741931001190096,,,002,00,2024-08-01_14h16.57.959,Surprise recog test,2023.1.3,59.94980999980885,
209,0,209,0,,,,,,,,,,,,,,,,,,,,,,,,,,,,,,,,,,1640.3667105999775,1641.3804429001175,1638.996556200087,1638.996556200087,1638.996556200087,1638.996556200087,,new_sceneIn_45.png,210,5.0,1.3656689000781626,,,002,00,2024-08-01_14h16.57.959,Surprise recog test,2023.1.3,59.94980999980885,
210,0,210,0,,,,,,,,,,,,,,,,,,,,,,,,,,,,,,,,,,1642.7918562002014,1643.7974841999821,1641.3804429001175,1641.3804429001175,1641.3804429001175,1641.3804429001175,,old_sceneIn_17.png,211,5.0,1.40684389998205,,,002,00,2024-08-01_14h16.57.959,Surprise recog test,2023.1.3,59.94980999980885,
211,0,211,0,,,,,,,,,,,,,,,,,,,,,,,,,,,,,,,,,,1644.5950096000452,1645.6025059001986,1643.7974841999821,1643.7974841999821,1643.7974841999821,1643.7974841999821,,old_sceneIn_6.png,212,5.0,0.7924592001363635,,,002,00,2024-08-01_14h16.57.959,Surprise recog test,2023.1.3,59.94980999980885,
212,0,212,0,,,,,,,,,,,,,,,,,,,,,,,,,,,,,,,,,,1647.488492500037,1648.5022411001846,1645.6025059001986,1645.6025059001986,1645.6025059001986,1645.6025059001986,,new_sceneIn_32.png,213,5.0,1.8818635998759419,,,002,00,2024-08-01_14h16.57.959,Surprise recog test,2023.1.3,59.94980999980885,
213,0,213,0,,,,,,,,,,,,,,,,,,,,,,,,,,,,,,,,,,1649.6945356000215,1650.720069900155,1648.5022411001846,1648.5022411001846,1648.5022411001846,1648.5022411001846,,old_sceneIn_14.png,214,5.0,1.1894293001387268,,,002,00,2024-08-01_14h16.57.959,Surprise recog test,2023.1.3,59.94980999980885,
214,0,214,0,,,,,,,,,,,,,,,,,,,,,,,,,,,,,,,,,,1652.5492924000137,1653.5677136001177,1650.720069900155,1650.720069900155,1650.720069900155,1650.720069900155,,old_fruit_47.png,215,1.0,1.829343399964273,,,002,00,2024-08-01_14h16.57.959,Surprise recog test,2023.1.3,59.94980999980885,
215,0,215,0,,,,,,,,,,,,,,,,,,,,,,,,,,,,,,,,,,1656.0788896000013,1657.0956341000274,1653.5677136001177,1653.5677136001177,1653.5677136001177,1653.5677136001177,,old_sceneOut_4.png,216,4.0,2.511936000082642,,,002,00,2024-08-01_14h16.57.959,Surprise recog test,2023.1.3,59.94980999980885,
216,0,216,0,,,,,,,,,,,,,,,,,,,,,,,,,,,,,,,,,,1659.29887040006,1660.3140613001306,1657.0956341000274,1657.0956341000274,1657.0956341000274,1657.0956341000274,,new_stationery_33.png,217,3.0,2.1995238000527024,,,002,00,2024-08-01_14h16.57.959,Surprise recog test,2023.1.3,59.94980999980885,
217,0,217,0,,,,,,,,,,,,,,,,,,,,,,,,,,,,,,,,,,1662.0277874001767,,1660.3140613001306,1660.3140613001306,1660.3140613001306,1660.3140613001306,,old_sceneIn_8.png,218,5.0,1.7084031999111176,,,002,00,2024-08-01_14h16.57.959,Surprise recog test,2023.1.3,59.94980999980885,
218,0,218,0,,,,,,,,,,,,,,,,,,,,,,,,,,,,,,,,,,1665.0693368001375,1666.0862041001674,1663.046181900194,1663.046181900194,1663.046181900194,1663.046181900194,,new_sceneOut_10.png,219,4.0,2.018380800029263,,,002,00,2024-08-01_14h16.57.959,Surprise recog test,2023.1.3,59.94980999980885,
219,0,219,0,,,,,,,,,,,,,,,,,,,,,,,,,,,,,,,,,,1667.480215900112,1668.4938686001115,1666.0862041001674,1666.0862041001674,1666.0862041001674,1666.0862041001674,,new_sceneOut_11.png,220,4.0,1.3886820001062006,,,002,00,2024-08-01_14h16.57.959,Surprise recog test,2023.1.3,59.94980999980885,
220,0,220,0,,,,,,,,,,,,,,,,,,,,,,,,,,,,,,,,,,1671.091103099985,1672.1160575000104,1668.4938686001115,1668.4938686001115,1668.4938686001115,1668.4938686001115,,old_stationery_22.png,221,3.0,2.598021199926734,,,002,00,2024-08-01_14h16.57.959,Surprise recog test,2023.1.3,59.94980999980885,
221,0,221,0,,,,,,,,,,,,,,,,,,,,,,,,,,,,,,,,,,1674.2162060001865,1675.237749800086,1672.1160575000104,1672.1160575000104,1672.1160575000104,1672.1160575000104,,old_sceneIn_22.png,222,5.0,2.099699300015345,,,002,00,2024-08-01_14h16.57.959,Surprise recog test,2023.1.3,59.94980999980885,
222,0,222,0,,,,,,,,,,,,,,,,,,,,,,,,,,,,,,,,,,1677.1921054001432,,1675.237749800086,1675.237749800086,1675.237749800086,1675.237749800086,,old_sceneOut_46.png,223,5.0,1.955802199896425,,,002,00,2024-08-01_14h16.57.959,Surprise recog test,2023.1.3,59.94980999980885,
223,0,223,0,,,,,,,,,,,,,,,,,,,,,,,,,,,,,,,,,,1680.4074113001116,1681.4149918002076,1678.2232105000876,1678.2232105000876,1678.2232105000876,1678.2232105000876,,new_stationery_17.png,224,5.0,2.1795851001515985,,,002,00,2024-08-01_14h16.57.959,Surprise recog test,2023.1.3,59.94980999980885,
224,0,224,0,,,,,,,,,,,,,,,,,,,,,,,,,,,,,,,,,,1682.6161682000384,1683.6481809001416,1681.4149918002076,1681.4149918002076,1681.4149918002076,1681.4149918002076,,old_sceneOut_26.png,225,5.0,1.196526899933815,,,002,00,2024-08-01_14h16.57.959,Surprise recog test,2023.1.3,59.94980999980885,
225,0,225,0,,,,,,,,,,,,,,,,,,,,,,,,,,,,,,,,,,1685.1901130999904,1686.2070711001288,1683.6481809001416,1683.6481809001416,1683.6481809001416,1683.6481809001416,,new_fruit_13.png,226,2.0,1.543822000036016,,,002,00,2024-08-01_14h16.57.959,Surprise recog test,2023.1.3,59.94980999980885,
226,0,226,0,,,,,,,,,,,,,,,,,,,,,,,,,,,,,,,,,,1688.354438800132,1689.3865710000973,1686.2070711001288,1686.2070711001288,1686.2070711001288,1686.2070711001288,,new_sceneIn_47.png,227,5.0,2.1473052999936044,,,002,00,2024-08-01_14h16.57.959,Surprise recog test,2023.1.3,59.94980999980885,
227,0,227,0,,,,,,,,,,,,,,,,,,,,,,,,,,,,,,,,,,1691.3911786000244,1692.4151697000489,1689.3865710000973,1689.3865710000973,1689.3865710000973,1689.3865710000973,,old_fruit_34.png,228,3.0,2.0078983001876622,,,002,00,2024-08-01_14h16.57.959,Surprise recog test,2023.1.3,59.94980999980885,
228,0,228,0,,,,,,,,,,,,,,,,,,,,,,,,,,,,,,,,,,1693.8793462000322,1694.893912800122,1692.4151697000489,1692.4151697000489,1692.4151697000489,1692.4151697000489,,old_fruit_32.png,229,3.0,1.4645145998802036,,,002,00,2024-08-01_14h16.57.959,Surprise recog test,2023.1.3,59.94980999980885,
229,0,229,0,,,,,,,,,,,,,,,,,,,,,,,,,,,,,,,,,,1697.6994444001466,1698.7134336000308,1694.893912800122,1694.893912800122,1694.893912800122,1694.893912800122,,old_sceneOut_10.png,230,4.0,2.8006512001156807,,,002,00,2024-08-01_14h16.57.959,Surprise recog test,2023.1.3,59.94980999980885,
230,0,230,0,,,,,,,,,,,,,,,,,,,,,,,,,,,,,,,,,,1700.6062460001558,1701.6285350001417,1698.7134336000308,1698.7134336000308,1698.7134336000308,1698.7134336000308,,new_sceneOut_14.png,231,4.0,1.8875514999963343,,,002,00,2024-08-01_14h16.57.959,Surprise recog test,2023.1.3,59.94980999980885,
231,0,231,0,,,,,,,,,,,,,,,,,,,,,,,,,,,,,,,,,,1702.6081610000692,1703.6257711001672,1701.6285350001417,1701.6285350001417,1701.6285350001417,1701.6285350001417,,new_sceneOut_26.png,232,4.0,0.9808779999148101,,,002,00,2024-08-01_14h16.57.959,Surprise recog test,2023.1.3,59.94980999980885,
232,0,232,0,,,,,,,,,,,,,,,,,,,,,,,,,,,,,,,,,,1706.2624172000214,1707.2846417999826,1703.6257711001672,1703.6257711001672,1703.6257711001672,1703.6257711001672,,new_stationery_25.png,233,4.0,2.6358905001543462,,,002,00,2024-08-01_14h16.57.959,Surprise recog test,2023.1.3,59.94980999980885,
233,0,233,0,,,,,,,,,,,,,,,,,,,,,,,,,,,,,,,,,,1708.9789996000472,1709.993923800066,1707.2846417999826,1707.2846417999826,1707.2846417999826,1707.2846417999826,,new_stationery_30.png,234,2.0,1.697304599918425,,,002,00,2024-08-01_14h16.57.959,Surprise recog test,2023.1.3,59.94980999980885,
234,0,234,0,,,,,,,,,,,,,,,,,,,,,,,,,,,,,,,,,,1711.3754742001183,1712.3922206000425,1709.993923800066,1709.993923800066,1709.993923800066,1709.993923800066,,old_sceneOut_48.png,235,5.0,1.376345399999991,,,002,00,2024-08-01_14h16.57.959,Surprise recog test,2023.1.3,59.94980999980885,
235,0,235,0,,,,,,,,,,,,,,,,,,,,,,,,,,,,,,,,,,1713.7383598000742,,1712.3922206000425,1712.3922206000425,1712.3922206000425,1712.3922206000425,,old_sceneOut_19.png,236,5.0,1.3382296999916434,,,002,00,2024-08-01_14h16.57.959,Surprise recog test,2023.1.3,59.94980999980885,
236,0,236,0,,,,,,,,,,,,,,,,,,,,,,,,,,,,,,,,,,1715.432063100161,1716.4517163001,1714.7726587001234,1714.7726587001234,1714.7726587001234,1714.7726587001234,,old_sceneIn_49.png,237,5.0,0.6615903000347316,,,002,00,2024-08-01_14h16.57.959,Surprise recog test,2023.1.3,59.94980999980885,
237,0,237,0,,,,,,,,,,,,,,,,,,,,,,,,,,,,,,,,,,1718.1676215000916,1719.194795700023,1716.4517163001,1716.4517163001,1716.4517163001,1716.4517163001,,new_fruit_38.png,238,1.0,1.7129851998761296,,,002,00,2024-08-01_14h16.57.959,Surprise recog test,2023.1.3,59.94980999980885,
238,0,238,0,,,,,,,,,,,,,,,,,,,,,,,,,,,,,,,,,,1720.8962801001035,1721.9292187001556,1719.194795700023,1719.194795700023,1719.194795700023,1719.194795700023,,old_stationery_41.png,239,3.0,1.7039405999239534,,,002,00,2024-08-01_14h16.57.959,Surprise recog test,2023.1.3,59.94980999980885,
239,0,239,0,,,,,,,,,,,,,,,,,,,,,,,,,,,,,,,,,,1723.0824443001766,1724.0978391000535,1721.9292187001556,1721.9292187001556,1721.9292187001556,1721.9292187001556,,old_sceneIn_31.png,240,5.0,1.1519144999329,,,002,00,2024-08-01_14h16.57.959,Surprise recog test,2023.1.3,59.94980999980885,
240,0,240,0,,,,,,,,,,,,,,,,,,,,,,,,,,,,,,,,,,1725.4525318001397,1726.4691796000116,1724.0978391000535,1724.0978391000535,1724.0978391000535,1724.0978391000535,,old_fruit_48.png,241,2.0,1.351349800126627,,,002,00,2024-08-01_14h16.57.959,Surprise recog test,2023.1.3,59.94980999980885,
241,0,241,0,,,,,,,,,,,,,,,,,,,,,,,,,,,,,,,,,,1728.1487712000962,1729.1661768001504,1726.4691796000116,1726.4691796000116,1726.4691796000116,1726.4691796000116,,old_fruit_18.png,242,2.0,1.6751029000151902,,,002,00,2024-08-01_14h16.57.959,Surprise recog test,2023.1.3,59.94980999980885,
242,0,242,0,,,,,,,,,,,,,,,,,,,,,,,,,,,,,,,,,,1730.4535165000707,1731.4885272001848,1729.1661768001504,1729.1661768001504,1729.1661768001504,1729.1661768001504,,new_stationery_5.png,243,3.0,1.2896783000323921,,,002,00,2024-08-01_14h16.57.959,Surprise recog test,2023.1.3,59.94980999980885,
243,0,243,0,,,,,,,,,,,,,,,,,,,,,,,,,,,,,,,,,,1733.5355495000258,1734.544482700061,1731.4885272001848,1731.4885272001848,1731.4885272001848,1731.4885272001848,,old_sceneIn_23.png,244,5.0,2.0509347999468446,,,002,00,2024-08-01_14h16.57.959,Surprise recog test,2023.1.3,59.94980999980885,
244,0,244,0,,,,,,,,,,,,,,,,,,,,,,,,,,,,,,,,,,1735.72120800009,1736.7324290000834,1734.544482700061,1734.544482700061,1734.544482700061,1734.544482700061,,new_sceneIn_26.png,245,5.0,1.173679200001061,,,002,00,2024-08-01_14h16.57.959,Surprise recog test,2023.1.3,59.94980999980885,
245,0,245,0,,,,,,,,,,,,,,,,,,,,,,,,,,,,,,,,,,1737.7125224000774,1738.729585000081,1736.7324290000834,1736.7324290000834,1736.7324290000834,1736.7324290000834,,old_sceneOut_30.png,246,5.0,0.9775064999703318,,,002,00,2024-08-01_14h16.57.959,Surprise recog test,2023.1.3,59.94980999980885,
246,0,246,0,,,,,,,,,,,,,,,,,,,,,,,,,,,,,,,,,,1740.324567800155,1741.3400963000022,1738.729585000081,1738.729585000081,1738.729585000081,1738.729585000081,,old_stationery_39.png,247,3.0,1.5902916002087295,,,002,00,2024-08-01_14h16.57.959,Surprise recog test,2023.1.3,59.94980999980885,
247,0,247,0,,,,,,,,,,,,,,,,,,,,,,,,,,,,,,,,,,1742.855125500122,1743.8789405000862,1741.3400963000022,1741.3400963000022,1741.3400963000022,1741.3400963000022,,new_sceneIn_46.png,248,5.0,1.5157194000203162,,,002,00,2024-08-01_14h16.57.959,Surprise recog test,2023.1.3,59.94980999980885,
248,0,248,0,,,,,,,,,,,,,,,,,,,,,,,,,,,,,,,,,,1745.8247838001698,1746.8357437001541,1743.8789405000862,1743.8789405000862,1743.8789405000862,1743.8789405000862,,new_stationery_18.png,249,4.0,1.9445905999746174,,,002,00,2024-08-01_14h16.57.959,Surprise recog test,2023.1.3,59.94980999980885,
249,0,249,0,,,,,,,,,,,,,,,,,,,,,,,,,,,,,,,,,,1748.4722526001278,1749.5027405000292,1746.8357437001541,1746.8357437001541,1746.8357437001541,1746.8357437001541,,new_sceneOut_36.png,250,5.0,1.6319683999754488,,,002,00,2024-08-01_14h16.57.959,Surprise recog test,2023.1.3,59.94980999980885,
250,0,250,0,,,,,,,,,,,,,,,,,,,,,,,,,,,,,,,,,,1750.2859005001374,,1749.5027405000292,1749.5027405000292,1749.5027405000292,1749.5027405000292,,new_sceneOut_8.png,251,5.0,0.784938900033012,,,002,00,2024-08-01_14h16.57.959,Surprise recog test,2023.1.3,59.94980999980885,
251,0,251,0,,,,,,,,,,,,,,,,,,,,,,,,,,,,,,,,,,1752.1885456000455,1753.2196788000874,1751.3065282001626,1751.3065282001626,1751.3065282001626,1751.3065282001626,,old_sceneIn_19.png,252,5.0,0.873300600098446,,,002,00,2024-08-01_14h16.57.959,Surprise recog test,2023.1.3,59.94980999980885,
252,0,252,0,,,,,,,,,,,,,,,,,,,,,,,,,,,,,,,,,,1754.813324399991,1755.8308918999974,1753.2196788000874,1753.2196788000874,1753.2196788000874,1753.2196788000874,,new_stationery_13.png,253,5.0,1.5939164001028985,,,002,00,2024-08-01_14h16.57.959,Surprise recog test,2023.1.3,59.94980999980885,
253,0,253,0,,,,,,,,,,,,,,,,,,,,,,,,,,,,,,,,,,1757.405937800184,1758.4252752000466,1755.8308918999974,1755.8308918999974,1755.8308918999974,1755.8308918999974,,new_fruit_26.png,254,2.0,1.573624299839139,,,002,00,2024-08-01_14h16.57.959,Surprise recog test,2023.1.3,59.94980999980885,
254,0,254,0,,,,,,,,,,,,,,,,,,,,,,,,,,,,,,,,,,1759.7986962001305,1760.8158090000506,1758.4252752000466,1758.4252752000466,1758.4252752000466,1758.4252752000466,,old_sceneIn_20.png,255,5.0,1.3756035999394953,,,002,00,2024-08-01_14h16.57.959,Surprise recog test,2023.1.3,59.94980999980885,
255,0,255,0,,,,,,,,,,,,,,,,,,,,,,,,,,,,,,,,,,1761.5370364000555,1762.5583663000725,1760.8158090000506,1760.8158090000506,1760.8158090000506,1760.8158090000506,,new_sceneOut_34.png,256,5.0,0.717404899885878,,,002,00,2024-08-01_14h16.57.959,Surprise recog test,2023.1.3,59.94980999980885,
256,0,256,0,,,,,,,,,,,,,,,,,,,,,,,,,,,,,,,,,,1764.5107506001368,1765.5256110001355,1762.5583663000725,1762.5583663000725,1762.5583663000725,1762.5583663000725,,old_stationery_49.png,257,3.0,1.9538274998776615,,,002,00,2024-08-01_14h16.57.959,Surprise recog test,2023.1.3,59.94980999980885,
257,0,257,0,,,,,,,,,,,,,,,,,,,,,,,,,,,,,,,,,,1766.6589917000383,1767.6847420001868,1765.5256110001355,1765.5256110001355,1765.5256110001355,1765.5256110001355,,old_sceneOut_39.png,258,5.0,1.1210672999732196,,,002,00,2024-08-01_14h16.57.959,Surprise recog test,2023.1.3,59.94980999980885,
258,0,258,0,,,,,,,,,,,,,,,,,,,,,,,,,,,,,,,,,,1768.7872852000874,1769.8068832000718,1767.6847420001868,1767.6847420001868,1767.6847420001868,1767.6847420001868,,new_sceneOut_5.png,259,5.0,1.1058177000377327,,,002,00,2024-08-01_14h16.57.959,Surprise recog test,2023.1.3,59.94980999980885,
259,0,259,0,,,,,,,,,,,,,,,,,,,,,,,,,,,,,,,,,,1771.3326560000423,1772.340459300205,1769.8068832000718,1769.8068832000718,1769.8068832000718,1769.8068832000718,,old_sceneOut_1.png,260,5.0,1.5214768999721855,,,002,00,2024-08-01_14h16.57.959,Surprise recog test,2023.1.3,59.94980999980885,
260,0,260,0,,,,,,,,,,,,,,,,,,,,,,,,,,,,,,,,,,1773.863608499989,1774.8824418000877,1772.340459300205,1772.340459300205,1772.340459300205,1772.340459300205,,old_fruit_23.png,261,2.0,1.5189765999093652,,,002,00,2024-08-01_14h16.57.959,Surprise recog test,2023.1.3,59.94980999980885,
261,0,261,0,,,,,,,,,,,,,,,,,,,,,,,,,,,,,,,,,,1776.970900400076,1777.982273900183,1774.8824418000877,1774.8824418000877,1774.8824418000877,1774.8824418000877,,old_stationery_24.png,262,3.0,2.0893528000451624,,,002,00,2024-08-01_14h16.57.959,Surprise recog test,2023.1.3,59.94980999980885,
262,0,262,0,,,,,,,,,,,,,,,,,,,,,,,,,,,,,,,,,,1779.5669749001972,1780.5910275999922,1777.982273900183,1777.982273900183,1777.982273900183,1777.982273900183,,old_sceneOut_5.png,263,5.0,1.5840622000396252,,,002,00,2024-08-01_14h16.57.959,Surprise recog test,2023.1.3,59.94980999980885,
263,0,263,0,,,,,,,,,,,,,,,,,,,,,,,,,,,,,,,,,,1781.9475315001328,1782.9659810999874,1780.5910275999922,1780.5910275999922,1780.5910275999922,1780.5910275999922,,old_sceneOut_6.png,264,5.0,1.3574810000136495,,,002,00,2024-08-01_14h16.57.959,Surprise recog test,2023.1.3,59.94980999980885,
264,0,264,0,,,,,,,,,,,,,,,,,,,,,,,,,,,,,,,,,,1784.2077844000887,1785.2270718000364,1782.9659810999874,1782.9659810999874,1782.9659810999874,1782.9659810999874,,old_fruit_26.png,265,2.0,1.2366759001743048,,,002,00,2024-08-01_14h16.57.959,Surprise recog test,2023.1.3,59.94980999980885,
265,0,265,0,,,,,,,,,,,,,,,,,,,,,,,,,,,,,,,,,,1786.5192198001314,1787.5420975000598,1785.2270718000364,1785.2270718000364,1785.2270718000364,1785.2270718000364,,new_sceneIn_33.png,266,5.0,1.293971800012514,,,002,00,2024-08-01_14h16.57.959,Surprise recog test,2023.1.3,59.94980999980885,
266,0,266,0,,,,,,,,,,,,,,,,,,,,,,,,,,,,,,,,,,1789.730744900182,1790.750717600109,1787.5420975000598,1787.5420975000598,1787.5420975000598,1787.5420975000598,,new_stationery_44.png,267,3.0,2.1846034000627697,,,002,00,2024-08-01_14h16.57.959,Surprise recog test,2023.1.3,59.94980999980885,
267,0,267,0,,,,,,,,,,,,,,,,,,,,,,,,,,,,,,,,,,1792.446951800026,1793.4696675001178,1790.750717600109,1790.750717600109,1790.750717600109,1790.750717600109,,old_fruit_31.png,268,2.0,1.6989368998911232,,,002,00,2024-08-01_14h16.57.959,Surprise recog test,2023.1.3,59.94980999980885,
268,0,268,0,,,,,,,,,,,,,,,,,,,,,,,,,,,,,,,,,,1794.46271230001,1795.489631100092,1793.4696675001178,1793.4696675001178,1793.4696675001178,1793.4696675001178,,old_fruit_45.png,269,3.0,0.9938980001024902,,,002,00,2024-08-01_14h16.57.959,Surprise recog test,2023.1.3,59.94980999980885,
269,0,269,0,,,,,,,,,,,,,,,,,,,,,,,,,,,,,,,,,,1797.4662147001363,1798.4914877000265,1795.489631100092,1795.489631100092,1795.489631100092,1795.489631100092,,old_sceneOut_49.png,270,5.0,1.9784593998920172,,,002,00,2024-08-01_14h16.57.959,Surprise recog test,2023.1.3,59.94980999980885,
270,0,270,0,,,,,,,,,,,,,,,,,,,,,,,,,,,,,,,,,,1799.549587200163,1800.5794136000331,1798.4914877000265,1798.4914877000265,1798.4914877000265,1798.4914877000265,,old_sceneOut_40.png,271,3.0,1.0611250000074506,,,002,00,2024-08-01_14h16.57.959,Surprise recog test,2023.1.3,59.94980999980885,
271,0,271,0,,,,,,,,,,,,,,,,,,,,,,,,,,,,,,,,,,1801.7699816001114,1802.7938737000804,1800.5794136000331,1800.5794136000331,1800.5794136000331,1800.5794136000331,,old_sceneIn_24.png,272,5.0,1.1952567999251187,,,002,00,2024-08-01_14h16.57.959,Surprise recog test,2023.1.3,59.94980999980885,
272,0,272,0,,,,,,,,,,,,,,,,,,,,,,,,,,,,,,,,,,1803.8950408999808,,1802.7938737000804,1802.7938737000804,1802.7938737000804,1802.7938737000804,,old_sceneIn_12.png,273,5.0,1.1026231001596898,,,002,00,2024-08-01_14h16.57.959,Surprise recog test,2023.1.3,59.94980999980885,
273,0,273,0,,,,,,,,,,,,,,,,,,,,,,,,,,,,,,,,,,1807.1501306002028,,1804.928756600013,1804.928756600013,1804.928756600013,1804.928756600013,,old_fruit_4.png,274,3.0,2.2231773000676185,,,002,00,2024-08-01_14h16.57.959,Surprise recog test,2023.1.3,59.94980999980885,
274,0,274,0,,,,,,,,,,,,,,,,,,,,,,,,,,,,,,,,,,1809.588757400168,1810.6225635001902,1808.1822294001468,1808.1822294001468,1808.1822294001468,1808.1822294001468,,new_stationery_32.png,275,4.0,1.4086112999357283,,,002,00,2024-08-01_14h16.57.959,Surprise recog test,2023.1.3,59.94980999980885,
275,0,275,0,,,,,,,,,,,,,,,,,,,,,,,,,,,,,,,,,,1811.804074499989,,1810.6225635001902,1810.6225635001902,1810.6225635001902,1810.6225635001902,,old_sceneIn_46.png,276,5.0,1.181434400146827,,,002,00,2024-08-01_14h16.57.959,Surprise recog test,2023.1.3,59.94980999980885,
276,0,276,0,,,,,,,,,,,,,,,,,,,,,,,,,,,,,,,,,,1813.4624628000893,1814.4817843001802,1812.8348174002022,1812.8348174002022,1812.8348174002022,1812.8348174002022,,new_sceneIn_30.png,277,5.0,0.6268007000908256,,,002,00,2024-08-01_14h16.57.959,Surprise recog test,2023.1.3,59.94980999980885,
277,0,277,0,,,,,,,,,,,,,,,,,,,,,,,,,,,,,,,,,,1816.913355300203,1817.9332225001417,1814.4817843001802,1814.4817843001802,1814.4817843001802,1814.4817843001802,,old_stationery_44.png,278,4.0,2.4313751999288797,,,002,00,2024-08-01_14h16.57.959,Surprise recog test,2023.1.3,59.94980999980885,
278,0,278,0,,,,,,,,,,,,,,,,,,,,,,,,,,,,,,,,,,1819.5989298999775,1820.6130011000205,1817.9332225001417,1817.9332225001417,1817.9332225001417,1817.9332225001417,,new_stationery_48.png,279,4.0,1.6665192998480052,,,002,00,2024-08-01_14h16.57.959,Surprise recog test,2023.1.3,59.94980999980885,
279,0,279,0,,,,,,,,,,,,,,,,,,,,,,,,,,,,,,,,,,1821.834109700052,1822.8454528001603,1820.6130011000205,1820.6130011000205,1820.6130011000205,1820.6130011000205,,new_fruit_25.png,280,3.0,1.2171958000399172,,,002,00,2024-08-01_14h16.57.959,Surprise recog test,2023.1.3,59.94980999980885,
280,0,280,0,,,,,,,,,,,,,,,,,,,,,,,,,,,,,,,,,,1824.0520946001634,1825.0803457000293,1822.8454528001603,1822.8454528001603,1822.8454528001603,1822.8454528001603,,new_sceneOut_3.png,281,3.0,1.202383799944073,,,002,00,2024-08-01_14h16.57.959,Surprise recog test,2023.1.3,59.94980999980885,
281,0,281,0,,,,,,,,,,,,,,,,,,,,,,,,,,,,,,,,,,1827.8502411001828,,1825.0803457000293,1825.0803457000293,1825.0803457000293,1825.0803457000293,,new_stationery_35.png,282,1.0,2.771332599921152,,,002,00,2024-08-01_14h16.57.959,Surprise recog test,2023.1.3,59.94980999980885,
282,0,282,0,,,,,,,,,,,,,,,,,,,,,,,,,,,,,,,,,,1831.8239311000798,1832.8412044001743,1828.8833935000002,1828.8833935000002,1828.8833935000002,1828.8833935000002,,old_sceneOut_31.png,283,3.0,2.942540700081736,,,002,00,2024-08-01_14h16.57.959,Surprise recog test,2023.1.3,59.94980999980885,
283,0,283,0,,,,,,,,,,,,,,,,,,,,,,,,,,,,,,,,,,1834.0139302001335,1835.0306635000743,1832.8412044001743,1832.8412044001743,1832.8412044001743,1832.8412044001743,,new_sceneIn_23.png,284,5.0,1.166062300093472,,,002,00,2024-08-01_14h16.57.959,Surprise recog test,2023.1.3,59.94980999980885,
284,0,284,0,,,,,,,,,,,,,,,,,,,,,,,,,,,,,,,,,,1836.9793073001783,1837.994173000101,1835.0306635000743,1835.0306635000743,1835.0306635000743,1835.0306635000743,,new_sceneIn_34.png,285,5.0,1.9487017001956701,,,002,00,2024-08-01_14h16.57.959,Surprise recog test,2023.1.3,59.94980999980885,
285,0,285,0,,,,,,,,,,,,,,,,,,,,,,,,,,,,,,,,,,1841.8263017002027,,1837.994173000101,1837.994173000101,1837.994173000101,1837.994173000101,,new_fruit_44.png,286,3.0,3.8277984000742435,,,002,00,2024-08-01_14h16.57.959,Surprise recog test,2023.1.3,59.94980999980885,
286,0,286,0,,,,,,,,,,,,,,,,,,,,,,,,,,,,,,,,,,1843.943116400158,1844.9475501000416,1842.8548006000929,1842.8548006000929,1842.8548006000929,1842.8548006000929,,old_stationery_45.png,287,3.0,1.0893206999171525,,,002,00,2024-08-01_14h16.57.959,Surprise recog test,2023.1.3,59.94980999980885,
287,0,287,0,,,,,,,,,,,,,,,,,,,,,,,,,,,,,,,,,,1846.7462770000566,1847.7656259001233,1844.9475501000416,1844.9475501000416,1844.9475501000416,1844.9475501000416,,old_fruit_1.png,288,2.0,1.7921362000051886,,,002,00,2024-08-01_14h16.57.959,Surprise recog test,2023.1.3,59.94980999980885,
288,0,288,0,,,,,,,,,,,,,,,,,,,,,,,,,,,,,,,,,,1850.2462022001855,1851.2611840001773,1847.7656259001233,1847.7656259001233,1847.7656259001233,1847.7656259001233,,old_stationery_20.png,289,3.0,2.4796903000678867,,,002,00,2024-08-01_14h16.57.959,Surprise recog test,2023.1.3,59.94980999980885,
289,0,289,0,,,,,,,,,,,,,,,,,,,,,,,,,,,,,,,,,,1852.4395310999826,1853.4568258000072,1851.2611840001773,1851.2611840001773,1851.2611840001773,1851.2611840001773,,new_sceneIn_8.png,290,5.0,1.178568399976939,,,002,00,2024-08-01_14h16.57.959,Surprise recog test,2023.1.3,59.94980999980885,
290,0,290,0,,,,,,,,,,,,,,,,,,,,,,,,,,,,,,,,,,1854.0874221001286,,1853.4568258000072,1853.4568258000072,1853.4568258000072,1853.4568258000072,,new_sceneIn_6.png,291,5.0,0.6263365000486374,,,002,00,2024-08-01_14h16.57.959,Surprise recog test,2023.1.3,59.94980999980885,
291,0,291,0,,,,,,,,,,,,,,,,,,,,,,,,,,,,,,,,,,1857.1590156001039,1858.1877445999999,1855.1096121000592,1855.1096121000592,1855.1096121000592,1855.1096121000592,,new_fruit_5.png,292,3.0,2.0450351000763476,,,002,00,2024-08-01_14h16.57.959,Surprise recog test,2023.1.3,59.94980999980885,
292,0,292,0,,,,,,,,,,,,,,,,,,,,,,,,,,,,,,,,,,1861.7396576001775,1862.7657600000966,1858.1877445999999,1858.1877445999999,1858.1877445999999,1858.1877445999999,,new_stationery_2.png,293,3.0,3.552218000171706,,,002,00,2024-08-01_14h16.57.959,Surprise recog test,2023.1.3,59.94980999980885,
293,0,293,0,,,,,,,,,,,,,,,,,,,,,,,,,,,,,,,,,,1864.6470087000635,,1862.7657600000966,1862.7657600000966,1862.7657600000966,1862.7657600000966,,old_stationery_23.png,294,4.0,1.8839390000794083,,,002,00,2024-08-01_14h16.57.959,Surprise recog test,2023.1.3,59.94980999980885,
294,0,294,0,,,,,,,,,,,,,,,,,,,,,,,,,,,,,,,,,,1867.0517675001174,1868.0687504999805,1865.6792266000994,1865.6792266000994,1865.6792266000994,1865.6792266000994,,old_sceneIn_16.png,295,5.0,1.3753754999488592,,,002,00,2024-08-01_14h16.57.959,Surprise recog test,2023.1.3,59.94980999980885,
295,0,295,0,,,,,,,,,,,,,,,,,,,,,,,,,,,,,,,,,,1869.6729196000379,1870.692302300129,1868.0687504999805,1868.0687504999805,1868.0687504999805,1868.0687504999805,,new_fruit_20.png,296,4.0,1.6013497000094503,,,002,00,2024-08-01_14h16.57.959,Surprise recog test,2023.1.3,59.94980999980885,
296,0,296,0,,,,,,,,,,,,,,,,,,,,,,,,,,,,,,,,,,1872.0624274001457,1873.0752862000372,1870.692302300129,1870.692302300129,1870.692302300129,1870.692302300129,,new_sceneIn_43.png,297,5.0,1.3699076999910176,,,002,00,2024-08-01_14h16.57.959,Surprise recog test,2023.1.3,59.94980999980885,
297,0,297,0,,,,,,,,,,,,,,,,,,,,,,,,,,,,,,,,,,1875.4681202000938,1876.4905321002007,1873.0752862000372,1873.0752862000372,1873.0752862000372,1873.0752862000372,,new_fruit_50.png,298,3.0,2.3898962000384927,,,002,00,2024-08-01_14h16.57.959,Surprise recog test,2023.1.3,59.94980999980885,
298,0,298,0,,,,,,,,,,,,,,,,,,,,,,,,,,,,,,,,,,1877.777684800094,1878.795527300099,1876.4905321002007,1876.4905321002007,1876.4905321002007,1876.4905321002007,,new_sceneOut_13.png,299,5.0,1.2900630000513047,,,002,00,2024-08-01_14h16.57.959,Surprise recog test,2023.1.3,59.94980999980885,
299,0,299,0,,,,,,,,,,,,,,,,,,,,,,,,,,,,,,,,,,1881.0157934001181,1882.0318756999914,1878.795527300099,1878.795527300099,1878.795527300099,1878.795527300099,,new_stationery_11.png,300,5.0,2.215451299911365,,,002,00,2024-08-01_14h16.57.959,Surprise recog test,2023.1.3,59.94980999980885,
300,0,300,0,,,,,,,,,,,,,,,,,,,,,,,,,,,,,,,,,,1884.3025882001966,1885.3297412001994,1882.0318756999914,1882.0318756999914,1882.0318756999914,1882.0318756999914,,old_fruit_33.png,301,3.0,2.2621492999605834,,,002,00,2024-08-01_14h16.57.959,Surprise recog test,2023.1.3,59.94980999980885,
301,0,301,0,,,,,,,,,,,,,,,,,,,,,,,,,,,,,,,,,,1886.5295977001078,1887.5403039001394,1885.3297412001994,1885.3297412001994,1885.3297412001994,1885.3297412001994,,old_sceneIn_33.png,302,5.0,1.2022092000115663,,,002,00,2024-08-01_14h16.57.959,Surprise recog test,2023.1.3,59.94980999980885,
302,0,302,0,,,,,,,,,,,,,,,,,,,,,,,,,,,,,,,,,,1888.8092300000135,1889.8307023001835,1887.5403039001394,1887.5403039001394,1887.5403039001394,1887.5403039001394,,old_stationery_32.png,303,4.0,1.2682296999264508,,,002,00,2024-08-01_14h16.57.959,Surprise recog test,2023.1.3,59.94980999980885,
303,0,303,0,,,,,,,,,,,,,,,,,,,,,,,,,,,,,,,,,,1892.422065900173,1893.4480191001203,1889.8307023001835,1889.8307023001835,1889.8307023001835,1889.8307023001835,,new_stationery_24.png,304,4.0,2.592220399994403,,,002,00,2024-08-01_14h16.57.959,Surprise recog test,2023.1.3,59.94980999980885,
304,0,304,0,,,,,,,,,,,,,,,,,,,,,,,,,,,,,,,,,,1894.8405357000884,1895.8682895000093,1893.4480191001203,1893.4480191001203,1893.4480191001203,1893.4480191001203,,new_sceneIn_25.png,305,5.0,1.3914439000654966,,,002,00,2024-08-01_14h16.57.959,Surprise recog test,2023.1.3,59.94980999980885,
305,0,305,0,,,,,,,,,,,,,,,,,,,,,,,,,,,,,,,,,,1897.2205594000407,1898.245474900119,1895.8682895000093,1895.8682895000093,1895.8682895000093,1895.8682895000093,,old_sceneOut_32.png,306,5.0,1.3465559999458492,,,002,00,2024-08-01_14h16.57.959,Surprise recog test,2023.1.3,59.94980999980885,
306,0,306,0,,,,,,,,,,,,,,,,,,,,,,,,,,,,,,,,,,1899.685279500205,1900.696555700153,1898.245474900119,1898.245474900119,1898.245474900119,1898.245474900119,,new_fruit_10.png,307,5.0,1.4404386999085546,,,002,00,2024-08-01_14h16.57.959,Surprise recog test,2023.1.3,59.94980999980885,
307,0,307,0,,,,,,,,,,,,,,,,,,,,,,,,,,,,,,,,,,1901.7344245000277,1902.761683900142,1900.696555700153,1900.696555700153,1900.696555700153,1900.696555700153,,old_sceneOut_12.png,308,5.0,1.0333640999160707,,,002,00,2024-08-01_14h16.57.959,Surprise recog test,2023.1.3,59.94980999980885,
308,0,308,0,,,,,,,,,,,,,,,,,,,,,,,,,,,,,,,,,,1904.4441727001686,1905.4647675000597,1902.761683900142,1902.761683900142,1902.761683900142,1902.761683900142,,new_fruit_39.png,309,2.0,1.6839457000605762,,,002,00,2024-08-01_14h16.57.959,Surprise recog test,2023.1.3,59.94980999980885,
309,0,309,0,,,,,,,,,,,,,,,,,,,,,,,,,,,,,,,,,,1907.6119427001104,1908.625484400196,1905.4647675000597,1905.4647675000597,1905.4647675000597,1905.4647675000597,,old_sceneOut_36.png,310,5.0,2.147031100001186,,,002,00,2024-08-01_14h16.57.959,Surprise recog test,2023.1.3,59.94980999980885,
310,0,310,0,,,,,,,,,,,,,,,,,,,,,,,,,,,,,,,,,,1909.6493724000175,1910.6550600000191,1908.625484400196,1908.625484400196,1908.625484400196,1908.625484400196,,old_sceneIn_32.png,311,5.0,1.0248261999804527,,,002,00,2024-08-01_14h16.57.959,Surprise recog test,2023.1.3,59.94980999980885,
311,0,311,0,,,,,,,,,,,,,,,,,,,,,,,,,,,,,,,,,,1912.524563900195,1913.5423986001406,1910.6550600000191,1910.6550600000191,1910.6550600000191,1910.6550600000191,,new_stationery_20.png,312,3.0,1.865134300198406,,,002,00,2024-08-01_14h16.57.959,Surprise recog test,2023.1.3,59.94980999980885,
312,0,312,0,,,,,,,,,,,,,,,,,,,,,,,,,,,,,,,,,,1914.342247000197,1915.3711954001337,1913.5423986001406,1913.5423986001406,1913.5423986001406,1913.5423986001406,,old_stationery_35.png,313,3.0,0.7912961000110954,,,002,00,2024-08-01_14h16.57.959,Surprise recog test,2023.1.3,59.94980999980885,
313,0,313,0,,,,,,,,,,,,,,,,,,,,,,,,,,,,,,,,,,1916.7022244001273,1917.7281698000152,1915.3711954001337,1915.3711954001337,1915.3711954001337,1915.3711954001337,,new_fruit_23.png,314,3.0,1.3327712998725474,,,002,00,2024-08-01_14h16.57.959,Surprise recog test,2023.1.3,59.94980999980885,
314,0,314,0,,,,,,,,,,,,,,,,,,,,,,,,,,,,,,,,,,1919.355518600205,1920.3641088001896,1917.7281698000152,1917.7281698000152,1917.7281698000152,1917.7281698000152,,new_sceneIn_13.png,315,5.0,1.6290537999011576,,,002,00,2024-08-01_14h16.57.959,Surprise recog test,2023.1.3,59.94980999980885,
315,0,315,0,,,,,,,,,,,,,,,,,,,,,,,,,,,,,,,,,,1921.4059212000575,1922.4156504001003,1920.3641088001896,1920.3641088001896,1920.3641088001896,1920.3641088001896,,old_sceneOut_38.png,316,5.0,1.034427700098604,,,002,00,2024-08-01_14h16.57.959,Surprise recog test,2023.1.3,59.94980999980885,
316,0,316,0,,,,,,,,,,,,,,,,,,,,,,,,,,,,,,,,,,1923.2507164001,1924.2680290001445,1922.4156504001003,1922.4156504001003,1922.4156504001003,1922.4156504001003,,old_sceneOut_35.png,317,4.0,0.8307660000864416,,,002,00,2024-08-01_14h16.57.959,Surprise recog test,2023.1.3,59.94980999980885,
317,0,317,0,,,,,,,,,,,,,,,,,,,,,,,,,,,,,,,,,,1925.7396172001027,1926.761649500113,1924.2680290001445,1924.2680290001445,1924.2680290001445,1924.2680290001445,,new_sceneIn_39.png,318,5.0,1.4668036999646574,,,002,00,2024-08-01_14h16.57.959,Surprise recog test,2023.1.3,59.94980999980885,
318,0,318,0,,,,,,,,,,,,,,,,,,,,,,,,,,,,,,,,,,1929.3192658000626,1930.3350804001093,1926.761649500113,1926.761649500113,1926.761649500113,1926.761649500113,,old_fruit_39.png,319,2.0,2.555615199962631,,,002,00,2024-08-01_14h16.57.959,Surprise recog test,2023.1.3,59.94980999980885,
319,0,319,0,,,,,,,,,,,,,,,,,,,,,,,,,,,,,,,,,,1932.9690753000323,,1930.3350804001093,1930.3350804001093,1930.3350804001093,1930.3350804001093,,new_stationery_41.png,320,4.0,2.630362099967897,,,002,00,2024-08-01_14h16.57.959,Surprise recog test,2023.1.3,59.94980999980885,
320,0,320,0,,,,,,,,,,,,,,,,,,,,,,,,,,,,,,,,,,1935.6032539000735,1936.6199496001936,1933.9914731001481,1933.9914731001481,1933.9914731001481,1933.9914731001481,,old_stationery_26.png,321,3.0,1.6055513001047075,,,002,00,2024-08-01_14h16.57.959,Surprise recog test,2023.1.3,59.94980999980885,
321,0,321,0,,,,,,,,,,,,,,,,,,,,,,,,,,,,,,,,,,1938.0303089001682,1939.0587553000078,1936.6199496001936,1936.6199496001936,1936.6199496001936,1936.6199496001936,,old_stationery_30.png,322,3.0,1.4123662000056356,,,002,00,2024-08-01_14h16.57.959,Surprise recog test,2023.1.3,59.94980999980885,
322,0,322,0,,,,,,,,,,,,,,,,,,,,,,,,,,,,,,,,,,1940.469003500184,1941.4926807000302,1939.0587553000078,1939.0587553000078,1939.0587553000078,1939.0587553000078,,new_sceneOut_27.png,323,5.0,1.4118860999587923,,,002,00,2024-08-01_14h16.57.959,Surprise recog test,2023.1.3,59.94980999980885,
323,0,323,0,,,,,,,,,,,,,,,,,,,,,,,,,,,,,,,,,,1942.7026423001662,1943.7308750001248,1941.4926807000302,1941.4926807000302,1941.4926807000302,1941.4926807000302,,new_sceneIn_44.png,324,5.0,1.2104355001356453,,,002,00,2024-08-01_14h16.57.959,Surprise recog test,2023.1.3,59.94980999980885,
324,0,324,0,,,,,,,,,,,,,,,,,,,,,,,,,,,,,,,,,,1945.295643700054,1946.306320300093,1943.7308750001248,1943.7308750001248,1943.7308750001248,1943.7308750001248,,new_sceneOut_43.png,325,5.0,1.5682814000174403,,,002,00,2024-08-01_14h16.57.959,Surprise recog test,2023.1.3,59.94980999980885,
325,0,325,0,,,,,,,,,,,,,,,,,,,,,,,,,,,,,,,,,,1947.199530800106,,1946.306320300093,1946.306320300093,1946.306320300093,1946.306320300093,,new_sceneIn_2.png,326,5.0,0.8928295001387596,,,002,00,2024-08-01_14h16.57.959,Surprise recog test,2023.1.3,59.94980999980885,
326,0,326,0,,,,,,,,,,,,,,,,,,,,,,,,,,,,,,,,,,1949.9312436999753,1950.950132300146,1948.2317031000275,1948.2317031000275,1948.2317031000275,1948.2317031000275,,new_fruit_9.png,327,3.0,1.7010236999485642,,,002,00,2024-08-01_14h16.57.959,Surprise recog test,2023.1.3,59.94980999980885,
327,0,327,0,,,,,,,,,,,,,,,,,,,,,,,,,,,,,,,,,,1952.0885400001425,1953.103803400183,1950.950132300146,1950.950132300146,1950.950132300146,1950.950132300146,,new_sceneIn_27.png,328,5.0,1.140307900030166,,,002,00,2024-08-01_14h16.57.959,Surprise recog test,2023.1.3,59.94980999980885,
328,0,328,0,,,,,,,,,,,,,,,,,,,,,,,,,,,,,,,,,,1954.5645517001394,1955.5865919000935,1953.103803400183,1953.103803400183,1953.103803400183,1953.103803400183,,new_stationery_28.png,329,2.0,1.4544499998446554,,,002,00,2024-08-01_14h16.57.959,Surprise recog test,2023.1.3,59.94980999980885,
329,0,329,0,,,,,,,,,,,,,,,,,,,,,,,,,,,,,,,,,,1956.9417044001166,1957.9736623000354,1955.5865919000935,1955.5865919000935,1955.5865919000935,1955.5865919000935,,new_sceneOut_16.png,330,5.0,1.3567127999849617,,,002,00,2024-08-01_14h16.57.959,Surprise recog test,2023.1.3,59.94980999980885,
330,0,330,0,,,,,,,,,,,,,,,,,,,,,,,,,,,,,,,,,,1958.9158993000165,1959.9306322999764,1957.9736623000354,1957.9736623000354,1957.9736623000354,1957.9736623000354,,new_fruit_8.png,331,2.0,0.9453053998295218,,,002,00,2024-08-01_14h16.57.959,Surprise recog test,2023.1.3,59.94980999980885,
331,0,331,0,,,,,,,,,,,,,,,,,,,,,,,,,,,,,,,,,,1962.563325199997,1963.5981536000036,1959.9306322999764,1959.9306322999764,1959.9306322999764,1959.9306322999764,,old_stationery_12.png,332,4.0,2.628740099957213,,,002,00,2024-08-01_14h16.57.959,Surprise recog test,2023.1.3,59.94980999980885,
332,0,332,0,,,,,,,,,,,,,,,,,,,,,,,,,,,,,,,,,,1964.7573584001511,1965.7810209000017,1963.5981536000036,1963.5981536000036,1963.5981536000036,1963.5981536000036,,old_sceneIn_36.png,333,5.0,1.15876100002788,,,002,00,2024-08-01_14h16.57.959,Surprise recog test,2023.1.3,59.94980999980885,
333,0,333,0,,,,,,,,,,,,,,,,,,,,,,,,,,,,,,,,,,1967.5537605001591,1968.5761268001515,1965.7810209000017,1965.7810209000017,1965.7810209000017,1965.7810209000017,,old_fruit_50.png,334,2.0,1.7743456999305636,,,002,00,2024-08-01_14h16.57.959,Surprise recog test,2023.1.3,59.94980999980885,
334,0,334,0,,,,,,,,,,,,,,,,,,,,,,,,,,,,,,,,,,1970.2193013001233,1971.2514470000751,1968.5761268001515,1968.5761268001515,1968.5761268001515,1968.5761268001515,,old_stationery_50.png,335,2.0,1.6420622998848557,,,002,00,2024-08-01_14h16.57.959,Surprise recog test,2023.1.3,59.94980999980885,
335,0,335,0,,,,,,,,,,,,,,,,,,,,,,,,,,,,,,,,,,1973.066908000037,1974.086078000022,1971.2514470000751,1971.2514470000751,1971.2514470000751,1971.2514470000751,,new_fruit_47.png,336,4.0,1.8134888000786304,,,002,00,2024-08-01_14h16.57.959,Surprise recog test,2023.1.3,59.94980999980885,
336,0,336,0,,,,,,,,,,,,,,,,,,,,,,,,,,,,,,,,,,1975.9457245999947,1976.9732972001657,1974.086078000022,1974.086078000022,1974.086078000022,1974.086078000022,,old_sceneOut_7.png,337,5.0,1.8613034998998046,,,002,00,2024-08-01_14h16.57.959,Surprise recog test,2023.1.3,59.94980999980885,
337,0,337,0,,,,,,,,,,,,,,,,,,,,,,,,,,,,,,,,,,1978.588196700206,1979.6016594001558,1976.9732972001657,1976.9732972001657,1976.9732972001657,1976.9732972001657,,old_fruit_43.png,338,2.0,1.6168527000118047,,,002,00,2024-08-01_14h16.57.959,Surprise recog test,2023.1.3,59.94980999980885,
338,0,338,0,,,,,,,,,,,,,,,,,,,,,,,,,,,,,,,,,,1980.8128071001265,1981.8426529001445,1979.6016594001558,1979.6016594001558,1979.6016594001558,1979.6016594001558,,old_sceneOut_44.png,339,5.0,1.208975400077179,,,002,00,2024-08-01_14h16.57.959,Surprise recog test,2023.1.3,59.94980999980885,
339,0,339,0,,,,,,,,,,,,,,,,,,,,,,,,,,,,,,,,,,1983.015907100169,1984.0465182000771,1981.8426529001445,1981.8426529001445,1981.8426529001445,1981.8426529001445,,old_sceneIn_21.png,340,5.0,1.1743725000414997,,,002,00,2024-08-01_14h16.57.959,Surprise recog test,2023.1.3,59.94980999980885,
340,0,340,0,,,,,,,,,,,,,,,,,,,,,,,,,,,,,,,,,,1985.9775863001123,1986.9990491000935,1984.0465182000771,1984.0465182000771,1984.0465182000771,1984.0465182000771,,new_fruit_11.png,341,3.0,1.9307740000076592,,,002,00,2024-08-01_14h16.57.959,Surprise recog test,2023.1.3,59.94980999980885,
341,0,341,0,,,,,,,,,,,,,,,,,,,,,,,,,,,,,,,,,,1988.7470861000475,1989.7552980000619,1986.9990491000935,1986.9990491000935,1986.9990491000935,1986.9990491000935,,old_sceneOut_22.png,342,4.0,1.7490697999019176,,,002,00,2024-08-01_14h16.57.959,Surprise recog test,2023.1.3,59.94980999980885,
342,0,342,0,,,,,,,,,,,,,,,,,,,,,,,,,,,,,,,,,,1991.345471400069,1992.364115400007,1989.7552980000619,1989.7552980000619,1989.7552980000619,1989.7552980000619,,old_stationery_4.png,343,4.0,1.585567600093782,,,002,00,2024-08-01_14h16.57.959,Surprise recog test,2023.1.3,59.94980999980885,
343,0,343,0,,,,,,,,,,,,,,,,,,,,,,,,,,,,,,,,,,1993.568039600039,1994.5873866002075,1992.364115400007,1992.364115400007,1992.364115400007,1992.364115400007,,new_sceneIn_21.png,344,5.0,1.2019564001820982,,,002,00,2024-08-01_14h16.57.959,Surprise recog test,2023.1.3,59.94980999980885,
344,0,344,0,,,,,,,,,,,,,,,,,,,,,,,,,,,,,,,,,,1996.0933980001137,1997.122124500107,1994.5873866002075,1994.5873866002075,1994.5873866002075,1994.5873866002075,,new_fruit_35.png,345,2.0,1.5082139000296593,,,002,00,2024-08-01_14h16.57.959,Surprise recog test,2023.1.3,59.94980999980885,
345,0,345,0,,,,,,,,,,,,,,,,,,,,,,,,,,,,,,,,,,2000.480188400019,2001.5106436000206,1997.122124500107,1997.122124500107,1997.122124500107,1997.122124500107,,new_sceneOut_46.png,346,3.0,3.359866099897772,,,002,00,2024-08-01_14h16.57.959,Surprise recog test,2023.1.3,59.94980999980885,
346,0,346,0,,,,,,,,,,,,,,,,,,,,,,,,,,,,,,,,,,2003.4405306000262,2004.4610971000511,2001.5106436000206,2001.5106436000206,2001.5106436000206,2001.5106436000206,,new_sceneOut_47.png,347,5.0,1.9324964999686927,,,002,00,2024-08-01_14h16.57.959,Surprise recog test,2023.1.3,59.94980999980885,
