trial_loop.thisRepN,trial_loop.thisTrialN,trial_loop.thisN,trial_loop.thisIndex,VAS_slider.started,VAS_text.started,VAS_notstressed_text.started,VAS_stressed_text.started,continue_input.started,continue_text.started,label0.started,label10.started,label20.started,label30.started,label40.started,label50.started,label60.started,label70.started,label80.started,label90.started,label100.started,VAS_slider.response,VAS_slider.rt,VAS_slider.history,Answer_VAS,continue_input.keys,instruction_text.started,continue_text_2.started,continue_input_2.started,continue_input_2.keys,continue_input_2.rt,continue_input_2.duration,example_text.started,example_slider_2.started,example_image.started,example_slider_2.response,example_slider_2.rt,fixcross.started,fixcross.stopped,front_square.started,stim_images.started,trial_inst_images.started,slider_images.started,thisImg,trial_count,slider_images.response,slider_images.rt,slider_images.stopped,outro.started,participant,condition,date,expName,psychopyVersion,frameRate,
,,,,156.72207839996554,156.72207839996554,156.72207839996554,156.72207839996554,156.72207839996554,156.72207839996554,156.72207839996554,156.72207839996554,156.72207839996554,156.72207839996554,156.72207839996554,156.72207839996554,156.72207839996554,156.72207839996554,156.72207839996554,156.72207839996554,156.72207839996554,3.9944444444444445,11.274918199982494,"[(3.9944444444444445, 11.274918199982494)]",3.9944444444444445,None,,,,,,,,,,,,,,,,,,,,,,,,003,0,2024-07-26_18h05.59.347,Surprise recog test,2023.1.3,59.95520149526926,
,,,,,,,,,,,,,,,,,,,,,,,,,,168.0619143000804,168.0619143000804,168.0619143000804,space,24.837365899933502,None,,,,,,,,,,,,,,,,,,003,0,2024-07-26_18h05.59.347,Surprise recog test,2023.1.3,59.95520149526926,
0,0,0,0,,,,,,,,,,,,,,,,,,,,,,,,,,,,,193.03132770000957,193.03132770000957,193.03132770000957,5.0,26.314505100017413,223.44846149999648,224.46972739999183,220.3052104001399,220.3052104001399,220.3052104001399,220.3052104001399,old_fruit_33.png,1,3.0,3.1500083999708295,,,003,0,2024-07-26_18h05.59.347,Surprise recog test,2023.1.3,59.95520149526926,
1,0,1,0,,,,,,,,,,,,,,,,,,,,,,,,,,,,,,,,,,227.31906170002185,228.33622350008227,224.46972739999183,224.46972739999183,224.46972739999183,224.46972739999183,new_sceneOut_7.png,2,3.0,2.848677000030875,,,003,0,2024-07-26_18h05.59.347,Surprise recog test,2023.1.3,59.95520149526926,
2,0,2,0,,,,,,,,,,,,,,,,,,,,,,,,,,,,,,,,,,233.33899349998683,,228.33622350008227,228.33622350008227,228.33622350008227,228.33622350008227,new_stationery_21.png,3,None,None,233.31414819997735,,003,0,2024-07-26_18h05.59.347,Surprise recog test,2023.1.3,59.95520149526926,
3,0,3,0,,,,,,,,,,,,,,,,,,,,,,,,,,,,,,,,,,236.15534250019118,237.16613709996454,234.36362780001946,234.36362780001946,234.36362780001946,234.36362780001946,new_sceneOut_37.png,4,4.0,1.791900600073859,,,003,0,2024-07-26_18h05.59.347,Surprise recog test,2023.1.3,59.95520149526926,
4,0,4,0,,,,,,,,,,,,,,,,,,,,,,,,,,,,,,,,,,240.46303220000118,241.47126390016638,237.16613709996454,237.16613709996454,237.16613709996454,237.16613709996454,new_sceneIn_31.png,5,3.0,3.2905892999842763,,,003,0,2024-07-26_18h05.59.347,Surprise recog test,2023.1.3,59.95520149526926,
5,0,5,0,,,,,,,,,,,,,,,,,,,,,,,,,,,,,,,,,,243.1087541000452,244.14008780010045,241.47126390016638,241.47126390016638,241.47126390016638,241.47126390016638,new_fruit_49.png,6,3.0,1.632287299958989,,,003,0,2024-07-26_18h05.59.347,Surprise recog test,2023.1.3,59.95520149526926,
6,0,6,0,,,,,,,,,,,,,,,,,,,,,,,,,,,,,,,,,,246.39279350009747,247.41239770012908,244.14008780010045,244.14008780010045,244.14008780010045,244.14008780010045,new_fruit_3.png,7,3.0,2.2562939999625087,,,003,0,2024-07-26_18h05.59.347,Surprise recog test,2023.1.3,59.95520149526926,
7,0,7,0,,,,,,,,,,,,,,,,,,,,,,,,,,,,,,,,,,249.09735830011778,250.12574860011227,247.41239770012908,247.41239770012908,247.41239770012908,247.41239770012908,new_sceneOut_21.png,8,3.0,1.681079899892211,,,003,0,2024-07-26_18h05.59.347,Surprise recog test,2023.1.3,59.95520149526926,
8,0,8,0,,,,,,,,,,,,,,,,,,,,,,,,,,,,,,,,,,252.41184319998138,,250.12574860011227,250.12574860011227,250.12574860011227,250.12574860011227,old_fruit_26.png,9,2.0,2.286337200086564,,,003,0,2024-07-26_18h05.59.347,Surprise recog test,2023.1.3,59.95520149526926,
9,0,9,0,,,,,,,,,,,,,,,,,,,,,,,,,,,,,,,,,,254.99754640017636,,253.43643340002745,253.43643340002745,253.43643340002745,253.43643340002745,old_fruit_25.png,10,2.0,1.5564339999109507,,,003,0,2024-07-26_18h05.59.347,Surprise recog test,2023.1.3,59.95520149526926,
10,0,10,0,,,,,,,,,,,,,,,,,,,,,,,,,,,,,,,,,,258.0193356999662,259.04962330008857,256.03192810015753,256.03192810015753,256.03192810015753,256.03192810015753,new_fruit_31.png,11,2.0,1.9919720001053065,,,003,0,2024-07-26_18h05.59.347,Surprise recog test,2023.1.3,59.95520149526926,
11,0,11,0,,,,,,,,,,,,,,,,,,,,,,,,,,,,,,,,,,261.0855327001773,,259.04962330008857,259.04962330008857,259.04962330008857,259.04962330008857,old_sceneIn_47.png,12,2.0,2.0366712000686675,,,003,0,2024-07-26_18h05.59.347,Surprise recog test,2023.1.3,59.95520149526926,
12,0,12,0,,,,,,,,,,,,,,,,,,,,,,,,,,,,,,,,,,263.629478600109,264.64329929999076,262.116112699965,262.116112699965,262.116112699965,262.116112699965,old_fruit_15.png,13,1.0,1.5142435000743717,,,003,0,2024-07-26_18h05.59.347,Surprise recog test,2023.1.3,59.95520149526926,
13,0,13,0,,,,,,,,,,,,,,,,,,,,,,,,,,,,,,,,,,266.28694710019045,267.30755570018664,264.64329929999076,264.64329929999076,264.64329929999076,264.64329929999076,old_fruit_39.png,14,1.0,1.6384399000089616,,,003,0,2024-07-26_18h05.59.347,Surprise recog test,2023.1.3,59.95520149526926,
14,0,14,0,,,,,,,,,,,,,,,,,,,,,,,,,,,,,,,,,,269.27300889999606,270.28773770015687,267.30755570018664,267.30755570018664,267.30755570018664,267.30755570018664,new_sceneIn_8.png,15,3.0,1.967402100097388,,,003,0,2024-07-26_18h05.59.347,Surprise recog test,2023.1.3,59.95520149526926,
15,0,15,0,,,,,,,,,,,,,,,,,,,,,,,,,,,,,,,,,,271.4986280000303,272.5210148000624,270.28773770015687,270.28773770015687,270.28773770015687,270.28773770015687,new_fruit_41.png,16,3.0,1.211398300016299,,,003,0,2024-07-26_18h05.59.347,Surprise recog test,2023.1.3,59.95520149526926,
16,0,16,0,,,,,,,,,,,,,,,,,,,,,,,,,,,,,,,,,,274.4794876000378,,272.5210148000624,272.5210148000624,272.5210148000624,272.5210148000624,new_stationery_10.png,17,5.0,1.959304800024256,,,003,0,2024-07-26_18h05.59.347,Surprise recog test,2023.1.3,59.95520149526926,
17,0,17,0,,,,,,,,,,,,,,,,,,,,,,,,,,,,,,,,,,277.1461374000646,278.1609516001772,275.5014778999612,275.5014778999612,275.5014778999612,275.5014778999612,old_sceneOut_17.png,18,5.0,1.6401813998818398,,,003,0,2024-07-26_18h05.59.347,Surprise recog test,2023.1.3,59.95520149526926,
18,0,18,0,,,,,,,,,,,,,,,,,,,,,,,,,,,,,,,,,,280.4874231000431,281.51865310012363,278.1609516001772,278.1609516001772,278.1609516001772,278.1609516001772,old_stationery_50.png,19,2.0,2.328303699847311,,,003,0,2024-07-26_18h05.59.347,Surprise recog test,2023.1.3,59.95520149526926,
19,0,19,0,,,,,,,,,,,,,,,,,,,,,,,,,,,,,,,,,,282.72119640000165,,281.51865310012363,281.51865310012363,281.51865310012363,281.51865310012363,new_sceneOut_3.png,20,3.0,1.2021385000552982,,,003,0,2024-07-26_18h05.59.347,Surprise recog test,2023.1.3,59.95520149526926,
20,0,20,0,,,,,,,,,,,,,,,,,,,,,,,,,,,,,,,,,,285.1791634999681,286.20703550009057,283.75219500018284,283.75219500018284,283.75219500018284,283.75219500018284,old_stationery_42.png,21,1.0,1.426721700001508,,,003,0,2024-07-26_18h05.59.347,Surprise recog test,2023.1.3,59.95520149526926,
21,0,21,0,,,,,,,,,,,,,,,,,,,,,,,,,,,,,,,,,,287.6285639000125,288.65680150012486,286.20703550009057,286.20703550009057,286.20703550009057,286.20703550009057,new_fruit_25.png,22,3.0,1.4234615999739617,,,003,0,2024-07-26_18h05.59.347,Surprise recog test,2023.1.3,59.95520149526926,
22,0,22,0,,,,,,,,,,,,,,,,,,,,,,,,,,,,,,,,,,290.584423399996,291.59866730007343,288.65680150012486,288.65680150012486,288.65680150012486,288.65680150012486,new_sceneOut_18.png,23,4.0,1.9293723001610488,,,003,0,2024-07-26_18h05.59.347,Surprise recog test,2023.1.3,59.95520149526926,
23,0,23,0,,,,,,,,,,,,,,,,,,,,,,,,,,,,,,,,,,293.2395848999731,294.25220240000635,291.59866730007343,291.59866730007343,291.59866730007343,291.59866730007343,old_sceneOut_22.png,24,3.0,1.6368803000077605,,,003,0,2024-07-26_18h05.59.347,Surprise recog test,2023.1.3,59.95520149526926,
24,0,24,0,,,,,,,,,,,,,,,,,,,,,,,,,,,,,,,,,,295.21186410007067,296.21976620005444,294.25220240000635,294.25220240000635,294.25220240000635,294.25220240000635,new_sceneOut_25.png,25,3.0,0.9562429999932647,,,003,0,2024-07-26_18h05.59.347,Surprise recog test,2023.1.3,59.95520149526926,
25,0,25,0,,,,,,,,,,,,,,,,,,,,,,,,,,,,,,,,,,297.0428657999728,298.06558550009504,296.21976620005444,296.21976620005444,296.21976620005444,296.21976620005444,new_stationery_3.png,26,3.0,0.816591199953109,,,003,0,2024-07-26_18h05.59.347,Surprise recog test,2023.1.3,59.95520149526926,
26,0,26,0,,,,,,,,,,,,,,,,,,,,,,,,,,,,,,,,,,299.08068990008906,300.10281589999795,298.06558550009504,298.06558550009504,298.06558550009504,298.06558550009504,new_sceneOut_36.png,27,3.0,1.0138183000963181,,,003,0,2024-07-26_18h05.59.347,Surprise recog test,2023.1.3,59.95520149526926,
27,0,27,0,,,,,,,,,,,,,,,,,,,,,,,,,,,,,,,,,,300.85084310011007,,300.10281589999795,300.10281589999795,300.10281589999795,300.10281589999795,new_sceneOut_50.png,28,3.0,0.7501117999199778,,,003,0,2024-07-26_18h05.59.347,Surprise recog test,2023.1.3,59.95520149526926,
28,0,28,0,,,,,,,,,,,,,,,,,,,,,,,,,,,,,,,,,,304.08490170002915,305.1049856999889,301.88606819999404,301.88606819999404,301.88606819999404,301.88606819999404,new_stationery_6.png,29,2.0,2.194239499978721,,,003,0,2024-07-26_18h05.59.347,Surprise recog test,2023.1.3,59.95520149526926,
29,0,29,0,,,,,,,,,,,,,,,,,,,,,,,,,,,,,,,,,,306.1008357000537,307.1234772000462,305.1049856999889,305.1049856999889,305.1049856999889,305.1049856999889,new_sceneIn_1.png,30,3.0,0.9981780999805778,,,003,0,2024-07-26_18h05.59.347,Surprise recog test,2023.1.3,59.95520149526926,
30,0,30,0,,,,,,,,,,,,,,,,,,,,,,,,,,,,,,,,,,309.15577229997143,310.1604426000267,307.1234772000462,307.1234772000462,307.1234772000462,307.1234772000462,old_stationery_36.png,31,2.0,2.0282729999162257,,,003,0,2024-07-26_18h05.59.347,Surprise recog test,2023.1.3,59.95520149526926,
31,0,31,0,,,,,,,,,,,,,,,,,,,,,,,,,,,,,,,,,,311.6410499000922,312.6462236000225,310.1604426000267,310.1604426000267,310.1604426000267,310.1604426000267,new_stationery_18.png,32,4.0,1.4704265999607742,,,003,0,2024-07-26_18h05.59.347,Surprise recog test,2023.1.3,59.95520149526926,
32,0,32,0,,,,,,,,,,,,,,,,,,,,,,,,,,,,,,,,,,314.36007090006024,315.36519100004807,312.6462236000225,312.6462236000225,312.6462236000225,312.6462236000225,old_sceneIn_34.png,33,3.0,1.7040633000433445,,,003,0,2024-07-26_18h05.59.347,Surprise recog test,2023.1.3,59.95520149526926,
33,0,33,0,,,,,,,,,,,,,,,,,,,,,,,,,,,,,,,,,,317.31241270015016,318.3178101000376,315.36519100004807,315.36519100004807,315.36519100004807,315.36519100004807,new_sceneIn_19.png,34,2.0,1.9373459999915212,,,003,0,2024-07-26_18h05.59.347,Surprise recog test,2023.1.3,59.95520149526926,
34,0,34,0,,,,,,,,,,,,,,,,,,,,,,,,,,,,,,,,,,319.18066770001315,320.18634570017457,318.3178101000376,318.3178101000376,318.3178101000376,318.3178101000376,old_sceneOut_29.png,35,3.0,0.8530268999747932,,,003,0,2024-07-26_18h05.59.347,Surprise recog test,2023.1.3,59.95520149526926,
35,0,35,0,,,,,,,,,,,,,,,,,,,,,,,,,,,,,,,,,,321.0822716001421,322.0868946001865,320.18634570017457,320.18634570017457,320.18634570017457,320.18634570017457,old_sceneOut_23.png,36,3.0,0.8865412999875844,,,003,0,2024-07-26_18h05.59.347,Surprise recog test,2023.1.3,59.95520149526926,
36,0,36,0,,,,,,,,,,,,,,,,,,,,,,,,,,,,,,,,,,323.7846070001833,324.79007370001636,322.0868946001865,322.0868946001865,322.0868946001865,322.0868946001865,old_fruit_16.png,37,1.0,1.6871346000116318,,,003,0,2024-07-26_18h05.59.347,Surprise recog test,2023.1.3,59.95520149526926,
37,0,37,0,,,,,,,,,,,,,,,,,,,,,,,,,,,,,,,,,,326.1720931001473,,324.79007370001636,324.79007370001636,324.79007370001636,324.79007370001636,old_sceneIn_45.png,38,2.0,1.376793900039047,,,003,0,2024-07-26_18h05.59.347,Surprise recog test,2023.1.3,59.95520149526926,
38,0,38,0,,,,,,,,,,,,,,,,,,,,,,,,,,,,,,,,,,328.63846330018714,329.6435991001781,327.19300170009956,327.19300170009956,327.19300170009956,327.19300170009956,old_fruit_45.png,39,3.0,1.4364401998464018,,,003,0,2024-07-26_18h05.59.347,Surprise recog test,2023.1.3,59.95520149526926,
39,0,39,0,,,,,,,,,,,,,,,,,,,,,,,,,,,,,,,,,,330.64019359997474,331.64517839998007,329.6435991001781,329.6435991001781,329.6435991001781,329.6435991001781,new_sceneOut_4.png,40,3.0,0.9873822999652475,,,003,0,2024-07-26_18h05.59.347,Surprise recog test,2023.1.3,59.95520149526926,
40,0,40,0,,,,,,,,,,,,,,,,,,,,,,,,,,,,,,,,,,333.02552950009704,334.0312562000472,331.64517839998007,331.64517839998007,331.64517839998007,331.64517839998007,new_sceneOut_28.png,41,1.0,1.3711327998898923,,,003,0,2024-07-26_18h05.59.347,Surprise recog test,2023.1.3,59.95520149526926,
41,0,41,0,,,,,,,,,,,,,,,,,,,,,,,,,,,,,,,,,,334.8869994999841,335.90189290000126,334.0312562000472,334.0312562000472,334.0312562000472,334.0312562000472,new_stationery_30.png,42,3.0,0.8531689001247287,,,003,0,2024-07-26_18h05.59.347,Surprise recog test,2023.1.3,59.95520149526926,
42,0,42,0,,,,,,,,,,,,,,,,,,,,,,,,,,,,,,,,,,336.6457807000261,337.66311149997637,335.90189290000126,335.90189290000126,335.90189290000126,335.90189290000126,new_fruit_48.png,43,3.0,0.736413300037384,,,003,0,2024-07-26_18h05.59.347,Surprise recog test,2023.1.3,59.95520149526926,
43,0,43,0,,,,,,,,,,,,,,,,,,,,,,,,,,,,,,,,,,338.61060670018196,339.6218034999911,337.66311149997637,337.66311149997637,337.66311149997637,337.66311149997637,old_sceneIn_25.png,44,3.0,0.9482400000561029,,,003,0,2024-07-26_18h05.59.347,Surprise recog test,2023.1.3,59.95520149526926,
44,0,44,0,,,,,,,,,,,,,,,,,,,,,,,,,,,,,,,,,,340.3286125001032,341.35270570009016,339.6218034999911,339.6218034999911,339.6218034999911,339.6218034999911,new_sceneOut_9.png,45,3.0,0.701559399953112,,,003,0,2024-07-26_18h05.59.347,Surprise recog test,2023.1.3,59.95520149526926,
45,0,45,0,,,,,,,,,,,,,,,,,,,,,,,,,,,,,,,,,,343.3960166000761,344.40935880015604,341.35270570009016,341.35270570009016,341.35270570009016,341.35270570009016,new_fruit_47.png,46,3.0,2.045414599822834,,,003,0,2024-07-26_18h05.59.347,Surprise recog test,2023.1.3,59.95520149526926,
46,0,46,0,,,,,,,,,,,,,,,,,,,,,,,,,,,,,,,,,,346.7993958001025,347.8238548000809,344.40935880015604,344.40935880015604,344.40935880015604,344.40935880015604,new_stationery_24.png,47,3.0,2.3861754999961704,,,003,0,2024-07-26_18h05.59.347,Surprise recog test,2023.1.3,59.95520149526926,
47,0,47,0,,,,,,,,,,,,,,,,,,,,,,,,,,,,,,,,,,349.3435206001159,350.36645600013435,347.8238548000809,347.8238548000809,347.8238548000809,347.8238548000809,old_sceneIn_15.png,48,4.0,1.5226831999607384,,,003,0,2024-07-26_18h05.59.347,Surprise recog test,2023.1.3,59.95520149526926,
48,0,48,0,,,,,,,,,,,,,,,,,,,,,,,,,,,,,,,,,,351.52332360018045,352.5424554999918,350.36645600013435,350.36645600013435,350.36645600013435,350.36645600013435,old_sceneIn_46.png,49,4.0,1.1557805000338703,,,003,0,2024-07-26_18h05.59.347,Surprise recog test,2023.1.3,59.95520149526926,
49,0,49,0,,,,,,,,,,,,,,,,,,,,,,,,,,,,,,,,,,354.1741076000035,355.1961382001173,352.5424554999918,352.5424554999918,352.5424554999918,352.5424554999918,old_fruit_4.png,50,4.0,1.6329426001757383,,,003,0,2024-07-26_18h05.59.347,Surprise recog test,2023.1.3,59.95520149526926,
50,0,50,0,,,,,,,,,,,,,,,,,,,,,,,,,,,,,,,,,,356.4855606001802,357.51627610018477,355.1961382001173,355.1961382001173,355.1961382001173,355.1961382001173,old_sceneOut_25.png,51,3.0,1.292194199981168,,,003,0,2024-07-26_18h05.59.347,Surprise recog test,2023.1.3,59.95520149526926,
51,0,51,0,,,,,,,,,,,,,,,,,,,,,,,,,,,,,,,,,,358.3138154000044,359.33623630017973,357.51627610018477,357.51627610018477,357.51627610018477,357.51627610018477,old_sceneIn_7.png,52,3.0,0.797460800036788,,,003,0,2024-07-26_18h05.59.347,Surprise recog test,2023.1.3,59.95520149526926,
52,0,52,0,,,,,,,,,,,,,,,,,,,,,,,,,,,,,,,,,,360.4827908000443,361.5010562001262,359.33623630017973,359.33623630017973,359.33623630017973,359.33623630017973,new_sceneIn_16.png,53,4.0,1.1498937997967005,,,003,0,2024-07-26_18h05.59.347,Surprise recog test,2023.1.3,59.95520149526926,
53,0,53,0,,,,,,,,,,,,,,,,,,,,,,,,,,,,,,,,,,363.0115863000974,364.0270682000555,361.5010562001262,361.5010562001262,361.5010562001262,361.5010562001262,old_fruit_36.png,54,3.0,1.5109595998656005,,,003,0,2024-07-26_18h05.59.347,Surprise recog test,2023.1.3,59.95520149526926,
54,0,54,0,,,,,,,,,,,,,,,,,,,,,,,,,,,,,,,,,,365.5859559001401,366.60466020018794,364.0270682000555,364.0270682000555,364.0270682000555,364.0270682000555,old_sceneIn_28.png,55,4.0,1.5547869000583887,,,003,0,2024-07-26_18h05.59.347,Surprise recog test,2023.1.3,59.95520149526926,
55,0,55,0,,,,,,,,,,,,,,,,,,,,,,,,,,,,,,,,,,367.6296816000249,368.6464244001545,366.60466020018794,366.60466020018794,366.60466020018794,366.60466020018794,old_sceneIn_9.png,56,4.0,1.0273198999930173,,,003,0,2024-07-26_18h05.59.347,Surprise recog test,2023.1.3,59.95520149526926,
56,0,56,0,,,,,,,,,,,,,,,,,,,,,,,,,,,,,,,,,,369.94227420003153,,368.6464244001545,368.6464244001545,368.6464244001545,368.6464244001545,new_stationery_33.png,57,3.0,1.2922853000927716,,,003,0,2024-07-26_18h05.59.347,Surprise recog test,2023.1.3,59.95520149526926,
57,0,57,0,,,,,,,,,,,,,,,,,,,,,,,,,,,,,,,,,,372.06582250003703,373.09597110003233,370.9693200001493,370.9693200001493,370.9693200001493,370.9693200001493,new_sceneIn_5.png,58,3.0,1.096334100002423,,,003,0,2024-07-26_18h05.59.347,Surprise recog test,2023.1.3,59.95520149526926,
58,0,58,0,,,,,,,,,,,,,,,,,,,,,,,,,,,,,,,,,,373.7892405001912,374.80136380018666,373.09597110003233,373.09597110003233,373.09597110003233,373.09597110003233,old_sceneIn_10.png,59,3.0,0.6959035999607295,,,003,0,2024-07-26_18h05.59.347,Surprise recog test,2023.1.3,59.95520149526926,
59,0,59,0,,,,,,,,,,,,,,,,,,,,,,,,,,,,,,,,,,375.60421130014583,376.62949350010604,374.80136380018666,374.80136380018666,374.80136380018666,374.80136380018666,old_fruit_35.png,60,3.0,0.7982729999348521,,,003,0,2024-07-26_18h05.59.347,Surprise recog test,2023.1.3,59.95520149526926,
60,0,60,0,,,,,,,,,,,,,,,,,,,,,,,,,,,,,,,,,,380.00293119996786,381.02951310016215,376.62949350010604,376.62949350010604,376.62949350010604,376.62949350010604,new_stationery_22.png,61,2.0,3.375083199935034,,,003,0,2024-07-26_18h05.59.347,Surprise recog test,2023.1.3,59.95520149526926,
61,0,61,0,,,,,,,,,,,,,,,,,,,,,,,,,,,,,,,,,,382.1831160001457,383.204594100127,381.02951310016215,381.02951310016215,381.02951310016215,381.02951310016215,new_fruit_5.png,62,3.0,1.1485766000114381,,,003,0,2024-07-26_18h05.59.347,Surprise recog test,2023.1.3,59.95520149526926,
62,0,62,0,,,,,,,,,,,,,,,,,,,,,,,,,,,,,,,,,,384.2590656999964,385.27768110018224,383.204594100127,383.204594100127,383.204594100127,383.204594100127,old_fruit_34.png,63,3.0,1.0568117999937385,,,003,0,2024-07-26_18h05.59.347,Surprise recog test,2023.1.3,59.95520149526926,
63,0,63,0,,,,,,,,,,,,,,,,,,,,,,,,,,,,,,,,,,386.3252433000598,387.3482785001397,385.27768110018224,385.27768110018224,385.27768110018224,385.27768110018224,new_sceneOut_39.png,64,3.0,1.0437803999520838,,,003,0,2024-07-26_18h05.59.347,Surprise recog test,2023.1.3,59.95520149526926,
64,0,64,0,,,,,,,,,,,,,,,,,,,,,,,,,,,,,,,,,,390.2148625999689,391.23861850006506,387.3482785001397,387.3482785001397,387.3482785001397,387.3482785001397,old_stationery_9.png,65,2.0,2.8627912998199463,,,003,0,2024-07-26_18h05.59.347,Surprise recog test,2023.1.3,59.95520149526926,
65,0,65,0,,,,,,,,,,,,,,,,,,,,,,,,,,,,,,,,,,392.0966225999873,393.12721100007184,391.23861850006506,391.23861850006506,391.23861850006506,391.23861850006506,old_sceneIn_19.png,66,3.0,0.8598796001169831,,,003,0,2024-07-26_18h05.59.347,Surprise recog test,2023.1.3,59.95520149526926,
66,0,66,0,,,,,,,,,,,,,,,,,,,,,,,,,,,,,,,,,,394.25292220013216,395.2684464000631,393.12721100007184,393.12721100007184,393.12721100007184,393.12721100007184,new_sceneOut_49.png,67,3.0,1.1277369000017643,,,003,0,2024-07-26_18h05.59.347,Surprise recog test,2023.1.3,59.95520149526926,
67,0,67,0,,,,,,,,,,,,,,,,,,,,,,,,,,,,,,,,,,396.4199209001381,397.44709839997813,395.2684464000631,395.2684464000631,395.2684464000631,395.2684464000631,old_sceneIn_39.png,68,3.0,1.1469596999231726,,,003,0,2024-07-26_18h05.59.347,Surprise recog test,2023.1.3,59.95520149526926,
68,0,68,0,,,,,,,,,,,,,,,,,,,,,,,,,,,,,,,,,,398.9665664001368,,397.44709839997813,397.44709839997813,397.44709839997813,397.44709839997813,new_sceneIn_22.png,69,3.0,1.520106499781832,,,003,0,2024-07-26_18h05.59.347,Surprise recog test,2023.1.3,59.95520149526926,
69,0,69,0,,,,,,,,,,,,,,,,,,,,,,,,,,,,,,,,,,400.94189700018615,401.96708890004084,400.00148140010424,400.00148140010424,400.00148140010424,400.00148140010424,new_sceneIn_25.png,70,3.0,0.9424169999547303,,,003,0,2024-07-26_18h05.59.347,Surprise recog test,2023.1.3,59.95520149526926,
70,0,70,0,,,,,,,,,,,,,,,,,,,,,,,,,,,,,,,,,,402.77887330017984,403.80469100014307,401.96708890004084,401.96708890004084,401.96708890004084,401.96708890004084,old_sceneIn_35.png,71,3.0,0.8111740997992456,,,003,0,2024-07-26_18h05.59.347,Surprise recog test,2023.1.3,59.95520149526926,
71,0,71,0,,,,,,,,,,,,,,,,,,,,,,,,,,,,,,,,,,404.4869103000965,405.49444729997776,403.80469100014307,403.80469100014307,403.80469100014307,403.80469100014307,old_stationery_17.png,72,3.0,0.6850181999616325,,,003,0,2024-07-26_18h05.59.347,Surprise recog test,2023.1.3,59.95520149526926,
72,0,72,0,,,,,,,,,,,,,,,,,,,,,,,,,,,,,,,,,,406.22653060010634,407.2575511999894,405.49444729997776,405.49444729997776,405.49444729997776,405.49444729997776,old_sceneOut_39.png,73,3.0,0.7287067000288516,,,003,0,2024-07-26_18h05.59.347,Surprise recog test,2023.1.3,59.95520149526926,
73,0,73,0,,,,,,,,,,,,,,,,,,,,,,,,,,,,,,,,,,408.5505520000588,409.5762686000671,407.2575511999894,407.2575511999894,407.2575511999894,407.2575511999894,old_sceneOut_15.png,74,4.0,1.2946576001122594,,,003,0,2024-07-26_18h05.59.347,Surprise recog test,2023.1.3,59.95520149526926,
74,0,74,0,,,,,,,,,,,,,,,,,,,,,,,,,,,,,,,,,,410.5999344000593,411.62837520008907,409.5762686000671,409.5762686000671,409.5762686000671,409.5762686000671,new_sceneIn_46.png,75,4.0,1.025455900002271,,,003,0,2024-07-26_18h05.59.347,Surprise recog test,2023.1.3,59.95520149526926,
75,0,75,0,,,,,,,,,,,,,,,,,,,,,,,,,,,,,,,,,,412.80759910005145,413.83034300012514,411.62837520008907,411.62837520008907,411.62837520008907,411.62837520008907,new_sceneIn_35.png,76,4.0,1.1820362999569625,,,003,0,2024-07-26_18h05.59.347,Surprise recog test,2023.1.3,59.95520149526926,
76,0,76,0,,,,,,,,,,,,,,,,,,,,,,,,,,,,,,,,,,415.5101656001061,416.5318489000201,413.83034300012514,413.83034300012514,413.83034300012514,413.83034300012514,old_sceneIn_5.png,77,4.0,1.6821618999820203,,,003,0,2024-07-26_18h05.59.347,Surprise recog test,2023.1.3,59.95520149526926,
77,0,77,0,,,,,,,,,,,,,,,,,,,,,,,,,,,,,,,,,,417.7754607000388,418.7842094001826,416.5318489000201,416.5318489000201,416.5318489000201,416.5318489000201,old_fruit_5.png,78,3.0,1.246312899980694,,,003,0,2024-07-26_18h05.59.347,Surprise recog test,2023.1.3,59.95520149526926,
78,0,78,0,,,,,,,,,,,,,,,,,,,,,,,,,,,,,,,,,,419.80028520012274,,418.7842094001826,418.7842094001826,418.7842094001826,418.7842094001826,old_fruit_46.png,79,3.0,1.0129180001094937,,,003,0,2024-07-26_18h05.59.347,Surprise recog test,2023.1.3,59.95520149526926,
79,0,79,0,,,,,,,,,,,,,,,,,,,,,,,,,,,,,,,,,,422.19577220012434,423.2121582000982,420.83281150017865,420.83281150017865,420.83281150017865,420.83281150017865,new_stationery_50.png,80,4.0,1.3637260999530554,,,003,0,2024-07-26_18h05.59.347,Surprise recog test,2023.1.3,59.95520149526926,
80,0,80,0,,,,,,,,,,,,,,,,,,,,,,,,,,,,,,,,,,425.2425016001798,426.2748313001357,423.2121582000982,423.2121582000982,423.2121582000982,423.2121582000982,old_sceneOut_46.png,81,4.0,2.0301336999982595,,,003,0,2024-07-26_18h05.59.347,Surprise recog test,2023.1.3,59.95520149526926,
81,0,81,0,,,,,,,,,,,,,,,,,,,,,,,,,,,,,,,,,,427.922909400193,,426.2748313001357,426.2748313001357,426.2748313001357,426.2748313001357,old_fruit_38.png,82,4.0,1.6506626999471337,,,003,0,2024-07-26_18h05.59.347,Surprise recog test,2023.1.3,59.95520149526926,
82,0,82,0,,,,,,,,,,,,,,,,,,,,,,,,,,,,,,,,,,430.14110090001486,431.16227560001425,428.944761000108,428.944761000108,428.944761000108,428.944761000108,new_fruit_23.png,83,4.0,1.1923040999099612,,,003,0,2024-07-26_18h05.59.347,Surprise recog test,2023.1.3,59.95520149526926,
83,0,83,0,,,,,,,,,,,,,,,,,,,,,,,,,,,,,,,,,,432.2833887001034,433.31113740010187,431.16227560001425,431.16227560001425,431.16227560001425,431.16227560001425,old_sceneIn_36.png,84,4.0,1.1219363000709563,,,003,0,2024-07-26_18h05.59.347,Surprise recog test,2023.1.3,59.95520149526926,
84,0,84,0,,,,,,,,,,,,,,,,,,,,,,,,,,,,,,,,,,434.3926744000055,435.4014401000459,433.31113740010187,433.31113740010187,433.31113740010187,433.31113740010187,old_sceneOut_49.png,85,4.0,1.080639700172469,,,003,0,2024-07-26_18h05.59.347,Surprise recog test,2023.1.3,59.95520149526926,
85,0,85,0,,,,,,,,,,,,,,,,,,,,,,,,,,,,,,,,,,436.3036567000672,437.31995510007255,435.4014401000459,435.4014401000459,435.4014401000459,435.4014401000459,old_sceneIn_3.png,86,4.0,0.8983111998531967,,,003,0,2024-07-26_18h05.59.347,Surprise recog test,2023.1.3,59.95520149526926,
86,0,86,0,,,,,,,,,,,,,,,,,,,,,,,,,,,,,,,,,,438.194538900163,439.21967720007524,437.31995510007255,437.31995510007255,437.31995510007255,437.31995510007255,new_fruit_44.png,87,4.0,0.8662736001424491,,,003,0,2024-07-26_18h05.59.347,Surprise recog test,2023.1.3,59.95520149526926,
87,0,87,0,,,,,,,,,,,,,,,,,,,,,,,,,,,,,,,,,,440.5448326000478,441.5699221000541,439.21967720007524,439.21967720007524,439.21967720007524,439.21967720007524,old_sceneOut_4.png,88,4.0,1.328775699948892,,,003,0,2024-07-26_18h05.59.347,Surprise recog test,2023.1.3,59.95520149526926,
88,0,88,0,,,,,,,,,,,,,,,,,,,,,,,,,,,,,,,,,,442.3013546001166,443.3225309001282,441.5699221000541,441.5699221000541,441.5699221000541,441.5699221000541,new_sceneIn_20.png,89,4.0,0.7315271000843495,,,003,0,2024-07-26_18h05.59.347,Surprise recog test,2023.1.3,59.95520149526926,
89,0,89,0,,,,,,,,,,,,,,,,,,,,,,,,,,,,,,,,,,444.2938953000121,445.32111420016736,443.3225309001282,443.3225309001282,443.3225309001282,443.3225309001282,old_sceneOut_38.png,90,4.0,0.9756814001593739,,,003,0,2024-07-26_18h05.59.347,Surprise recog test,2023.1.3,59.95520149526926,
90,0,90,0,,,,,,,,,,,,,,,,,,,,,,,,,,,,,,,,,,447.2732806999702,,445.32111420016736,445.32111420016736,445.32111420016736,445.32111420016736,old_fruit_28.png,91,2.0,1.9550634000916034,,,003,0,2024-07-26_18h05.59.347,Surprise recog test,2023.1.3,59.95520149526926,
91,0,91,0,,,,,,,,,,,,,,,,,,,,,,,,,,,,,,,,,,449.68739280011505,450.7070392000023,448.30424960004166,448.30424960004166,448.30424960004166,448.30424960004166,old_stationery_21.png,92,4.0,1.3805986000224948,,,003,0,2024-07-26_18h05.59.347,Surprise recog test,2023.1.3,59.95520149526926,
92,0,92,0,,,,,,,,,,,,,,,,,,,,,,,,,,,,,,,,,,452.0683586001396,453.08149889996275,450.7070392000023,450.7070392000023,450.7070392000023,450.7070392000023,new_stationery_11.png,93,5.0,1.3609058998990804,,,003,0,2024-07-26_18h05.59.347,Surprise recog test,2023.1.3,59.95520149526926,
93,0,93,0,,,,,,,,,,,,,,,,,,,,,,,,,,,,,,,,,,454.74304220010526,455.7522776001133,453.08149889996275,453.08149889996275,453.08149889996275,453.08149889996275,new_stationery_13.png,94,2.0,1.6579275000840425,,,003,0,2024-07-26_18h05.59.347,Surprise recog test,2023.1.3,59.95520149526926,
94,0,94,0,,,,,,,,,,,,,,,,,,,,,,,,,,,,,,,,,,456.97291720006615,457.99837670009583,455.7522776001133,455.7522776001133,455.7522776001133,455.7522776001133,new_sceneIn_49.png,95,5.0,1.2133392998948693,,,003,0,2024-07-26_18h05.59.347,Surprise recog test,2023.1.3,59.95520149526926,
95,0,95,0,,,,,,,,,,,,,,,,,,,,,,,,,,,,,,,,,,459.1469841999933,460.15630730008706,457.99837670009583,457.99837670009583,457.99837670009583,457.99837670009583,old_sceneOut_6.png,96,5.0,1.1473662999924272,,,003,0,2024-07-26_18h05.59.347,Surprise recog test,2023.1.3,59.95520149526926,
96,0,96,0,,,,,,,,,,,,,,,,,,,,,,,,,,,,,,,,,,460.9908337001689,462.01330440002494,460.15630730008706,460.15630730008706,460.15630730008706,460.15630730008706,new_sceneIn_14.png,97,5.0,0.8336428999900818,,,003,0,2024-07-26_18h05.59.347,Surprise recog test,2023.1.3,59.95520149526926,
97,0,97,0,,,,,,,,,,,,,,,,,,,,,,,,,,,,,,,,,,462.9916243001353,464.02152619999833,462.01330440002494,462.01330440002494,462.01330440002494,462.01330440002494,new_stationery_46.png,98,5.0,0.9762003000359982,,,003,0,2024-07-26_18h05.59.347,Surprise recog test,2023.1.3,59.95520149526926,
98,0,98,0,,,,,,,,,,,,,,,,,,,,,,,,,,,,,,,,,,464.99523340002634,466.01233420008793,464.02152619999833,464.02152619999833,464.02152619999833,464.02152619999833,new_sceneOut_40.png,99,5.0,0.9742338000796735,,,003,0,2024-07-26_18h05.59.347,Surprise recog test,2023.1.3,59.95520149526926,
99,0,99,0,,,,,,,,,,,,,,,,,,,,,,,,,,,,,,,,,,467.63405760005116,468.6592457999941,466.01233420008793,466.01233420008793,466.01233420008793,466.01233420008793,old_stationery_47.png,100,5.0,1.6201031000819057,,,003,0,2024-07-26_18h05.59.347,Surprise recog test,2023.1.3,59.95520149526926,
100,0,100,0,,,,,,,,,,,,,,,,,,,,,,,,,,,,,,,,,,470.4612438001204,471.4923008000478,468.6592457999941,468.6592457999941,468.6592457999941,468.6592457999941,new_stationery_43.png,101,1.0,1.8025219000410289,,,003,0,2024-07-26_18h05.59.347,Surprise recog test,2023.1.3,59.95520149526926,
101,0,101,0,,,,,,,,,,,,,,,,,,,,,,,,,,,,,,,,,,472.37498540012166,473.3834472000599,471.4923008000478,471.4923008000478,471.4923008000478,471.4923008000478,new_sceneIn_15.png,102,3.0,0.8831278001889586,,,003,0,2024-07-26_18h05.59.347,Surprise recog test,2023.1.3,59.95520149526926,
102,0,102,0,,,,,,,,,,,,,,,,,,,,,,,,,,,,,,,,,,474.4431928000413,475.46111360006034,473.3834472000599,473.3834472000599,473.3834472000599,473.3834472000599,old_stationery_30.png,103,3.0,1.050954199861735,,,003,0,2024-07-26_18h05.59.347,Surprise recog test,2023.1.3,59.95520149526926,
103,0,103,0,,,,,,,,,,,,,,,,,,,,,,,,,,,,,,,,,,476.4767848001793,477.4999007000588,475.46111360006034,475.46111360006034,475.46111360006034,475.46111360006034,old_sceneIn_6.png,104,3.0,1.0175902999471873,,,003,0,2024-07-26_18h05.59.347,Surprise recog test,2023.1.3,59.95520149526926,
104,0,104,0,,,,,,,,,,,,,,,,,,,,,,,,,,,,,,,,,,478.5050300001167,479.53112780000083,477.4999007000588,477.4999007000588,477.4999007000588,477.4999007000588,new_sceneIn_18.png,105,3.0,1.007580399978906,,,003,0,2024-07-26_18h05.59.347,Surprise recog test,2023.1.3,59.95520149526926,
105,0,105,0,,,,,,,,,,,,,,,,,,,,,,,,,,,,,,,,,,481.32330250018276,482.3529578000307,479.53112780000083,479.53112780000083,479.53112780000083,479.53112780000083,new_stationery_31.png,106,3.0,1.793707799864933,,,003,0,2024-07-26_18h05.59.347,Surprise recog test,2023.1.3,59.95520149526926,
106,0,106,0,,,,,,,,,,,,,,,,,,,,,,,,,,,,,,,,,,483.8639909001067,484.88852889998816,482.3529578000307,482.3529578000307,482.3529578000307,482.3529578000307,new_sceneIn_13.png,107,5.0,1.513555700192228,,,003,0,2024-07-26_18h05.59.347,Surprise recog test,2023.1.3,59.95520149526926,
107,0,107,0,,,,,,,,,,,,,,,,,,,,,,,,,,,,,,,,,,486.46301860013045,487.4963613001164,484.88852889998816,484.88852889998816,484.88852889998816,484.88852889998816,new_sceneIn_23.png,108,5.0,1.5759219999890774,,,003,0,2024-07-26_18h05.59.347,Surprise recog test,2023.1.3,59.95520149526926,
108,0,108,0,,,,,,,,,,,,,,,,,,,,,,,,,,,,,,,,,,489.27225190005265,490.2855048000347,487.4963613001164,487.4963613001164,487.4963613001164,487.4963613001164,new_stationery_42.png,109,5.0,1.7760468001943082,,,003,0,2024-07-26_18h05.59.347,Surprise recog test,2023.1.3,59.95520149526926,
109,0,109,0,,,,,,,,,,,,,,,,,,,,,,,,,,,,,,,,,,493.4978068000637,494.5290000999812,490.2855048000347,490.2855048000347,490.2855048000347,490.2855048000347,new_fruit_34.png,110,3.0,3.213380000088364,,,003,0,2024-07-26_18h05.59.347,Surprise recog test,2023.1.3,59.95520149526926,
110,0,110,0,,,,,,,,,,,,,,,,,,,,,,,,,,,,,,,,,,496.3673932000529,497.39912350010127,494.5290000999812,494.5290000999812,494.5290000999812,494.5290000999812,old_sceneIn_4.png,111,5.0,1.8406680999323726,,,003,0,2024-07-26_18h05.59.347,Surprise recog test,2023.1.3,59.95520149526926,
111,0,111,0,,,,,,,,,,,,,,,,,,,,,,,,,,,,,,,,,,499.9925947000738,501.0178632000461,497.39912350010127,497.39912350010127,497.39912350010127,497.39912350010127,old_fruit_8.png,112,3.0,2.5958359998185188,,,003,0,2024-07-26_18h05.59.347,Surprise recog test,2023.1.3,59.95520149526926,
112,0,112,0,,,,,,,,,,,,,,,,,,,,,,,,,,,,,,,,,,503.61567850015126,504.639017800102,501.0178632000461,501.0178632000461,501.0178632000461,501.0178632000461,old_sceneOut_20.png,113,4.0,2.599677100079134,,,003,0,2024-07-26_18h05.59.347,Surprise recog test,2023.1.3,59.95520149526926,
113,0,113,0,,,,,,,,,,,,,,,,,,,,,,,,,,,,,,,,,,506.39490890013985,507.4082394000143,504.639017800102,504.639017800102,504.639017800102,504.639017800102,new_stationery_14.png,114,3.0,1.7579767999704927,,,003,0,2024-07-26_18h05.59.347,Surprise recog test,2023.1.3,59.95520149526926,
114,0,114,0,,,,,,,,,,,,,,,,,,,,,,,,,,,,,,,,,,509.5329827000387,510.5536198001355,507.4082394000143,507.4082394000143,507.4082394000143,507.4082394000143,new_stationery_49.png,115,3.0,2.1216448999475688,,,003,0,2024-07-26_18h05.59.347,Surprise recog test,2023.1.3,59.95520149526926,
115,0,115,0,,,,,,,,,,,,,,,,,,,,,,,,,,,,,,,,,,512.0443653000984,,510.5536198001355,510.5536198001355,510.5536198001355,510.5536198001355,new_sceneOut_16.png,116,3.0,1.4894395000301301,,,003,0,2024-07-26_18h05.59.347,Surprise recog test,2023.1.3,59.95520149526926,
116,0,116,0,,,,,,,,,,,,,,,,,,,,,,,,,,,,,,,,,,514.5073585000355,515.5303814001381,513.0741384001449,513.0741384001449,513.0741384001449,513.0741384001449,old_fruit_10.png,117,2.0,1.434906000038609,,,003,0,2024-07-26_18h05.59.347,Surprise recog test,2023.1.3,59.95520149526926,
117,0,117,0,,,,,,,,,,,,,,,,,,,,,,,,,,,,,,,,,,516.4186391001567,517.4480975000188,515.5303814001381,515.5303814001381,515.5303814001381,515.5303814001381,old_sceneIn_50.png,118,3.0,0.8887467000167817,,,003,0,2024-07-26_18h05.59.347,Surprise recog test,2023.1.3,59.95520149526926,
118,0,118,0,,,,,,,,,,,,,,,,,,,,,,,,,,,,,,,,,,518.4972385000437,519.5102248000912,517.4480975000188,517.4480975000188,517.4480975000188,517.4480975000188,old_stationery_6.png,119,3.0,1.048805199796334,,,003,0,2024-07-26_18h05.59.347,Surprise recog test,2023.1.3,59.95520149526926,
119,0,119,0,,,,,,,,,,,,,,,,,,,,,,,,,,,,,,,,,,522.8352538000327,523.8422582000494,519.5102248000912,519.5102248000912,519.5102248000912,519.5102248000912,old_stationery_12.png,120,4.0,3.3227746000047773,,,003,0,2024-07-26_18h05.59.347,Surprise recog test,2023.1.3,59.95520149526926,
120,0,120,0,,,,,,,,,,,,,,,,,,,,,,,,,,,,,,,,,,524.9684425001033,525.98979290016,523.8422582000494,523.8422582000494,523.8422582000494,523.8422582000494,new_stationery_9.png,121,3.0,1.1172748999670148,,,003,0,2024-07-26_18h05.59.347,Surprise recog test,2023.1.3,59.95520149526926,
121,0,121,0,,,,,,,,,,,,,,,,,,,,,,,,,,,,,,,,,,528.1205888001714,529.1351433000527,525.98979290016,525.98979290016,525.98979290016,525.98979290016,old_fruit_7.png,122,2.0,2.1329608999658376,,,003,0,2024-07-26_18h05.59.347,Surprise recog test,2023.1.3,59.95520149526926,
122,0,122,0,,,,,,,,,,,,,,,,,,,,,,,,,,,,,,,,,,530.5107684000395,,529.1351433000527,529.1351433000527,529.1351433000527,529.1351433000527,old_sceneOut_44.png,123,3.0,1.376586199970916,,,003,0,2024-07-26_18h05.59.347,Surprise recog test,2023.1.3,59.95520149526926,
123,0,123,0,,,,,,,,,,,,,,,,,,,,,,,,,,,,,,,,,,533.9962251000106,,531.5301838000305,531.5301838000305,531.5301838000305,531.5301838000305,old_stationery_26.png,124,3.0,2.4612394999712706,,,003,0,2024-07-26_18h05.59.347,Surprise recog test,2023.1.3,59.95520149526926,
124,0,124,0,,,,,,,,,,,,,,,,,,,,,,,,,,,,,,,,,,536.8376953999978,537.8673351001926,535.030240500113,535.030240500113,535.030240500113,535.030240500113,old_sceneOut_19.png,125,3.0,1.8090321999043226,,,003,0,2024-07-26_18h05.59.347,Surprise recog test,2023.1.3,59.95520149526926,
125,0,125,0,,,,,,,,,,,,,,,,,,,,,,,,,,,,,,,,,,539.4248631000519,540.450928500155,537.8673351001926,537.8673351001926,537.8673351001926,537.8673351001926,old_sceneIn_40.png,126,3.0,1.557299799984321,,,003,0,2024-07-26_18h05.59.347,Surprise recog test,2023.1.3,59.95520149526926,
126,0,126,0,,,,,,,,,,,,,,,,,,,,,,,,,,,,,,,,,,545.1211149001028,,540.450928500155,540.450928500155,540.450928500155,540.450928500155,old_sceneIn_44.png,127,3.0,4.672398600028828,,,003,0,2024-07-26_18h05.59.347,Surprise recog test,2023.1.3,59.95520149526926,
127,0,127,0,,,,,,,,,,,,,,,,,,,,,,,,,,,,,,,,,,548.3046003000345,549.3266829999629,546.1501393001527,546.1501393001527,546.1501393001527,546.1501393001527,new_stationery_29.png,128,4.0,2.1563323999289423,,,003,0,2024-07-26_18h05.59.347,Surprise recog test,2023.1.3,59.95520149526926,
128,0,128,0,,,,,,,,,,,,,,,,,,,,,,,,,,,,,,,,,,554.322437300114,,549.3266829999629,549.3266829999629,549.3266829999629,549.3266829999629,old_stationery_39.png,129,None,None,554.3088859000709,,003,0,2024-07-26_18h05.59.347,Surprise recog test,2023.1.3,59.95520149526926,
129,0,129,0,,,,,,,,,,,,,,,,,,,,,,,,,,,,,,,,,,557.6329723000526,,555.3464609000366,555.3464609000366,555.3464609000366,555.3464609000366,new_fruit_40.png,130,3.0,2.290526899974793,,,003,0,2024-07-26_18h05.59.347,Surprise recog test,2023.1.3,59.95520149526926,
130,0,130,0,,,,,,,,,,,,,,,,,,,,,,,,,,,,,,,,,,559.6122196000069,560.6235219000373,558.6596455001272,558.6596455001272,558.6596455001272,558.6596455001272,new_sceneOut_11.png,131,3.0,0.8910587001591921,,,003,0,2024-07-26_18h05.59.347,Surprise recog test,2023.1.3,59.95520149526926,
131,0,131,0,,,,,,,,,,,,,,,,,,,,,,,,,,,,,,,,,,561.6609295001253,,560.6235219000373,560.6235219000373,560.6235219000373,560.6235219000373,old_stationery_5.png,132,3.0,0.9683082001283765,,,003,0,2024-07-26_18h05.59.347,Surprise recog test,2023.1.3,59.95520149526926,
132,0,132,0,,,,,,,,,,,,,,,,,,,,,,,,,,,,,,,,,,563.7508425000124,564.7558240999933,562.6976564000361,562.6976564000361,562.6976564000361,562.6976564000361,new_sceneOut_22.png,133,3.0,1.0573005999904126,,,003,0,2024-07-26_18h05.59.347,Surprise recog test,2023.1.3,59.95520149526926,
133,0,133,0,,,,,,,,,,,,,,,,,,,,,,,,,,,,,,,,,,565.6356045000721,566.6398643001448,564.7558240999933,564.7558240999933,564.7558240999933,564.7558240999933,new_stationery_19.png,134,3.0,0.8720048000104725,,,003,0,2024-07-26_18h05.59.347,Surprise recog test,2023.1.3,59.95520149526926,
134,0,134,0,,,,,,,,,,,,,,,,,,,,,,,,,,,,,,,,,,568.1055791000836,569.1095865000971,566.6398643001448,566.6398643001448,566.6398643001448,566.6398643001448,old_fruit_43.png,135,3.0,1.4574911000672728,,,003,0,2024-07-26_18h05.59.347,Surprise recog test,2023.1.3,59.95520149526926,
135,0,135,0,,,,,,,,,,,,,,,,,,,,,,,,,,,,,,,,,,570.1391535000876,571.143359699985,569.1095865000971,569.1095865000971,569.1095865000971,569.1095865000971,old_stationery_44.png,136,3.0,1.0190381000284106,,,003,0,2024-07-26_18h05.59.347,Surprise recog test,2023.1.3,59.95520149526926,
136,0,136,0,,,,,,,,,,,,,,,,,,,,,,,,,,,,,,,,,,572.5911877001636,573.5958088000771,571.143359699985,571.143359699985,571.143359699985,571.143359699985,new_sceneIn_28.png,137,4.0,1.4377252999693155,,,003,0,2024-07-26_18h05.59.347,Surprise recog test,2023.1.3,59.95520149526926,
137,0,137,0,,,,,,,,,,,,,,,,,,,,,,,,,,,,,,,,,,575.0932877000887,576.0972993001342,573.5958088000771,573.5958088000771,573.5958088000771,573.5958088000771,old_stationery_1.png,138,3.0,1.4869105000980198,,,003,0,2024-07-26_18h05.59.347,Surprise recog test,2023.1.3,59.95520149526926,
138,0,138,0,,,,,,,,,,,,,,,,,,,,,,,,,,,,,,,,,,577.6621046001092,578.6664754000958,576.0972993001342,576.0972993001342,576.0972993001342,576.0972993001342,new_stationery_23.png,139,3.0,1.5546926001552492,,,003,0,2024-07-26_18h05.59.347,Surprise recog test,2023.1.3,59.95520149526926,
139,0,139,0,,,,,,,,,,,,,,,,,,,,,,,,,,,,,,,,,,579.4635032999795,580.4677946001757,578.6664754000958,578.6664754000958,578.6664754000958,578.6664754000958,old_stationery_45.png,140,3.0,0.7880323000717908,,,003,0,2024-07-26_18h05.59.347,Surprise recog test,2023.1.3,59.95520149526926,
140,0,140,0,,,,,,,,,,,,,,,,,,,,,,,,,,,,,,,,,,581.3818061000202,582.3947960999794,580.4677946001757,580.4677946001757,580.4677946001757,580.4677946001757,old_fruit_18.png,141,3.0,0.9028679998591542,,,003,0,2024-07-26_18h05.59.347,Surprise recog test,2023.1.3,59.95520149526926,
141,0,141,0,,,,,,,,,,,,,,,,,,,,,,,,,,,,,,,,,,584.3677602000535,585.3726437999867,582.3947960999794,582.3947960999794,582.3947960999794,582.3947960999794,new_stationery_36.png,142,2.0,1.9674337999895215,,,003,0,2024-07-26_18h05.59.347,Surprise recog test,2023.1.3,59.95520149526926,
142,0,142,0,,,,,,,,,,,,,,,,,,,,,,,,,,,,,,,,,,587.6036727000028,588.6094112000428,585.3726437999867,585.3726437999867,585.3726437999867,585.3726437999867,new_sceneOut_26.png,143,3.0,2.2207955999765545,,,003,0,2024-07-26_18h05.59.347,Surprise recog test,2023.1.3,59.95520149526926,
143,0,143,0,,,,,,,,,,,,,,,,,,,,,,,,,,,,,,,,,,590.3961247000843,591.4118349000346,588.6094112000428,588.6094112000428,588.6094112000428,588.6094112000428,new_fruit_42.png,144,3.0,1.7798266001045704,,,003,0,2024-07-26_18h05.59.347,Surprise recog test,2023.1.3,59.95520149526926,
144,0,144,0,,,,,,,,,,,,,,,,,,,,,,,,,,,,,,,,,,592.1741331000812,593.179811200127,591.4118349000346,591.4118349000346,591.4118349000346,591.4118349000346,old_fruit_50.png,145,3.0,0.7532633999362588,,,003,0,2024-07-26_18h05.59.347,Surprise recog test,2023.1.3,59.95520149526926,
145,0,145,0,,,,,,,,,,,,,,,,,,,,,,,,,,,,,,,,,,593.9924739000853,595.0001108001452,593.179811200127,593.179811200127,593.179811200127,593.179811200127,new_fruit_10.png,146,3.0,0.8033118001185358,,,003,0,2024-07-26_18h05.59.347,Surprise recog test,2023.1.3,59.95520149526926,
146,0,146,0,,,,,,,,,,,,,,,,,,,,,,,,,,,,,,,,,,595.5793262000661,,595.0001108001452,595.0001108001452,595.0001108001452,595.0001108001452,old_sceneOut_37.png,147,3.0,0.577228199923411,,,003,0,2024-07-26_18h05.59.347,Surprise recog test,2023.1.3,59.95520149526926,
147,0,147,0,,,,,,,,,,,,,,,,,,,,,,,,,,,,,,,,,,597.4428600000683,598.4571538001765,596.5998230001424,596.5998230001424,596.5998230001424,596.5998230001424,new_fruit_28.png,148,3.0,0.8400232000276446,,,003,0,2024-07-26_18h05.59.347,Surprise recog test,2023.1.3,59.95520149526926,
148,0,148,0,,,,,,,,,,,,,,,,,,,,,,,,,,,,,,,,,,599.0464888999704,600.0579775001388,598.4571538001765,598.4571538001765,598.4571538001765,598.4571538001765,new_sceneIn_33.png,149,3.0,0.587959700031206,,,003,0,2024-07-26_18h05.59.347,Surprise recog test,2023.1.3,59.95520149526926,
149,0,149,0,,,,,,,,,,,,,,,,,,,,,,,,,,,,,,,,,,601.2661768000107,602.2708656999748,600.0579775001388,600.0579775001388,600.0579775001388,600.0579775001388,old_stationery_20.png,150,4.0,1.2083451999351382,,,003,0,2024-07-26_18h05.59.347,Surprise recog test,2023.1.3,59.95520149526926,
150,0,150,0,,,,,,,,,,,,,,,,,,,,,,,,,,,,,,,,,,604.3517877999693,605.3626898999792,602.2708656999748,602.2708656999748,602.2708656999748,602.2708656999748,old_fruit_9.png,151,3.0,2.0775645999237895,,,003,0,2024-07-26_18h05.59.347,Surprise recog test,2023.1.3,59.95520149526926,
151,0,151,0,,,,,,,,,,,,,,,,,,,,,,,,,,,,,,,,,,606.6422233001795,607.664123600116,605.3626898999792,605.3626898999792,605.3626898999792,605.3626898999792,old_stationery_34.png,152,3.0,1.2785098000895232,,,003,0,2024-07-26_18h05.59.347,Surprise recog test,2023.1.3,59.95520149526926,
152,0,152,0,,,,,,,,,,,,,,,,,,,,,,,,,,,,,,,,,,608.4514317000285,609.4626186999958,607.664123600116,607.664123600116,607.664123600116,607.664123600116,old_sceneOut_41.png,153,3.0,0.7875930001027882,,,003,0,2024-07-26_18h05.59.347,Surprise recog test,2023.1.3,59.95520149526926,
153,0,153,0,,,,,,,,,,,,,,,,,,,,,,,,,,,,,,,,,,610.7116400001105,611.7286684999708,609.4626186999958,609.4626186999958,609.4626186999958,609.4626186999958,old_sceneOut_18.png,154,4.0,1.2447657000739127,,,003,0,2024-07-26_18h05.59.347,Surprise recog test,2023.1.3,59.95520149526926,
154,0,154,0,,,,,,,,,,,,,,,,,,,,,,,,,,,,,,,,,,614.1628139000386,,611.7286684999708,611.7286684999708,611.7286684999708,611.7286684999708,old_fruit_14.png,155,3.0,2.4288198000285774,,,003,0,2024-07-26_18h05.59.347,Surprise recog test,2023.1.3,59.95520149526926,
155,0,155,0,,,,,,,,,,,,,,,,,,,,,,,,,,,,,,,,,,616.5702349001076,617.5832911001053,615.1909684999846,615.1909684999846,615.1909684999846,615.1909684999846,new_sceneIn_36.png,156,3.0,1.3788218998815864,,,003,0,2024-07-26_18h05.59.347,Surprise recog test,2023.1.3,59.95520149526926,
156,0,156,0,,,,,,,,,,,,,,,,,,,,,,,,,,,,,,,,,,618.6128308000043,619.6193015000317,617.5832911001053,617.5832911001053,617.5832911001053,617.5832911001053,old_fruit_13.png,157,3.0,1.020162699976936,,,003,0,2024-07-26_18h05.59.347,Surprise recog test,2023.1.3,59.95520149526926,
157,0,157,0,,,,,,,,,,,,,,,,,,,,,,,,,,,,,,,,,,620.4310495001264,621.4373759999871,619.6193015000317,619.6193015000317,619.6193015000317,619.6193015000317,new_sceneIn_7.png,158,3.0,0.8031425001099706,,,003,0,2024-07-26_18h05.59.347,Surprise recog test,2023.1.3,59.95520149526926,
158,0,158,0,,,,,,,,,,,,,,,,,,,,,,,,,,,,,,,,,,622.1157637999859,623.1211175001226,621.4373759999871,621.4373759999871,621.4373759999871,621.4373759999871,old_sceneOut_31.png,159,3.0,0.6701253999490291,,,003,0,2024-07-26_18h05.59.347,Surprise recog test,2023.1.3,59.95520149526926,
159,0,159,0,,,,,,,,,,,,,,,,,,,,,,,,,,,,,,,,,,624.1174034001306,625.1391933001578,623.1211175001226,623.1211175001226,623.1211175001226,623.1211175001226,new_stationery_15.png,160,3.0,0.9879399999044836,,,003,0,2024-07-26_18h05.59.347,Surprise recog test,2023.1.3,59.95520149526926,
160,0,160,0,,,,,,,,,,,,,,,,,,,,,,,,,,,,,,,,,,625.75103699998,626.7575032000896,625.1391933001578,625.1391933001578,625.1391933001578,625.1391933001578,old_sceneIn_13.png,161,3.0,0.6125328000634909,,,003,0,2024-07-26_18h05.59.347,Surprise recog test,2023.1.3,59.95520149526926,
161,0,161,0,,,,,,,,,,,,,,,,,,,,,,,,,,,,,,,,,,627.3071525001433,,626.7575032000896,626.7575032000896,626.7575032000896,626.7575032000896,old_sceneOut_47.png,162,3.0,0.5467020999640226,,,003,0,2024-07-26_18h05.59.347,Surprise recog test,2023.1.3,59.95520149526926,
162,0,162,0,,,,,,,,,,,,,,,,,,,,,,,,,,,,,,,,,,629.1132782001514,630.1498004000168,628.3336291001178,628.3336291001178,628.3336291001178,628.3336291001178,old_stationery_41.png,163,3.0,0.7743255000095814,,,003,0,2024-07-26_18h05.59.347,Surprise recog test,2023.1.3,59.95520149526926,
163,0,163,0,,,,,,,,,,,,,,,,,,,,,,,,,,,,,,,,,,633.3163293001708,634.3410555000883,630.1498004000168,630.1498004000168,630.1498004000168,630.1498004000168,old_sceneIn_27.png,164,3.0,3.1686177998781204,,,003,0,2024-07-26_18h05.59.347,Surprise recog test,2023.1.3,59.95520149526926,
164,0,164,0,,,,,,,,,,,,,,,,,,,,,,,,,,,,,,,,,,639.3398991001304,,634.3410555000883,634.3410555000883,634.3410555000883,634.3410555000883,new_fruit_15.png,165,None,None,639.3265254001599,,003,0,2024-07-26_18h05.59.347,Surprise recog test,2023.1.3,59.95520149526926,
165,0,165,0,,,,,,,,,,,,,,,,,,,,,,,,,,,,,,,,,,641.9461978001054,642.9690910000354,640.3378677000292,640.3378677000292,640.3378677000292,640.3378677000292,new_sceneOut_19.png,166,4.0,1.6035242001526058,,,003,0,2024-07-26_18h05.59.347,Surprise recog test,2023.1.3,59.95520149526926,
166,0,166,0,,,,,,,,,,,,,,,,,,,,,,,,,,,,,,,,,,646.8088967001531,647.8272710000165,642.9690910000354,642.9690910000354,642.9690910000354,642.9690910000354,new_stationery_25.png,167,4.0,3.8427511998452246,,,003,0,2024-07-26_18h05.59.347,Surprise recog test,2023.1.3,59.95520149526926,
167,0,167,0,,,,,,,,,,,,,,,,,,,,,,,,,,,,,,,,,,652.4196587000042,653.4403896001168,647.8272710000165,647.8272710000165,647.8272710000165,647.8272710000165,new_stationery_26.png,168,3.0,4.58652519993484,,,003,0,2024-07-26_18h05.59.347,Surprise recog test,2023.1.3,59.95520149526926,
168,0,168,0,,,,,,,,,,,,,,,,,,,,,,,,,,,,,,,,,,654.6389673000667,655.6632034999784,653.4403896001168,653.4403896001168,653.4403896001168,653.4403896001168,old_fruit_21.png,169,3.0,1.1992093999870121,,,003,0,2024-07-26_18h05.59.347,Surprise recog test,2023.1.3,59.95520149526926,
169,0,169,0,,,,,,,,,,,,,,,,,,,,,,,,,,,,,,,,,,657.0325160000939,658.0531625000294,655.6632034999784,655.6632034999784,655.6632034999784,655.6632034999784,old_fruit_41.png,170,3.0,1.3722298999782652,,,003,0,2024-07-26_18h05.59.347,Surprise recog test,2023.1.3,59.95520149526926,
170,0,170,0,,,,,,,,,,,,,,,,,,,,,,,,,,,,,,,,,,659.3995648999698,,658.0531625000294,658.0531625000294,658.0531625000294,658.0531625000294,old_stationery_3.png,171,3.0,1.3406351001467556,,,003,0,2024-07-26_18h05.59.347,Surprise recog test,2023.1.3,59.95520149526926,
171,0,171,0,,,,,,,,,,,,,,,,,,,,,,,,,,,,,,,,,,662.2447387001012,663.2690636999905,660.424593300093,660.424593300093,660.424593300093,660.424593300093,old_sceneIn_43.png,172,4.0,1.8196219999808818,,,003,0,2024-07-26_18h05.59.347,Surprise recog test,2023.1.3,59.95520149526926,
172,0,172,0,,,,,,,,,,,,,,,,,,,,,,,,,,,,,,,,,,664.808505400084,665.8396654999815,663.2690636999905,663.2690636999905,663.2690636999905,663.2690636999905,old_fruit_48.png,173,2.0,1.5406794000882655,,,003,0,2024-07-26_18h05.59.347,Surprise recog test,2023.1.3,59.95520149526926,
173,0,173,0,,,,,,,,,,,,,,,,,,,,,,,,,,,,,,,,,,669.6526363000739,670.6739635001868,665.8396654999815,665.8396654999815,665.8396654999815,665.8396654999815,new_sceneIn_45.png,174,3.0,3.8157114998903126,,,003,0,2024-07-26_18h05.59.347,Surprise recog test,2023.1.3,59.95520149526926,
174,0,174,0,,,,,,,,,,,,,,,,,,,,,,,,,,,,,,,,,,671.881737299962,672.8950790001545,670.6739635001868,670.6739635001868,670.6739635001868,670.6739635001868,old_sceneOut_43.png,175,4.0,1.211660100147128,,,003,0,2024-07-26_18h05.59.347,Surprise recog test,2023.1.3,59.95520149526926,
175,0,175,0,,,,,,,,,,,,,,,,,,,,,,,,,,,,,,,,,,674.0382870000321,675.0706722000614,672.8950790001545,672.8950790001545,672.8950790001545,672.8950790001545,old_stationery_28.png,176,2.0,1.1375720999203622,,,003,0,2024-07-26_18h05.59.347,Surprise recog test,2023.1.3,59.95520149526926,
176,0,176,0,,,,,,,,,,,,,,,,,,,,,,,,,,,,,,,,,,677.2721522999927,678.2974201999605,675.0706722000614,675.0706722000614,675.0706722000614,675.0706722000614,new_sceneIn_39.png,177,4.0,2.204218399943784,,,003,0,2024-07-26_18h05.59.347,Surprise recog test,2023.1.3,59.95520149526926,
177,0,177,0,,,,,,,,,,,,,,,,,,,,,,,,,,,,,,,,,,679.58015970001,680.6037577001844,678.2974201999605,678.2974201999605,678.2974201999605,678.2974201999605,old_sceneOut_5.png,178,4.0,1.2847913999576122,,,003,0,2024-07-26_18h05.59.347,Surprise recog test,2023.1.3,59.95520149526926,
178,0,178,0,,,,,,,,,,,,,,,,,,,,,,,,,,,,,,,,,,681.7674508001655,682.7861876001116,680.6037577001844,680.6037577001844,680.6037577001844,680.6037577001844,old_fruit_12.png,179,3.0,1.16623630002141,,,003,0,2024-07-26_18h05.59.347,Surprise recog test,2023.1.3,59.95520149526926,
179,0,179,0,,,,,,,,,,,,,,,,,,,,,,,,,,,,,,,,,,684.005187400151,,682.7861876001116,682.7861876001116,682.7861876001116,682.7861876001116,new_stationery_12.png,180,3.0,1.2202573001850396,,,003,0,2024-07-26_18h05.59.347,Surprise recog test,2023.1.3,59.95520149526926,
180,0,180,0,,,,,,,,,,,,,,,,,,,,,,,,,,,,,,,,,,686.1905482001603,687.2216106001288,685.036769800121,685.036769800121,685.036769800121,685.036769800121,old_sceneIn_29.png,181,4.0,1.1563768000341952,,,003,0,2024-07-26_18h05.59.347,Surprise recog test,2023.1.3,59.95520149526926,
181,0,181,0,,,,,,,,,,,,,,,,,,,,,,,,,,,,,,,,,,688.312185900053,689.3420914001763,687.2216106001288,687.2216106001288,687.2216106001288,687.2216106001288,old_fruit_17.png,182,3.0,1.089572299970314,,,003,0,2024-07-26_18h05.59.347,Surprise recog test,2023.1.3,59.95520149526926,
182,0,182,0,,,,,,,,,,,,,,,,,,,,,,,,,,,,,,,,,,690.9612410999835,691.9960318000522,689.3420914001763,689.3420914001763,689.3420914001763,689.3420914001763,new_sceneOut_1.png,183,4.0,1.620680500054732,,,003,0,2024-07-26_18h05.59.347,Surprise recog test,2023.1.3,59.95520149526926,
183,0,183,0,,,,,,,,,,,,,,,,,,,,,,,,,,,,,,,,,,693.208682600176,694.235252500046,691.9960318000522,691.9960318000522,691.9960318000522,691.9960318000522,old_stationery_31.png,184,3.0,1.2158415000885725,,,003,0,2024-07-26_18h05.59.347,Surprise recog test,2023.1.3,59.95520149526926,
184,0,184,0,,,,,,,,,,,,,,,,,,,,,,,,,,,,,,,,,,695.1606597001664,696.1792533001862,694.235252500046,694.235252500046,694.235252500046,694.235252500046,old_fruit_19.png,185,3.0,0.9299186998978257,,,003,0,2024-07-26_18h05.59.347,Surprise recog test,2023.1.3,59.95520149526926,
185,0,185,0,,,,,,,,,,,,,,,,,,,,,,,,,,,,,,,,,,697.0769082000479,698.1010098999832,696.1792533001862,696.1792533001862,696.1792533001862,696.1792533001862,new_fruit_33.png,186,3.0,0.8985587002243847,,,003,0,2024-07-26_18h05.59.347,Surprise recog test,2023.1.3,59.95520149526926,
186,0,186,0,,,,,,,,,,,,,,,,,,,,,,,,,,,,,,,,,,699.9015488000587,700.9286684000399,698.1010098999832,698.1010098999832,698.1010098999832,698.1010098999832,new_fruit_13.png,187,3.0,1.802847099956125,,,003,0,2024-07-26_18h05.59.347,Surprise recog test,2023.1.3,59.95520149526926,
187,0,187,0,,,,,,,,,,,,,,,,,,,,,,,,,,,,,,,,,,702.861707800068,703.886181200156,700.9286684000399,700.9286684000399,700.9286684000399,700.9286684000399,new_sceneIn_44.png,188,4.0,1.9347064001485705,,,003,0,2024-07-26_18h05.59.347,Surprise recog test,2023.1.3,59.95520149526926,
188,0,188,0,,,,,,,,,,,,,,,,,,,,,,,,,,,,,,,,,,705.9770061001182,707.0068608000875,703.886181200156,703.886181200156,703.886181200156,703.886181200156,new_fruit_12.png,189,4.0,2.092923999996856,,,003,0,2024-07-26_18h05.59.347,Surprise recog test,2023.1.3,59.95520149526926,
189,0,189,0,,,,,,,,,,,,,,,,,,,,,,,,,,,,,,,,,,709.8695771000348,710.8874006001279,707.0068608000875,707.0068608000875,707.0068608000875,707.0068608000875,new_sceneOut_17.png,190,4.0,2.8620774999726564,,,003,0,2024-07-26_18h05.59.347,Surprise recog test,2023.1.3,59.95520149526926,
190,0,190,0,,,,,,,,,,,,,,,,,,,,,,,,,,,,,,,,,,715.3343354000244,716.3645823001862,710.8874006001279,710.8874006001279,710.8874006001279,710.8874006001279,new_sceneOut_48.png,191,4.0,4.445646000094712,,,003,0,2024-07-26_18h05.59.347,Surprise recog test,2023.1.3,59.95520149526926,
191,0,191,0,,,,,,,,,,,,,,,,,,,,,,,,,,,,,,,,,,718.206754000159,719.2214151001535,716.3645823001862,716.3645823001862,716.3645823001862,716.3645823001862,new_sceneOut_2.png,192,4.0,1.8448771999683231,,,003,0,2024-07-26_18h05.59.347,Surprise recog test,2023.1.3,59.95520149526926,
192,0,192,0,,,,,,,,,,,,,,,,,,,,,,,,,,,,,,,,,,721.0706601000857,722.0901804000605,719.2214151001535,719.2214151001535,719.2214151001535,719.2214151001535,old_fruit_49.png,193,3.0,1.8441170000005513,,,003,0,2024-07-26_18h05.59.347,Surprise recog test,2023.1.3,59.95520149526926,
193,0,193,0,,,,,,,,,,,,,,,,,,,,,,,,,,,,,,,,,,723.1173507999629,724.1320659001358,722.0901804000605,722.0901804000605,722.0901804000605,722.0901804000605,new_fruit_8.png,194,3.0,1.0220743000973016,,,003,0,2024-07-26_18h05.59.347,Surprise recog test,2023.1.3,59.95520149526926,
194,0,194,0,,,,,,,,,,,,,,,,,,,,,,,,,,,,,,,,,,725.4152311000507,726.439607599983,724.1320659001358,724.1320659001358,724.1320659001358,724.1320659001358,new_fruit_43.png,195,3.0,1.2854710000101477,,,003,0,2024-07-26_18h05.59.347,Surprise recog test,2023.1.3,59.95520149526926,
195,0,195,0,,,,,,,,,,,,,,,,,,,,,,,,,,,,,,,,,,728.5513790000696,729.5746484000701,726.439607599983,726.439607599983,726.439607599983,726.439607599983,new_fruit_30.png,196,3.0,2.1114725000225008,,,003,0,2024-07-26_18h05.59.347,Surprise recog test,2023.1.3,59.95520149526926,
196,0,196,0,,,,,,,,,,,,,,,,,,,,,,,,,,,,,,,,,,731.9680860000663,732.982395300176,729.5746484000701,729.5746484000701,729.5746484000701,729.5746484000701,new_fruit_20.png,197,3.0,2.3952303999103606,,,003,0,2024-07-26_18h05.59.347,Surprise recog test,2023.1.3,59.95520149526926,
197,0,197,0,,,,,,,,,,,,,,,,,,,,,,,,,,,,,,,,,,734.192817500094,735.2144911000505,732.982395300176,732.982395300176,732.982395300176,732.982395300176,old_sceneOut_12.png,198,4.0,1.2055001999251544,,,003,0,2024-07-26_18h05.59.347,Surprise recog test,2023.1.3,59.95520149526926,
198,0,198,0,,,,,,,,,,,,,,,,,,,,,,,,,,,,,,,,,,736.3483537000138,,735.2144911000505,735.2144911000505,735.2144911000505,735.2144911000505,new_fruit_2.png,199,3.0,1.1352903998922557,,,003,0,2024-07-26_18h05.59.347,Surprise recog test,2023.1.3,59.95520149526926,
199,0,199,0,,,,,,,,,,,,,,,,,,,,,,,,,,,,,,,,,,739.2192387999967,740.2477561000269,737.3676573000848,737.3676573000848,737.3676573000848,737.3676573000848,old_sceneOut_30.png,200,4.0,1.846964799799025,,,003,0,2024-07-26_18h05.59.347,Surprise recog test,2023.1.3,59.95520149526926,
200,0,200,0,,,,,,,,,,,,,,,,,,,,,,,,,,,,,,,,,,741.3835734999739,,740.2477561000269,740.2477561000269,740.2477561000269,740.2477561000269,old_stationery_18.png,201,3.0,1.1350742999929935,,,003,0,2024-07-26_18h05.59.347,Surprise recog test,2023.1.3,59.95520149526926,
201,0,201,0,,,,,,,,,,,,,,,,,,,,,,,,,,,,,,,,,,743.217779800063,744.224453400122,742.4058758001775,742.4058758001775,742.4058758001775,742.4058758001775,old_fruit_20.png,202,3.0,0.8069043001160026,,,003,0,2024-07-26_18h05.59.347,Surprise recog test,2023.1.3,59.95520149526926,
202,0,202,0,,,,,,,,,,,,,,,,,,,,,,,,,,,,,,,,,,745.6062372999731,,744.224453400122,744.224453400122,744.224453400122,744.224453400122,old_stationery_22.png,203,4.0,1.3775565999094397,,,003,0,2024-07-26_18h05.59.347,Surprise recog test,2023.1.3,59.95520149526926,
203,0,203,0,,,,,,,,,,,,,,,,,,,,,,,,,,,,,,,,,,749.0048554001842,750.0129702000413,746.627855699975,746.627855699975,746.627855699975,746.627855699975,old_sceneIn_16.png,204,4.0,2.3744864999316633,,,003,0,2024-07-26_18h05.59.347,Surprise recog test,2023.1.3,59.95520149526926,
204,0,204,0,,,,,,,,,,,,,,,,,,,,,,,,,,,,,,,,,,752.0738582001068,753.0823634001426,750.0129702000413,750.0129702000413,750.0129702000413,750.0129702000413,new_sceneOut_13.png,205,4.0,2.0511878998950124,,,003,0,2024-07-26_18h05.59.347,Surprise recog test,2023.1.3,59.95520149526926,
205,0,205,0,,,,,,,,,,,,,,,,,,,,,,,,,,,,,,,,,,754.0795640000142,,753.0823634001426,753.0823634001426,753.0823634001426,753.0823634001426,old_sceneOut_2.png,206,4.0,0.9934213000815362,,,003,0,2024-07-26_18h05.59.347,Surprise recog test,2023.1.3,59.95520149526926,
206,0,206,0,,,,,,,,,,,,,,,,,,,,,,,,,,,,,,,,,,756.4767565999646,757.4857344999909,755.1118702001404,755.1118702001404,755.1118702001404,755.1118702001404,new_fruit_36.png,207,2.0,1.3669215999543667,,,003,0,2024-07-26_18h05.59.347,Surprise recog test,2023.1.3,59.95520149526926,
207,0,207,0,,,,,,,,,,,,,,,,,,,,,,,,,,,,,,,,,,758.473966400139,759.4992297000717,757.4857344999909,757.4857344999909,757.4857344999909,757.4857344999909,old_sceneOut_13.png,208,3.0,0.9841642000246793,,,003,0,2024-07-26_18h05.59.347,Surprise recog test,2023.1.3,59.95520149526926,
208,0,208,0,,,,,,,,,,,,,,,,,,,,,,,,,,,,,,,,,,760.7557828000281,761.7803464999888,759.4992297000717,759.4992297000717,759.4992297000717,759.4992297000717,new_fruit_17.png,209,2.0,1.258923500077799,,,003,0,2024-07-26_18h05.59.347,Surprise recog test,2023.1.3,59.95520149526926,
209,0,209,0,,,,,,,,,,,,,,,,,,,,,,,,,,,,,,,,,,763.0094600000884,764.0376399001107,761.7803464999888,761.7803464999888,761.7803464999888,761.7803464999888,old_sceneIn_12.png,210,4.0,1.230474399868399,,,003,0,2024-07-26_18h05.59.347,Surprise recog test,2023.1.3,59.95520149526926,
210,0,210,0,,,,,,,,,,,,,,,,,,,,,,,,,,,,,,,,,,765.1170346001163,766.1396257001907,764.0376399001107,764.0376399001107,764.0376399001107,764.0376399001107,new_fruit_21.png,211,2.0,1.0813547999132425,,,003,0,2024-07-26_18h05.59.347,Surprise recog test,2023.1.3,59.95520149526926,
211,0,211,0,,,,,,,,,,,,,,,,,,,,,,,,,,,,,,,,,,768.5890864001121,769.6092171000782,766.1396257001907,766.1396257001907,766.1396257001907,766.1396257001907,new_sceneOut_45.png,212,4.0,2.4503608997911215,,,003,0,2024-07-26_18h05.59.347,Surprise recog test,2023.1.3,59.95520149526926,
212,0,212,0,,,,,,,,,,,,,,,,,,,,,,,,,,,,,,,,,,770.7808966999874,771.7993829001207,769.6092171000782,769.6092171000782,769.6092171000782,769.6092171000782,old_sceneIn_31.png,213,4.0,1.172543200198561,,,003,0,2024-07-26_18h05.59.347,Surprise recog test,2023.1.3,59.95520149526926,
213,0,213,0,,,,,,,,,,,,,,,,,,,,,,,,,,,,,,,,,,772.8919795001857,773.8991350000724,771.7993829001207,771.7993829001207,771.7993829001207,771.7993829001207,old_sceneIn_24.png,214,4.0,1.0863443000707775,,,003,0,2024-07-26_18h05.59.347,Surprise recog test,2023.1.3,59.95520149526926,
214,0,214,0,,,,,,,,,,,,,,,,,,,,,,,,,,,,,,,,,,776.6784332001116,777.7009732001461,773.8991350000724,773.8991350000724,773.8991350000724,773.8991350000724,new_sceneIn_27.png,215,4.0,2.772722100140527,,,003,0,2024-07-26_18h05.59.347,Surprise recog test,2023.1.3,59.95520149526926,
215,0,215,0,,,,,,,,,,,,,,,,,,,,,,,,,,,,,,,,,,778.7490940000862,,777.7009732001461,777.7009732001461,777.7009732001461,777.7009732001461,old_fruit_30.png,216,3.0,1.0525542998220772,,,003,0,2024-07-26_18h05.59.347,Surprise recog test,2023.1.3,59.95520149526926,
216,0,216,0,,,,,,,,,,,,,,,,,,,,,,,,,,,,,,,,,,781.2742588999681,782.303744800156,779.785922100069,779.785922100069,779.785922100069,779.785922100069,old_sceneIn_1.png,217,4.0,1.4911700000520796,,,003,0,2024-07-26_18h05.59.347,Surprise recog test,2023.1.3,59.95520149526926,
217,0,217,0,,,,,,,,,,,,,,,,,,,,,,,,,,,,,,,,,,783.420956700109,,782.303744800156,782.303744800156,782.303744800156,782.303744800156,new_fruit_19.png,218,2.0,1.120526900049299,,,003,0,2024-07-26_18h05.59.347,Surprise recog test,2023.1.3,59.95520149526926,
218,0,218,0,,,,,,,,,,,,,,,,,,,,,,,,,,,,,,,,,,785.6016918001696,786.6223576001357,784.4541621000972,784.4541621000972,784.4541621000972,784.4541621000972,old_sceneOut_21.png,219,4.0,1.1451759999617934,,,003,0,2024-07-26_18h05.59.347,Surprise recog test,2023.1.3,59.95520149526926,
219,0,219,0,,,,,,,,,,,,,,,,,,,,,,,,,,,,,,,,,,788.2390499999747,789.2587196000386,786.6223576001357,786.6223576001357,786.6223576001357,786.6223576001357,old_stationery_49.png,220,3.0,1.616195400012657,,,003,0,2024-07-26_18h05.59.347,Surprise recog test,2023.1.3,59.95520149526926,
220,0,220,0,,,,,,,,,,,,,,,,,,,,,,,,,,,,,,,,,,791.8676116999704,792.8818378001451,789.2587196000386,789.2587196000386,789.2587196000386,789.2587196000386,old_stationery_19.png,221,3.0,2.611322399927303,,,003,0,2024-07-26_18h05.59.347,Surprise recog test,2023.1.3,59.95520149526926,
221,0,221,0,,,,,,,,,,,,,,,,,,,,,,,,,,,,,,,,,,794.3276307999622,,792.8818378001451,792.8818378001451,792.8818378001451,792.8818378001451,new_stationery_28.png,222,2.0,1.4394466001540422,,,003,0,2024-07-26_18h05.59.347,Surprise recog test,2023.1.3,59.95520149526926,
222,0,222,0,,,,,,,,,,,,,,,,,,,,,,,,,,,,,,,,,,796.7140930001624,,795.3621851999778,795.3621851999778,795.3621851999778,795.3621851999778,old_stationery_4.png,223,3.0,1.3520873000379652,,,003,0,2024-07-26_18h05.59.347,Surprise recog test,2023.1.3,59.95520149526926,
223,0,223,0,,,,,,,,,,,,,,,,,,,,,,,,,,,,,,,,,,799.3337789000943,,797.7482794001698,797.7482794001698,797.7482794001698,797.7482794001698,new_stationery_35.png,224,3.0,1.5883625000715256,,,003,0,2024-07-26_18h05.59.347,Surprise recog test,2023.1.3,59.95520149526926,
224,0,224,0,,,,,,,,,,,,,,,,,,,,,,,,,,,,,,,,,,802.1132106999867,803.1240698001347,800.3540046999697,800.3540046999697,800.3540046999697,800.3540046999697,new_fruit_45.png,225,4.0,1.753713599871844,,,003,0,2024-07-26_18h05.59.347,Surprise recog test,2023.1.3,59.95520149526926,
225,0,225,0,,,,,,,,,,,,,,,,,,,,,,,,,,,,,,,,,,804.246737500187,805.2725041001104,803.1240698001347,803.1240698001347,803.1240698001347,803.1240698001347,new_stationery_48.png,226,4.0,1.1186659999657422,,,003,0,2024-07-26_18h05.59.347,Surprise recog test,2023.1.3,59.95520149526926,
226,0,226,0,,,,,,,,,,,,,,,,,,,,,,,,,,,,,,,,,,806.9904176001437,,805.2725041001104,805.2725041001104,805.2725041001104,805.2725041001104,old_sceneIn_32.png,227,4.0,1.7189527000300586,,,003,0,2024-07-26_18h05.59.347,Surprise recog test,2023.1.3,59.95520149526926,
227,0,227,0,,,,,,,,,,,,,,,,,,,,,,,,,,,,,,,,,,809.0666453000158,810.0802514001261,808.009599900106,808.009599900106,808.009599900106,808.009599900106,old_fruit_32.png,228,3.0,1.053192500025034,,,003,0,2024-07-26_18h05.59.347,Surprise recog test,2023.1.3,59.95520149526926,
228,0,228,0,,,,,,,,,,,,,,,,,,,,,,,,,,,,,,,,,,811.0345375000034,812.0480157001875,810.0802514001261,810.0802514001261,810.0802514001261,810.0802514001261,new_fruit_1.png,229,3.0,0.950484000146389,,,003,0,2024-07-26_18h05.59.347,Surprise recog test,2023.1.3,59.95520149526926,
229,0,229,0,,,,,,,,,,,,,,,,,,,,,,,,,,,,,,,,,,813.0213451001327,814.0322621001396,812.0480157001875,812.0480157001875,812.0480157001875,812.0480157001875,new_sceneIn_32.png,230,4.0,0.9675662000663579,,,003,0,2024-07-26_18h05.59.347,Surprise recog test,2023.1.3,59.95520149526926,
230,0,230,0,,,,,,,,,,,,,,,,,,,,,,,,,,,,,,,,,,814.9838463000488,816.0072745999787,814.0322621001396,814.0322621001396,814.0322621001396,814.0322621001396,new_sceneIn_6.png,231,4.0,0.9473790999036282,,,003,0,2024-07-26_18h05.59.347,Surprise recog test,2023.1.3,59.95520149526926,
231,0,231,0,,,,,,,,,,,,,,,,,,,,,,,,,,,,,,,,,,818.0117830999661,819.0316926001105,816.0072745999787,816.0072745999787,816.0072745999787,816.0072745999787,new_stationery_17.png,232,3.0,2.0002983000595123,,,003,0,2024-07-26_18h05.59.347,Surprise recog test,2023.1.3,59.95520149526926,
232,0,232,0,,,,,,,,,,,,,,,,,,,,,,,,,,,,,,,,,,820.4794694001321,821.5043369999621,819.0316926001105,819.0316926001105,819.0316926001105,819.0316926001105,old_stationery_8.png,233,3.0,1.446769299916923,,,003,0,2024-07-26_18h05.59.347,Surprise recog test,2023.1.3,59.95520149526926,
233,0,233,0,,,,,,,,,,,,,,,,,,,,,,,,,,,,,,,,,,822.3487953001168,823.3690065001138,821.5043369999621,821.5043369999621,821.5043369999621,821.5043369999621,new_fruit_27.png,234,3.0,0.8437263001687825,,,003,0,2024-07-26_18h05.59.347,Surprise recog test,2023.1.3,59.95520149526926,
234,0,234,0,,,,,,,,,,,,,,,,,,,,,,,,,,,,,,,,,,824.2782460001763,825.2922002000269,823.3690065001138,823.3690065001138,823.3690065001138,823.3690065001138,new_fruit_38.png,235,3.0,0.9115216000936925,,,003,0,2024-07-26_18h05.59.347,Surprise recog test,2023.1.3,59.95520149526926,
235,0,235,0,,,,,,,,,,,,,,,,,,,,,,,,,,,,,,,,,,826.8525807000697,827.8607691000216,825.2922002000269,825.2922002000269,825.2922002000269,825.2922002000269,old_sceneOut_9.png,236,4.0,1.5505651999264956,,,003,0,2024-07-26_18h05.59.347,Surprise recog test,2023.1.3,59.95520149526926,
236,0,236,0,,,,,,,,,,,,,,,,,,,,,,,,,,,,,,,,,,828.8646472000983,829.890738800168,827.8607691000216,827.8607691000216,827.8607691000216,827.8607691000216,old_sceneIn_2.png,237,4.0,0.9999943999573588,,,003,0,2024-07-26_18h05.59.347,Surprise recog test,2023.1.3,59.95520149526926,
237,0,237,0,,,,,,,,,,,,,,,,,,,,,,,,,,,,,,,,,,830.9402189999819,831.9530150999781,829.890738800168,829.890738800168,829.890738800168,829.890738800168,new_sceneIn_29.png,238,4.0,1.0510414000600576,,,003,0,2024-07-26_18h05.59.347,Surprise recog test,2023.1.3,59.95520149526926,
238,0,238,0,,,,,,,,,,,,,,,,,,,,,,,,,,,,,,,,,,833.8530755999964,834.8671632001642,831.9530150999781,831.9530150999781,831.9530150999781,831.9530150999781,old_stationery_23.png,239,4.0,1.896296399878338,,,003,0,2024-07-26_18h05.59.347,Surprise recog test,2023.1.3,59.95520149526926,
239,0,239,0,,,,,,,,,,,,,,,,,,,,,,,,,,,,,,,,,,835.773437900003,836.7849803001154,834.8671632001642,834.8671632001642,834.8671632001642,834.8671632001642,old_sceneOut_34.png,240,4.0,0.9020419998560101,,,003,0,2024-07-26_18h05.59.347,Surprise recog test,2023.1.3,59.95520149526926,
240,0,240,0,,,,,,,,,,,,,,,,,,,,,,,,,,,,,,,,,,837.6448608001228,838.6516452999786,836.7849803001154,836.7849803001154,836.7849803001154,836.7849803001154,new_sceneOut_14.png,241,4.0,0.8546677001286298,,,003,0,2024-07-26_18h05.59.347,Surprise recog test,2023.1.3,59.95520149526926,
241,0,241,0,,,,,,,,,,,,,,,,,,,,,,,,,,,,,,,,,,840.1382083001081,841.1731116001029,838.6516452999786,838.6516452999786,838.6516452999786,838.6516452999786,old_stationery_33.png,242,3.0,1.4812786001712084,,,003,0,2024-07-26_18h05.59.347,Surprise recog test,2023.1.3,59.95520149526926,
242,0,242,0,,,,,,,,,,,,,,,,,,,,,,,,,,,,,,,,,,843.4527298000176,,841.1731116001029,841.1731116001029,841.1731116001029,841.1731116001029,old_fruit_42.png,243,4.0,2.2802213998511434,,,003,0,2024-07-26_18h05.59.347,Surprise recog test,2023.1.3,59.95520149526926,
243,0,243,0,,,,,,,,,,,,,,,,,,,,,,,,,,,,,,,,,,845.801831800025,846.8215387000237,844.4719639001414,844.4719639001414,844.4719639001414,844.4719639001414,new_sceneIn_17.png,244,4.0,1.325003799982369,,,003,0,2024-07-26_18h05.59.347,Surprise recog test,2023.1.3,59.95520149526926,
244,0,244,0,,,,,,,,,,,,,,,,,,,,,,,,,,,,,,,,,,848.3204417000525,849.3294989001006,846.8215387000237,846.8215387000237,846.8215387000237,846.8215387000237,new_sceneIn_9.png,245,5.0,1.4941964000463486,,,003,0,2024-07-26_18h05.59.347,Surprise recog test,2023.1.3,59.95520149526926,
245,0,245,0,,,,,,,,,,,,,,,,,,,,,,,,,,,,,,,,,,851.1441365999635,852.1676676000934,849.3294989001006,849.3294989001006,849.3294989001006,849.3294989001006,old_fruit_1.png,246,5.0,1.810697800014168,,,003,0,2024-07-26_18h05.59.347,Surprise recog test,2023.1.3,59.95520149526926,
246,0,246,0,,,,,,,,,,,,,,,,,,,,,,,,,,,,,,,,,,853.5867071000393,854.6165544001851,852.1676676000934,852.1676676000934,852.1676676000934,852.1676676000934,new_sceneOut_5.png,247,4.0,1.4190632998943329,,,003,0,2024-07-26_18h05.59.347,Surprise recog test,2023.1.3,59.95520149526926,
247,0,247,0,,,,,,,,,,,,,,,,,,,,,,,,,,,,,,,,,,855.7302210000344,,854.6165544001851,854.6165544001851,854.6165544001851,854.6165544001851,old_sceneOut_14.png,248,4.0,1.1160273000132293,,,003,0,2024-07-26_18h05.59.347,Surprise recog test,2023.1.3,59.95520149526926,
248,0,248,0,,,,,,,,,,,,,,,,,,,,,,,,,,,,,,,,,,857.6639684999827,,856.761863199994,856.761863199994,856.761863199994,856.761863199994,old_sceneIn_20.png,249,4.0,0.9020231999456882,,,003,0,2024-07-26_18h05.59.347,Surprise recog test,2023.1.3,59.95520149526926,
249,0,249,0,,,,,,,,,,,,,,,,,,,,,,,,,,,,,,,,,,860.2625255000312,861.2726702000946,858.6899007000029,858.6899007000029,858.6899007000029,858.6899007000029,new_stationery_5.png,250,3.0,1.5689674001187086,,,003,0,2024-07-26_18h05.59.347,Surprise recog test,2023.1.3,59.95520149526926,
250,0,250,0,,,,,,,,,,,,,,,,,,,,,,,,,,,,,,,,,,863.5163034000434,864.5397524000145,861.2726702000946,861.2726702000946,861.2726702000946,861.2726702000946,new_sceneIn_41.png,251,4.0,2.2334123000036925,,,003,0,2024-07-26_18h05.59.347,Surprise recog test,2023.1.3,59.95520149526926,
251,0,251,0,,,,,,,,,,,,,,,,,,,,,,,,,,,,,,,,,,866.4766971999779,867.5064344999846,864.5397524000145,864.5397524000145,864.5397524000145,864.5397524000145,new_stationery_45.png,252,3.0,1.9392681000754237,,,003,0,2024-07-26_18h05.59.347,Surprise recog test,2023.1.3,59.95520149526926,
252,0,252,0,,,,,,,,,,,,,,,,,,,,,,,,,,,,,,,,,,868.2015553000383,869.2185480000917,867.5064344999846,867.5064344999846,867.5064344999846,867.5064344999846,new_sceneIn_50.png,253,3.0,0.6987608999479562,,,003,0,2024-07-26_18h05.59.347,Surprise recog test,2023.1.3,59.95520149526926,
253,0,253,0,,,,,,,,,,,,,,,,,,,,,,,,,,,,,,,,,,871.9968616000842,873.0243671999779,869.2185480000917,869.2185480000917,869.2185480000917,869.2185480000917,new_stationery_40.png,254,5.0,2.779421800049022,,,003,0,2024-07-26_18h05.59.347,Surprise recog test,2023.1.3,59.95520149526926,
254,0,254,0,,,,,,,,,,,,,,,,,,,,,,,,,,,,,,,,,,873.7639119001105,874.7833287999965,873.0243671999779,873.0243671999779,873.0243671999779,873.0243671999779,new_sceneIn_2.png,255,5.0,0.739225700031966,,,003,0,2024-07-26_18h05.59.347,Surprise recog test,2023.1.3,59.95520149526926,
255,0,255,0,,,,,,,,,,,,,,,,,,,,,,,,,,,,,,,,,,876.3602104000747,877.370003900025,874.7833287999965,874.7833287999965,874.7833287999965,874.7833287999965,new_fruit_4.png,256,4.0,1.5663381998892874,,,003,0,2024-07-26_18h05.59.347,Surprise recog test,2023.1.3,59.95520149526926,
256,0,256,0,,,,,,,,,,,,,,,,,,,,,,,,,,,,,,,,,,878.7326026000082,,877.370003900025,877.370003900025,877.370003900025,877.370003900025,new_sceneOut_23.png,257,5.0,1.3606571001000702,,,003,0,2024-07-26_18h05.59.347,Surprise recog test,2023.1.3,59.95520149526926,
257,0,257,0,,,,,,,,,,,,,,,,,,,,,,,,,,,,,,,,,,880.6828193000983,,879.750650400063,879.750650400063,879.750650400063,879.750650400063,old_sceneOut_7.png,258,5.0,0.9281393000856042,,,003,0,2024-07-26_18h05.59.347,Surprise recog test,2023.1.3,59.95520149526926,
258,0,258,0,,,,,,,,,,,,,,,,,,,,,,,,,,,,,,,,,,884.8407246000133,885.8557103001513,881.716010000091,881.716010000091,881.716010000091,881.716010000091,old_stationery_15.png,259,5.0,3.126983700087294,,,003,0,2024-07-26_18h05.59.347,Surprise recog test,2023.1.3,59.95520149526926,
259,0,259,0,,,,,,,,,,,,,,,,,,,,,,,,,,,,,,,,,,887.0278443000279,888.0562656000257,885.8557103001513,885.8557103001513,885.8557103001513,885.8557103001513,new_sceneOut_27.png,260,5.0,1.1677930001169443,,,003,0,2024-07-26_18h05.59.347,Surprise recog test,2023.1.3,59.95520149526926,
260,0,260,0,,,,,,,,,,,,,,,,,,,,,,,,,,,,,,,,,,889.5379772000015,890.5592100999784,888.0562656000257,888.0562656000257,888.0562656000257,888.0562656000257,old_fruit_2.png,261,3.0,1.4774603000842035,,,003,0,2024-07-26_18h05.59.347,Surprise recog test,2023.1.3,59.95520149526926,
261,0,261,0,,,,,,,,,,,,,,,,,,,,,,,,,,,,,,,,,,892.6932081000414,,890.5592100999784,890.5592100999784,890.5592100999784,890.5592100999784,new_stationery_4.png,262,4.0,2.134956599911675,,,003,0,2024-07-26_18h05.59.347,Surprise recog test,2023.1.3,59.95520149526926,
262,0,262,0,,,,,,,,,,,,,,,,,,,,,,,,,,,,,,,,,,894.7255787001923,895.7339942001272,893.7144177001901,893.7144177001901,893.7144177001901,893.7144177001901,new_stationery_7.png,263,4.0,1.0018978000152856,,,003,0,2024-07-26_18h05.59.347,Surprise recog test,2023.1.3,59.95520149526926,
263,0,263,0,,,,,,,,,,,,,,,,,,,,,,,,,,,,,,,,,,897.674322700128,898.6890215000603,895.7339942001272,895.7339942001272,895.7339942001272,895.7339942001272,new_fruit_35.png,264,3.0,1.9359257000032812,,,003,0,2024-07-26_18h05.59.347,Surprise recog test,2023.1.3,59.95520149526926,
264,0,264,0,,,,,,,,,,,,,,,,,,,,,,,,,,,,,,,,,,901.2913131001405,902.3188458001241,898.6890215000603,898.6890215000603,898.6890215000603,898.6890215000603,new_sceneIn_37.png,265,4.0,2.5994947999715805,,,003,0,2024-07-26_18h05.59.347,Surprise recog test,2023.1.3,59.95520149526926,
265,0,265,0,,,,,,,,,,,,,,,,,,,,,,,,,,,,,,,,,,904.6610350001138,905.6853225000668,902.3188458001241,902.3188458001241,902.3188458001241,902.3188458001241,old_fruit_24.png,266,3.0,2.343075300101191,,,003,0,2024-07-26_18h05.59.347,Surprise recog test,2023.1.3,59.95520149526926,
266,0,266,0,,,,,,,,,,,,,,,,,,,,,,,,,,,,,,,,,,906.8395758001134,,905.6853225000668,905.6853225000668,905.6853225000668,905.6853225000668,new_sceneIn_48.png,267,4.0,1.1533921000082046,,,003,0,2024-07-26_18h05.59.347,Surprise recog test,2023.1.3,59.95520149526926,
267,0,267,0,,,,,,,,,,,,,,,,,,,,,,,,,,,,,,,,,,909.5184110000264,910.541965899989,907.87341260002,907.87341260002,907.87341260002,907.87341260002,new_stationery_37.png,268,4.0,1.647792899981141,,,003,0,2024-07-26_18h05.59.347,Surprise recog test,2023.1.3,59.95520149526926,
268,0,268,0,,,,,,,,,,,,,,,,,,,,,,,,,,,,,,,,,,911.688430899987,912.6981818000786,910.541965899989,910.541965899989,910.541965899989,910.541965899989,old_sceneIn_33.png,269,4.0,1.148958400124684,,,003,0,2024-07-26_18h05.59.347,Surprise recog test,2023.1.3,59.95520149526926,
269,0,269,0,,,,,,,,,,,,,,,,,,,,,,,,,,,,,,,,,,913.9211293000262,914.9328009001911,912.6981818000786,912.6981818000786,912.6981818000786,912.6981818000786,old_sceneOut_33.png,270,4.0,1.2157656999770552,,,003,0,2024-07-26_18h05.59.347,Surprise recog test,2023.1.3,59.95520149526926,
270,0,270,0,,,,,,,,,,,,,,,,,,,,,,,,,,,,,,,,,,916.0603923001327,917.0685539001133,914.9328009001911,914.9328009001911,914.9328009001911,914.9328009001911,new_sceneIn_43.png,271,4.0,1.120791699970141,,,003,0,2024-07-26_18h05.59.347,Surprise recog test,2023.1.3,59.95520149526926,
271,0,271,0,,,,,,,,,,,,,,,,,,,,,,,,,,,,,,,,,,917.7113544000313,918.7288393001072,917.0685539001133,917.0685539001133,917.0685539001133,917.0685539001133,old_sceneOut_40.png,272,4.0,0.6319299000315368,,,003,0,2024-07-26_18h05.59.347,Surprise recog test,2023.1.3,59.95520149526926,
272,0,272,0,,,,,,,,,,,,,,,,,,,,,,,,,,,,,,,,,,919.7599458000623,920.7679369000252,918.7288393001072,918.7288393001072,918.7288393001072,918.7288393001072,old_stationery_10.png,273,4.0,1.0336256001610309,,,003,0,2024-07-26_18h05.59.347,Surprise recog test,2023.1.3,59.95520149526926,
273,0,273,0,,,,,,,,,,,,,,,,,,,,,,,,,,,,,,,,,,922.198678100016,923.2181789001916,920.7679369000252,920.7679369000252,920.7679369000252,920.7679369000252,new_fruit_11.png,274,3.0,1.4247675999067724,,,003,0,2024-07-26_18h05.59.347,Surprise recog test,2023.1.3,59.95520149526926,
274,0,274,0,,,,,,,,,,,,,,,,,,,,,,,,,,,,,,,,,,925.1341809001751,926.1480163000524,923.2181789001916,923.2181789001916,923.2181789001916,923.2181789001916,new_sceneOut_10.png,275,4.0,1.9145831998903304,,,003,0,2024-07-26_18h05.59.347,Surprise recog test,2023.1.3,59.95520149526926,
275,0,275,0,,,,,,,,,,,,,,,,,,,,,,,,,,,,,,,,,,926.8955043000169,927.9106156001799,926.1480163000524,926.1480163000524,926.1480163000524,926.1480163000524,new_stationery_27.png,276,4.0,0.747391700046137,,,003,0,2024-07-26_18h05.59.347,Surprise recog test,2023.1.3,59.95520149526926,
276,0,276,0,,,,,,,,,,,,,,,,,,,,,,,,,,,,,,,,,,929.1324073001742,930.1564003000967,927.9106156001799,927.9106156001799,927.9106156001799,927.9106156001799,old_sceneOut_10.png,277,4.0,1.2157159999478608,,,003,0,2024-07-26_18h05.59.347,Surprise recog test,2023.1.3,59.95520149526926,
277,0,277,0,,,,,,,,,,,,,,,,,,,,,,,,,,,,,,,,,,931.8068258999847,932.8156418001745,930.1564003000967,930.1564003000967,930.1564003000967,930.1564003000967,old_fruit_44.png,278,3.0,1.648304000031203,,,003,0,2024-07-26_18h05.59.347,Surprise recog test,2023.1.3,59.95520149526926,
278,0,278,0,,,,,,,,,,,,,,,,,,,,,,,,,,,,,,,,,,933.7162751001306,934.7559605001006,932.8156418001745,932.8156418001745,932.8156418001745,932.8156418001745,old_fruit_22.png,279,3.0,0.8951922999694943,,,003,0,2024-07-26_18h05.59.347,Surprise recog test,2023.1.3,59.95520149526926,
279,0,279,0,,,,,,,,,,,,,,,,,,,,,,,,,,,,,,,,,,935.6269070999697,936.6484388001263,934.7559605001006,934.7559605001006,934.7559605001006,934.7559605001006,new_stationery_1.png,280,3.0,0.8752007000148296,,,003,0,2024-07-26_18h05.59.347,Surprise recog test,2023.1.3,59.95520149526926,
280,0,280,0,,,,,,,,,,,,,,,,,,,,,,,,,,,,,,,,,,938.1419616001658,939.1513812001795,936.6484388001263,936.6484388001263,936.6484388001263,936.6484388001263,old_sceneOut_50.png,281,4.0,1.4953711000271142,,,003,0,2024-07-26_18h05.59.347,Surprise recog test,2023.1.3,59.95520149526926,
281,0,281,0,,,,,,,,,,,,,,,,,,,,,,,,,,,,,,,,,,940.0043075999711,941.0300932000391,939.1513812001795,939.1513812001795,939.1513812001795,939.1513812001795,new_sceneIn_10.png,282,4.0,0.8499888998921961,,,003,0,2024-07-26_18h05.59.347,Surprise recog test,2023.1.3,59.95520149526926,
282,0,282,0,,,,,,,,,,,,,,,,,,,,,,,,,,,,,,,,,,941.8477847999893,942.8605716000311,941.0300932000391,941.0300932000391,941.0300932000391,941.0300932000391,old_sceneIn_49.png,283,4.0,0.8183190999552608,,,003,0,2024-07-26_18h05.59.347,Surprise recog test,2023.1.3,59.95520149526926,
283,0,283,0,,,,,,,,,,,,,,,,,,,,,,,,,,,,,,,,,,945.7054284999613,,942.8605716000311,942.8605716000311,942.8605716000311,942.8605716000311,new_sceneIn_47.png,284,3.0,2.844113399973139,,,003,0,2024-07-26_18h05.59.347,Surprise recog test,2023.1.3,59.95520149526926,
284,0,284,0,,,,,,,,,,,,,,,,,,,,,,,,,,,,,,,,,,948.6205035999883,949.6311715000775,946.7255653999746,946.7255653999746,946.7255653999746,946.7255653999746,old_fruit_11.png,285,1.0,1.8902394000906497,,,003,0,2024-07-26_18h05.59.347,Surprise recog test,2023.1.3,59.95520149526926,
285,0,285,0,,,,,,,,,,,,,,,,,,,,,,,,,,,,,,,,,,950.9760041001718,,949.6311715000775,949.6311715000775,949.6311715000775,949.6311715000775,new_fruit_14.png,286,2.0,1.3449277998879552,,,003,0,2024-07-26_18h05.59.347,Surprise recog test,2023.1.3,59.95520149526926,
286,0,286,0,,,,,,,,,,,,,,,,,,,,,,,,,,,,,,,,,,952.7493173000403,953.779501200188,952.0095948001835,952.0095948001835,952.0095948001835,952.0095948001835,new_stationery_41.png,287,3.0,0.7424890000838786,,,003,0,2024-07-26_18h05.59.347,Surprise recog test,2023.1.3,59.95520149526926,
287,0,287,0,,,,,,,,,,,,,,,,,,,,,,,,,,,,,,,,,,954.8994403001852,955.9237599000335,953.779501200188,953.779501200188,953.779501200188,953.779501200188,new_fruit_39.png,288,3.0,1.1234141997992992,,,003,0,2024-07-26_18h05.59.347,Surprise recog test,2023.1.3,59.95520149526926,
288,0,288,0,,,,,,,,,,,,,,,,,,,,,,,,,,,,,,,,,,957.6731175000314,958.6907192000654,955.9237599000335,955.9237599000335,955.9237599000335,955.9237599000335,new_sceneIn_30.png,289,5.0,1.7484816000796854,,,003,0,2024-07-26_18h05.59.347,Surprise recog test,2023.1.3,59.95520149526926,
289,0,289,0,,,,,,,,,,,,,,,,,,,,,,,,,,,,,,,,,,960.5457854000852,961.5675115000922,958.6907192000654,958.6907192000654,958.6907192000654,958.6907192000654,new_fruit_46.png,290,4.0,1.8551557001192123,,,003,0,2024-07-26_18h05.59.347,Surprise recog test,2023.1.3,59.95520149526926,
290,0,290,0,,,,,,,,,,,,,,,,,,,,,,,,,,,,,,,,,,963.7273157001473,964.7428221001755,961.5675115000922,961.5675115000922,961.5675115000922,961.5675115000922,new_stationery_2.png,291,3.0,2.162191600073129,,,003,0,2024-07-26_18h05.59.347,Surprise recog test,2023.1.3,59.95520149526926,
291,0,291,0,,,,,,,,,,,,,,,,,,,,,,,,,,,,,,,,,,966.2423617001623,967.271549000172,964.7428221001755,964.7428221001755,964.7428221001755,964.7428221001755,new_sceneOut_38.png,292,5.0,1.493373000063002,,,003,0,2024-07-26_18h05.59.347,Surprise recog test,2023.1.3,59.95520149526926,
292,0,292,0,,,,,,,,,,,,,,,,,,,,,,,,,,,,,,,,,,968.8038180000149,969.8197082001716,967.271549000172,967.271549000172,967.271549000172,967.271549000172,new_stationery_47.png,293,4.0,1.5337110001128167,,,003,0,2024-07-26_18h05.59.347,Surprise recog test,2023.1.3,59.95520149526926,
293,0,293,0,,,,,,,,,,,,,,,,,,,,,,,,,,,,,,,,,,971.0768856001087,,969.8197082001716,969.8197082001716,969.8197082001716,969.8197082001716,new_sceneOut_29.png,294,4.0,1.256236300105229,,,003,0,2024-07-26_18h05.59.347,Surprise recog test,2023.1.3,59.95520149526926,
294,0,294,0,,,,,,,,,,,,,,,,,,,,,,,,,,,,,,,,,,972.9985917999875,974.0244694000576,972.1091210001614,972.1091210001614,972.1091210001614,972.1091210001614,new_stationery_8.png,295,4.0,0.8914658001158386,,,003,0,2024-07-26_18h05.59.347,Surprise recog test,2023.1.3,59.95520149526926,
295,0,295,0,,,,,,,,,,,,,,,,,,,,,,,,,,,,,,,,,,975.1733230000827,976.1989790999796,974.0244694000576,974.0244694000576,974.0244694000576,974.0244694000576,old_fruit_31.png,296,3.0,1.1486017999704927,,,003,0,2024-07-26_18h05.59.347,Surprise recog test,2023.1.3,59.95520149526926,
296,0,296,0,,,,,,,,,,,,,,,,,,,,,,,,,,,,,,,,,,977.3732400001027,978.4006140001584,976.1989790999796,976.1989790999796,976.1989790999796,976.1989790999796,old_sceneOut_35.png,297,4.0,1.1758524000179023,,,003,0,2024-07-26_18h05.59.347,Surprise recog test,2023.1.3,59.95520149526926,
297,0,297,0,,,,,,,,,,,,,,,,,,,,,,,,,,,,,,,,,,979.5896294000559,980.6183587000705,978.4006140001584,978.4006140001584,978.4006140001584,978.4006140001584,old_fruit_3.png,298,3.0,1.1913600999396294,,,003,0,2024-07-26_18h05.59.347,Surprise recog test,2023.1.3,59.95520149526926,
298,0,298,0,,,,,,,,,,,,,,,,,,,,,,,,,,,,,,,,,,982.0507573001087,,980.6183587000705,980.6183587000705,980.6183587000705,980.6183587000705,new_sceneOut_44.png,299,5.0,1.4349231999367476,,,003,0,2024-07-26_18h05.59.347,Surprise recog test,2023.1.3,59.95520149526926,
299,0,299,0,,,,,,,,,,,,,,,,,,,,,,,,,,,,,,,,,,983.7761425001081,984.7917114000302,983.0730193001218,983.0730193001218,983.0730193001218,983.0730193001218,new_sceneIn_21.png,300,4.0,0.6958697999361902,,,003,0,2024-07-26_18h05.59.347,Surprise recog test,2023.1.3,59.95520149526926,
300,0,300,0,,,,,,,,,,,,,,,,,,,,,,,,,,,,,,,,,,985.6836902000941,986.7055846001022,984.7917114000302,984.7917114000302,984.7917114000302,984.7917114000302,old_sceneIn_37.png,301,4.0,0.8876515000592917,,,003,0,2024-07-26_18h05.59.347,Surprise recog test,2023.1.3,59.95520149526926,
301,0,301,0,,,,,,,,,,,,,,,,,,,,,,,,,,,,,,,,,,987.91844030004,988.9387501999736,986.7055846001022,986.7055846001022,986.7055846001022,986.7055846001022,new_fruit_37.png,302,3.0,1.2132916999980807,,,003,0,2024-07-26_18h05.59.347,Surprise recog test,2023.1.3,59.95520149526926,
302,0,302,0,,,,,,,,,,,,,,,,,,,,,,,,,,,,,,,,,,989.8668035001028,990.8760100000072,988.9387501999736,988.9387501999736,988.9387501999736,988.9387501999736,old_fruit_6.png,303,3.0,0.9292758000083268,,,003,0,2024-07-26_18h05.59.347,Surprise recog test,2023.1.3,59.95520149526926,
303,0,303,0,,,,,,,,,,,,,,,,,,,,,,,,,,,,,,,,,,991.6110425000079,992.6312206999864,990.8760100000072,990.8760100000072,990.8760100000072,990.8760100000072,old_sceneOut_24.png,304,3.0,0.7311066000256687,,,003,0,2024-07-26_18h05.59.347,Surprise recog test,2023.1.3,59.95520149526926,
304,0,304,0,,,,,,,,,,,,,,,,,,,,,,,,,,,,,,,,,,993.2512168001849,994.2769168000668,992.6312206999864,992.6312206999864,992.6312206999864,992.6312206999864,old_sceneIn_41.png,305,3.0,0.6139213000424206,,,003,0,2024-07-26_18h05.59.347,Surprise recog test,2023.1.3,59.95520149526926,
305,0,305,0,,,,,,,,,,,,,,,,,,,,,,,,,,,,,,,,,,995.8149165001232,996.8443903001025,994.2769168000668,994.2769168000668,994.2769168000668,994.2769168000668,new_fruit_50.png,306,2.0,1.5399199000094086,,,003,0,2024-07-26_18h05.59.347,Surprise recog test,2023.1.3,59.95520149526926,
306,0,306,0,,,,,,,,,,,,,,,,,,,,,,,,,,,,,,,,,,998.3585718001705,999.3785449001007,996.8443903001025,996.8443903001025,996.8443903001025,996.8443903001025,new_sceneOut_47.png,307,5.0,1.5134423999115825,,,003,0,2024-07-26_18h05.59.347,Surprise recog test,2023.1.3,59.95520149526926,
307,0,307,0,,,,,,,,,,,,,,,,,,,,,,,,,,,,,,,,,,1000.973721700022,1002.0013356001582,999.3785449001007,999.3785449001007,999.3785449001007,999.3785449001007,new_stationery_20.png,308,3.0,1.5971369000617415,,,003,0,2024-07-26_18h05.59.347,Surprise recog test,2023.1.3,59.95520149526926,
308,0,308,0,,,,,,,,,,,,,,,,,,,,,,,,,,,,,,,,,,1003.0061695000622,1004.0324311000295,1002.0013356001582,1002.0013356001582,1002.0013356001582,1002.0013356001582,new_fruit_18.png,309,3.0,1.0054788999259472,,,003,0,2024-07-26_18h05.59.347,Surprise recog test,2023.1.3,59.95520149526926,
309,0,309,0,,,,,,,,,,,,,,,,,,,,,,,,,,,,,,,,,,1005.1673604000825,1006.1756134000607,1004.0324311000295,1004.0324311000295,1004.0324311000295,1004.0324311000295,new_sceneIn_34.png,310,4.0,1.130826300010085,,,003,0,2024-07-26_18h05.59.347,Surprise recog test,2023.1.3,59.95520149526926,
310,0,310,0,,,,,,,,,,,,,,,,,,,,,,,,,,,,,,,,,,1006.9111741001252,1007.9270790000446,1006.1756134000607,1006.1756134000607,1006.1756134000607,1006.1756134000607,old_stationery_14.png,311,4.0,0.7293533000629395,,,003,0,2024-07-26_18h05.59.347,Surprise recog test,2023.1.3,59.95520149526926,
311,0,311,0,,,,,,,,,,,,,,,,,,,,,,,,,,,,,,,,,,1008.7836064000148,1009.802819600096,1007.9270790000446,1007.9270790000446,1007.9270790000446,1007.9270790000446,new_stationery_34.png,312,4.0,0.8494538001250476,,,003,0,2024-07-26_18h05.59.347,Surprise recog test,2023.1.3,59.95520149526926,
312,0,312,0,,,,,,,,,,,,,,,,,,,,,,,,,,,,,,,,,,1010.6985008001793,1011.7139035,1009.802819600096,1009.802819600096,1009.802819600096,1009.802819600096,new_sceneIn_12.png,313,4.0,0.8973134998232126,,,003,0,2024-07-26_18h05.59.347,Surprise recog test,2023.1.3,59.95520149526926,
313,0,313,0,,,,,,,,,,,,,,,,,,,,,,,,,,,,,,,,,,1013.112417000113,1014.1391202001832,1011.7139035,1011.7139035,1011.7139035,1011.7139035,new_fruit_26.png,314,3.0,1.3945269000250846,,,003,0,2024-07-26_18h05.59.347,Surprise recog test,2023.1.3,59.95520149526926,
314,0,314,0,,,,,,,,,,,,,,,,,,,,,,,,,,,,,,,,,,1015.4088209001347,1016.4320402999874,1014.1391202001832,1014.1391202001832,1014.1391202001832,1014.1391202001832,old_sceneOut_45.png,315,4.0,1.265497300075367,,,003,0,2024-07-26_18h05.59.347,Surprise recog test,2023.1.3,59.95520149526926,
315,0,315,0,,,,,,,,,,,,,,,,,,,,,,,,,,,,,,,,,,1018.4625274001155,1019.4824041000102,1016.4320402999874,1016.4320402999874,1016.4320402999874,1016.4320402999874,old_sceneIn_8.png,316,4.0,2.0329210001509637,,,003,0,2024-07-26_18h05.59.347,Surprise recog test,2023.1.3,59.95520149526926,
316,0,316,0,,,,,,,,,,,,,,,,,,,,,,,,,,,,,,,,,,1020.3113349000923,1021.3337968999986,1019.4824041000102,1019.4824041000102,1019.4824041000102,1019.4824041000102,new_sceneIn_4.png,317,4.0,0.8312377000693232,,,003,0,2024-07-26_18h05.59.347,Surprise recog test,2023.1.3,59.95520149526926,
317,0,317,0,,,,,,,,,,,,,,,,,,,,,,,,,,,,,,,,,,1022.0635671999771,1023.0750112000387,1021.3337968999986,1021.3337968999986,1021.3337968999986,1021.3337968999986,old_sceneOut_28.png,318,4.0,0.7311422000639141,,,003,0,2024-07-26_18h05.59.347,Surprise recog test,2023.1.3,59.95520149526926,
318,0,318,0,,,,,,,,,,,,,,,,,,,,,,,,,,,,,,,,,,1026.1804198001046,1027.1932838000357,1023.0750112000387,1023.0750112000387,1023.0750112000387,1023.0750112000387,old_sceneOut_27.png,319,4.0,3.102572300005704,,,003,0,2024-07-26_18h05.59.347,Surprise recog test,2023.1.3,59.95520149526926,
319,0,319,0,,,,,,,,,,,,,,,,,,,,,,,,,,,,,,,,,,1028.0530008000787,1029.0729702999815,1027.1932838000357,1027.1932838000357,1027.1932838000357,1027.1932838000357,new_stationery_16.png,320,4.0,0.8510058999527246,,,003,0,2024-07-26_18h05.59.347,Surprise recog test,2023.1.3,59.95520149526926,
320,0,320,0,,,,,,,,,,,,,,,,,,,,,,,,,,,,,,,,,,1030.1881207001861,1031.2088667000644,1029.0729702999815,1029.0729702999815,1029.0729702999815,1029.0729702999815,old_sceneIn_23.png,321,4.0,1.1121380000840873,,,003,0,2024-07-26_18h05.59.347,Surprise recog test,2023.1.3,59.95520149526926,
321,0,321,0,,,,,,,,,,,,,,,,,,,,,,,,,,,,,,,,,,1031.9911929999944,1033.0120531001594,1031.2088667000644,1031.2088667000644,1031.2088667000644,1031.2088667000644,new_sceneOut_15.png,322,4.0,0.7805030001327395,,,003,0,2024-07-26_18h05.59.347,Surprise recog test,2023.1.3,59.95520149526926,
322,0,322,0,,,,,,,,,,,,,,,,,,,,,,,,,,,,,,,,,,1034.767804400064,1035.798077300191,1033.0120531001594,1033.0120531001594,1033.0120531001594,1033.0120531001594,old_stationery_29.png,323,3.0,1.7592915000859648,,,003,0,2024-07-26_18h05.59.347,Surprise recog test,2023.1.3,59.95520149526926,
323,0,323,0,,,,,,,,,,,,,,,,,,,,,,,,,,,,,,,,,,1038.573423200054,1039.5831495001912,1035.798077300191,1035.798077300191,1035.798077300191,1035.798077300191,new_sceneOut_12.png,324,4.0,2.7771177000831813,,,003,0,2024-07-26_18h05.59.347,Surprise recog test,2023.1.3,59.95520149526926,
324,0,324,0,,,,,,,,,,,,,,,,,,,,,,,,,,,,,,,,,,1040.4805330999661,1041.5031224000268,1039.5831495001912,1039.5831495001912,1039.5831495001912,1039.5831495001912,old_sceneIn_11.png,325,4.0,0.8937026998028159,,,003,0,2024-07-26_18h05.59.347,Surprise recog test,2023.1.3,59.95520149526926,
325,0,325,0,,,,,,,,,,,,,,,,,,,,,,,,,,,,,,,,,,1042.2198732001707,1043.2465670001693,1041.5031224000268,1041.5031224000268,1041.5031224000268,1041.5031224000268,old_sceneOut_3.png,326,4.0,0.7193755998741835,,,003,0,2024-07-26_18h05.59.347,Surprise recog test,2023.1.3,59.95520149526926,
326,0,326,0,,,,,,,,,,,,,,,,,,,,,,,,,,,,,,,,,,1044.014079600107,1045.0383463001344,1043.2465670001693,1043.2465670001693,1043.2465670001693,1043.2465670001693,new_sceneOut_31.png,327,4.0,0.7692750999704003,,,003,0,2024-07-26_18h05.59.347,Surprise recog test,2023.1.3,59.95520149526926,
327,0,327,0,,,,,,,,,,,,,,,,,,,,,,,,,,,,,,,,,,1045.6972861001268,1046.723507600138,1045.0383463001344,1045.0383463001344,1045.0383463001344,1045.0383463001344,old_sceneOut_11.png,328,4.0,0.6598036999348551,,,003,0,2024-07-26_18h05.59.347,Surprise recog test,2023.1.3,59.95520149526926,
328,0,328,0,,,,,,,,,,,,,,,,,,,,,,,,,,,,,,,,,,1048.051970800152,1049.06173210009,1046.723507600138,1046.723507600138,1046.723507600138,1046.723507600138,new_fruit_29.png,329,3.0,1.329653900116682,,,003,0,2024-07-26_18h05.59.347,Surprise recog test,2023.1.3,59.95520149526926,
329,0,329,0,,,,,,,,,,,,,,,,,,,,,,,,,,,,,,,,,,1050.3254031999968,,1049.06173210009,1049.06173210009,1049.06173210009,1049.06173210009,new_sceneIn_40.png,330,3.0,1.2571808998472989,,,003,0,2024-07-26_18h05.59.347,Surprise recog test,2023.1.3,59.95520149526926,
330,0,330,0,,,,,,,,,,,,,,,,,,,,,,,,,,,,,,,,,,1052.610844900133,,1051.3612429001369,1051.3612429001369,1051.3612429001369,1051.3612429001369,old_sceneOut_48.png,331,4.0,1.2525217002257705,,,003,0,2024-07-26_18h05.59.347,Surprise recog test,2023.1.3,59.95520149526926,
331,0,331,0,,,,,,,,,,,,,,,,,,,,,,,,,,,,,,,,,,1055.328327300027,,1053.6445502999704,1053.6445502999704,1053.6445502999704,1053.6445502999704,old_sceneOut_36.png,332,4.0,1.684386899927631,,,003,0,2024-07-26_18h05.59.347,Surprise recog test,2023.1.3,59.95520149526926,
332,0,332,0,,,,,,,,,,,,,,,,,,,,,,,,,,,,,,,,,,1057.4492760000285,1058.4803791001905,1056.3633211001288,1056.3633211001288,1056.3633211001288,1056.3633211001288,new_sceneOut_30.png,333,4.0,1.0863606999628246,,,003,0,2024-07-26_18h05.59.347,Surprise recog test,2023.1.3,59.95520149526926,
333,0,333,0,,,,,,,,,,,,,,,,,,,,,,,,,,,,,,,,,,1059.8096624000464,1060.8221981001552,1058.4803791001905,1058.4803791001905,1058.4803791001905,1058.4803791001905,old_stationery_35.png,334,3.0,1.3286435999907553,,,003,0,2024-07-26_18h05.59.347,Surprise recog test,2023.1.3,59.95520149526926,
334,0,334,0,,,,,,,,,,,,,,,,,,,,,,,,,,,,,,,,,,1062.4151908999775,1063.4241286001634,1060.8221981001552,1060.8221981001552,1060.8221981001552,1060.8221981001552,new_sceneIn_24.png,335,3.0,1.5822255001403391,,,003,0,2024-07-26_18h05.59.347,Surprise recog test,2023.1.3,59.95520149526926,
335,0,335,0,,,,,,,,,,,,,,,,,,,,,,,,,,,,,,,,,,1065.7068297001533,1066.7347413001116,1063.4241286001634,1063.4241286001634,1063.4241286001634,1063.4241286001634,old_sceneIn_38.png,336,1.0,2.275983599945903,,,003,0,2024-07-26_18h05.59.347,Surprise recog test,2023.1.3,59.95520149526926,
336,0,336,0,,,,,,,,,,,,,,,,,,,,,,,,,,,,,,,,,,1067.873363000108,,1066.7347413001116,1066.7347413001116,1066.7347413001116,1066.7347413001116,old_sceneOut_1.png,337,3.0,1.1398901999928057,,,003,0,2024-07-26_18h05.59.347,Surprise recog test,2023.1.3,59.95520149526926,
337,0,337,0,,,,,,,,,,,,,,,,,,,,,,,,,,,,,,,,,,1070.4877702000085,1071.5090692001395,1068.8938728000503,1068.8938728000503,1068.8938728000503,1068.8938728000503,old_sceneIn_22.png,338,3.0,1.589670400135219,,,003,0,2024-07-26_18h05.59.347,Surprise recog test,2023.1.3,59.95520149526926,
338,0,338,0,,,,,,,,,,,,,,,,,,,,,,,,,,,,,,,,,,1072.576408199966,,1071.5090692001395,1071.5090692001395,1071.5090692001395,1071.5090692001395,old_fruit_40.png,339,3.0,1.0698402998968959,,,003,0,2024-07-26_18h05.59.347,Surprise recog test,2023.1.3,59.95520149526926,
339,0,339,0,,,,,,,,,,,,,,,,,,,,,,,,,,,,,,,,,,1074.8180811000057,1075.8463310000952,1073.6000665000174,1073.6000665000174,1073.6000665000174,1073.6000665000174,old_sceneOut_32.png,340,4.0,1.2157151999417692,,,003,0,2024-07-26_18h05.59.347,Surprise recog test,2023.1.3,59.95520149526926,
340,0,340,0,,,,,,,,,,,,,,,,,,,,,,,,,,,,,,,,,,1076.868320700014,1077.8986963999923,1075.8463310000952,1075.8463310000952,1075.8463310000952,1075.8463310000952,new_fruit_6.png,341,3.0,1.023966700071469,,,003,0,2024-07-26_18h05.59.347,Surprise recog test,2023.1.3,59.95520149526926,
341,0,341,0,,,,,,,,,,,,,,,,,,,,,,,,,,,,,,,,,,1079.0613584001549,1080.0827657000627,1077.8986963999923,1077.8986963999923,1077.8986963999923,1077.8986963999923,old_sceneIn_26.png,342,4.0,1.165187400067225,,,003,0,2024-07-26_18h05.59.347,Surprise recog test,2023.1.3,59.95520149526926,
342,0,342,0,,,,,,,,,,,,,,,,,,,,,,,,,,,,,,,,,,1083.7490708001424,1084.7649523001164,1080.0827657000627,1080.0827657000627,1080.0827657000627,1080.0827657000627,old_stationery_37.png,343,3.0,3.6674632001668215,,,003,0,2024-07-26_18h05.59.347,Surprise recog test,2023.1.3,59.95520149526926,
343,0,343,0,,,,,,,,,,,,,,,,,,,,,,,,,,,,,,,,,,1085.3794581000693,1086.397949400125,1084.7649523001164,1084.7649523001164,1084.7649523001164,1084.7649523001164,new_sceneOut_6.png,344,3.0,0.615845600143075,,,003,0,2024-07-26_18h05.59.347,Surprise recog test,2023.1.3,59.95520149526926,
344,0,344,0,,,,,,,,,,,,,,,,,,,,,,,,,,,,,,,,,,1087.63095910009,1088.655327500077,1086.397949400125,1086.397949400125,1086.397949400125,1086.397949400125,new_sceneIn_26.png,345,3.0,1.2320451999548823,,,003,0,2024-07-26_18h05.59.347,Surprise recog test,2023.1.3,59.95520149526926,
345,0,345,0,,,,,,,,,,,,,,,,,,,,,,,,,,,,,,,,,,1089.5398937000427,,1088.655327500077,1088.655327500077,1088.655327500077,1088.655327500077,old_stationery_40.png,346,3.0,0.8846464001107961,,,003,0,2024-07-26_18h05.59.347,Surprise recog test,2023.1.3,59.95520149526926,
346,0,346,0,,,,,,,,,,,,,,,,,,,,,,,,,,,,,,,,,,1092.6625598999672,1093.6819752000738,1090.5715634000953,1090.5715634000953,1090.5715634000953,1090.5715634000953,new_stationery_44.png,347,3.0,2.090454800054431,,,003,0,2024-07-26_18h05.59.347,Surprise recog test,2023.1.3,59.95520149526926,
347,0,347,0,,,,,,,,,,,,,,,,,,,,,,,,,,,,,,,,,,1095.2992831000593,1096.3251928000245,1093.6819752000738,1093.6819752000738,1093.6819752000738,1093.6819752000738,new_sceneOut_43.png,348,4.0,1.6108646001666784,,,003,0,2024-07-26_18h05.59.347,Surprise recog test,2023.1.3,59.95520149526926,
348,0,348,0,,,,,,,,,,,,,,,,,,,,,,,,,,,,,,,,,,1097.9289144000504,1098.9463876001537,1096.3251928000245,1096.3251928000245,1096.3251928000245,1096.3251928000245,new_stationery_32.png,349,4.0,1.6048361998982728,,,003,0,2024-07-26_18h05.59.347,Surprise recog test,2023.1.3,59.95520149526926,
349,0,349,0,,,,,,,,,,,,,,,,,,,,,,,,,,,,,,,,,,1099.6890480001457,1100.7033870001324,1098.9463876001537,1098.9463876001537,1098.9463876001537,1098.9463876001537,old_stationery_7.png,350,4.0,0.743802199838683,,,003,0,2024-07-26_18h05.59.347,Surprise recog test,2023.1.3,59.95520149526926,
350,0,350,0,,,,,,,,,,,,,,,,,,,,,,,,,,,,,,,,,,1102.3632917001378,1103.3739496001508,1100.7033870001324,1100.7033870001324,1100.7033870001324,1100.7033870001324,new_stationery_39.png,351,3.0,1.6556992998812348,,,003,0,2024-07-26_18h05.59.347,Surprise recog test,2023.1.3,59.95520149526926,
351,0,351,0,,,,,,,,,,,,,,,,,,,,,,,,,,,,,,,,,,1105.5832778001204,1106.6056658001617,1103.3739496001508,1103.3739496001508,1103.3739496001508,1103.3739496001508,new_fruit_24.png,352,4.0,2.2054789001122117,,,003,0,2024-07-26_18h05.59.347,Surprise recog test,2023.1.3,59.95520149526926,
352,0,352,0,,,,,,,,,,,,,,,,,,,,,,,,,,,,,,,,,,1108.0609043000732,1109.0908192000352,1106.6056658001617,1106.6056658001617,1106.6056658001617,1106.6056658001617,old_fruit_27.png,353,3.0,1.4583219999913126,,,003,0,2024-07-26_18h05.59.347,Surprise recog test,2023.1.3,59.95520149526926,
353,0,353,0,,,,,,,,,,,,,,,,,,,,,,,,,,,,,,,,,,1111.4475456001237,1112.465755800018,1109.0908192000352,1109.0908192000352,1109.0908192000352,1109.0908192000352,old_stationery_24.png,354,4.0,2.359623100142926,,,003,0,2024-07-26_18h05.59.347,Surprise recog test,2023.1.3,59.95520149526926,
