trial_loop.thisRepN,trial_loop.thisTrialN,trial_loop.thisN,trial_loop.thisIndex,VAS_slider.started,VAS_text.started,VAS_notstressed_text.started,VAS_stressed_text.started,continue_input.started,continue_text.started,label0.started,label10.started,label20.started,label30.started,label40.started,label50.started,label60.started,label70.started,label80.started,label90.started,label100.started,VAS_slider.response,VAS_slider.rt,VAS_slider.history,Answer_VAS,continue_input.keys,instruction_text.started,continue_text_2.started,continue_input_2.started,continue_input_2.keys,continue_input_2.rt,continue_input_2.duration,example_text.started,example_slider_2.started,example_image.started,example_slider_2.response,example_slider_2.rt,fixcross.started,fixcross.stopped,front_square.started,stim_images.started,trial_inst_images.started,slider_images.started,thisImg,trial_count,slider_images.response,slider_images.rt,slider_images.stopped,outro.started,participant,condition,date,expName,psychopyVersion,frameRate,
,,,,18.38781719992403,18.38781719992403,18.38781719992403,18.38781719992403,18.38781719992403,18.38781719992403,18.38781719992403,18.38781719992403,18.38781719992403,18.38781719992403,18.38781719992403,18.38781719992403,18.38781719992403,18.38781719992403,18.38781719992403,18.38781719992403,18.38781719992403,0,7.250893300049938,"[(0, 7.250893300049938)]",0,None,,,,,,,,,,,,,,,,,,,,,,,,0048,11,2025-03-14_14h06.01.446,Surprise recog test,2023.1.3,59.94750992352395,
,,,,,,,,,,,,,,,,,,,,,,,,,,25.66711169993505,25.66711169993505,25.66711169993505,space,2.4555021000560373,None,,,,,,,,,,,,,,,,,,0048,11,2025-03-14_14h06.01.446,Surprise recog test,2023.1.3,59.94750992352395,
0,0,0,0,,,,,,,,,,,,,,,,,,,,,,,,,,,,,28.2689710999839,28.2689710999839,28.2689710999839,5.0,28.308331500040367,60.59697439998854,61.60210569994524,57.532351000001654,57.532351000001654,57.532351000001654,57.532351000001654,new_sceneOut_19.png,1,1.0,3.064996700035408,,,0048,11,2025-03-14_14h06.01.446,Surprise recog test,2023.1.3,59.94750992352395,
1,0,1,0,,,,,,,,,,,,,,,,,,,,,,,,,,,,,,,,,,64.67876599996816,65.7030941999983,61.60210569994524,61.60210569994524,61.60210569994524,61.60210569994524,old_fruit_20.png,2,2.0,3.070675899973139,,,0048,11,2025-03-14_14h06.01.446,Surprise recog test,2023.1.3,59.94750992352395,
2,0,2,0,,,,,,,,,,,,,,,,,,,,,,,,,,,,,,,,,,67.90312099992298,68.92257359996438,65.7030941999983,65.7030941999983,65.7030941999983,65.7030941999983,new_sceneIn_36.png,3,5.0,2.196714899968356,,,0048,11,2025-03-14_14h06.01.446,Surprise recog test,2023.1.3,59.94750992352395,
3,0,3,0,,,,,,,,,,,,,,,,,,,,,,,,,,,,,,,,,,71.48713749996386,72.50433319993317,68.92257359996438,68.92257359996438,68.92257359996438,68.92257359996438,old_sceneOut_38.png,4,2.0,2.5662049000384286,,,0048,11,2025-03-14_14h06.01.446,Surprise recog test,2023.1.3,59.94750992352395,
4,0,4,0,,,,,,,,,,,,,,,,,,,,,,,,,,,,,,,,,,74.6390055998927,75.65273279999383,72.50433319993317,72.50433319993317,72.50433319993317,72.50433319993317,old_sceneOut_19.png,5,4.0,2.1338868000311777,,,0048,11,2025-03-14_14h06.01.446,Surprise recog test,2023.1.3,59.94750992352395,
5,0,5,0,,,,,,,,,,,,,,,,,,,,,,,,,,,,,,,,,,77.66124769998714,78.6826061999891,75.65273279999383,75.65273279999383,75.65273279999383,75.65273279999383,new_stationery_1.png,6,4.0,2.003523699939251,,,0048,11,2025-03-14_14h06.01.446,Surprise recog test,2023.1.3,59.94750992352395,
6,0,6,0,,,,,,,,,,,,,,,,,,,,,,,,,,,,,,,,,,80.95962769992184,81.97913739993237,78.6826061999891,78.6826061999891,78.6826061999891,78.6826061999891,new_sceneIn_17.png,7,4.0,2.2772271999856457,,,0048,11,2025-03-14_14h06.01.446,Surprise recog test,2023.1.3,59.94750992352395,
7,0,7,0,,,,,,,,,,,,,,,,,,,,,,,,,,,,,,,,,,84.37084879993927,,81.97913739993237,81.97913739993237,81.97913739993237,81.97913739993237,new_sceneOut_34.png,8,1.0,2.39197310002055,,,0048,11,2025-03-14_14h06.01.446,Surprise recog test,2023.1.3,59.94750992352395,
8,0,8,0,,,,,,,,,,,,,,,,,,,,,,,,,,,,,,,,,,87.26923929993063,88.2883369999472,85.40124919998925,85.40124919998925,85.40124919998925,85.40124919998925,new_stationery_41.png,9,4.0,1.8691666000522673,,,0048,11,2025-03-14_14h06.01.446,Surprise recog test,2023.1.3,59.94750992352395,
9,0,9,0,,,,,,,,,,,,,,,,,,,,,,,,,,,,,,,,,,89.57208859990351,90.58001539995894,88.2883369999472,88.2883369999472,88.2883369999472,88.2883369999472,new_fruit_34.png,10,4.0,1.2835799000458792,,,0048,11,2025-03-14_14h06.01.446,Surprise recog test,2023.1.3,59.94750992352395,
10,0,10,0,,,,,,,,,,,,,,,,,,,,,,,,,,,,,,,,,,92.5350759999128,93.5573603999801,90.58001539995894,90.58001539995894,90.58001539995894,90.58001539995894,new_sceneOut_49.png,11,1.0,1.9508021000074223,,,0048,11,2025-03-14_14h06.01.446,Surprise recog test,2023.1.3,59.94750992352395,
11,0,11,0,,,,,,,,,,,,,,,,,,,,,,,,,,,,,,,,,,95.35850959992968,96.38319609989412,93.5573603999801,93.5573603999801,93.5573603999801,93.5573603999801,old_sceneOut_28.png,12,1.0,1.8017164999619126,,,0048,11,2025-03-14_14h06.01.446,Surprise recog test,2023.1.3,59.94750992352395,
12,0,12,0,,,,,,,,,,,,,,,,,,,,,,,,,,,,,,,,,,98.3922612000024,99.4201272999635,96.38319609989412,96.38319609989412,96.38319609989412,96.38319609989412,new_fruit_26.png,13,1.0,2.0133454999886453,,,0048,11,2025-03-14_14h06.01.446,Surprise recog test,2023.1.3,59.94750992352395,
13,0,13,0,,,,,,,,,,,,,,,,,,,,,,,,,,,,,,,,,,101.38584659993649,102.41774720000103,99.4201272999635,99.4201272999635,99.4201272999635,99.4201272999635,new_fruit_36.png,14,1.0,1.9709301999537274,,,0048,11,2025-03-14_14h06.01.446,Surprise recog test,2023.1.3,59.94750992352395,
14,0,14,0,,,,,,,,,,,,,,,,,,,,,,,,,,,,,,,,,,104.49816489999648,105.52540599997155,102.41774720000103,102.41774720000103,102.41774720000103,102.41774720000103,new_fruit_50.png,15,2.0,2.083669900079258,,,0048,11,2025-03-14_14h06.01.446,Surprise recog test,2023.1.3,59.94750992352395,
15,0,15,0,,,,,,,,,,,,,,,,,,,,,,,,,,,,,,,,,,107.34381429990754,108.37743709993083,105.52540599997155,105.52540599997155,105.52540599997155,105.52540599997155,old_sceneIn_18.png,16,4.0,1.8192915000254288,,,0048,11,2025-03-14_14h06.01.446,Surprise recog test,2023.1.3,59.94750992352395,
16,0,16,0,,,,,,,,,,,,,,,,,,,,,,,,,,,,,,,,,,109.60702359990682,,108.37743709993083,108.37743709993083,108.37743709993083,108.37743709993083,old_fruit_48.png,17,4.0,1.2348518999060616,,,0048,11,2025-03-14_14h06.01.446,Surprise recog test,2023.1.3,59.94750992352395,
17,0,17,0,,,,,,,,,,,,,,,,,,,,,,,,,,,,,,,,,,111.65777729998808,112.68095769989304,110.64079829992261,110.64079829992261,110.64079829992261,110.64079829992261,new_stationery_22.png,18,4.0,1.019780999980867,,,0048,11,2025-03-14_14h06.01.446,Surprise recog test,2023.1.3,59.94750992352395,
18,0,18,0,,,,,,,,,,,,,,,,,,,,,,,,,,,,,,,,,,115.12590109999292,116.1461844999576,112.68095769989304,112.68095769989304,112.68095769989304,112.68095769989304,old_stationery_26.png,19,1.0,2.4502314999699593,,,0048,11,2025-03-14_14h06.01.446,Surprise recog test,2023.1.3,59.94750992352395,
19,0,19,0,,,,,,,,,,,,,,,,,,,,,,,,,,,,,,,,,,117.6971038999036,,116.1461844999576,116.1461844999576,116.1461844999576,116.1461844999576,new_fruit_31.png,20,2.0,1.5500428000232205,,,0048,11,2025-03-14_14h06.01.446,Surprise recog test,2023.1.3,59.94750992352395,
20,0,20,0,,,,,,,,,,,,,,,,,,,,,,,,,,,,,,,,,,120.39686849992722,121.41705329995602,118.73283219989389,118.73283219989389,118.73283219989389,118.73283219989389,old_sceneIn_38.png,21,4.0,1.6612337999977171,,,0048,11,2025-03-14_14h06.01.446,Surprise recog test,2023.1.3,59.94750992352395,
21,0,21,0,,,,,,,,,,,,,,,,,,,,,,,,,,,,,,,,,,122.86555069999304,123.88619229989126,121.41705329995602,121.41705329995602,121.41705329995602,121.41705329995602,old_fruit_16.png,22,4.0,1.4479685999685898,,,0048,11,2025-03-14_14h06.01.446,Surprise recog test,2023.1.3,59.94750992352395,
22,0,22,0,,,,,,,,,,,,,,,,,,,,,,,,,,,,,,,,,,126.24286289990414,127.26943389989901,123.88619229989126,123.88619229989126,123.88619229989126,123.88619229989126,new_sceneIn_49.png,23,1.0,2.3592169999610633,,,0048,11,2025-03-14_14h06.01.446,Surprise recog test,2023.1.3,59.94750992352395,
23,0,23,0,,,,,,,,,,,,,,,,,,,,,,,,,,,,,,,,,,129.18738059990574,130.2116044999566,127.26943389989901,127.26943389989901,127.26943389989901,127.26943389989901,old_fruit_17.png,24,4.0,1.9097719000419602,,,0048,11,2025-03-14_14h06.01.446,Surprise recog test,2023.1.3,59.94750992352395,
24,0,24,0,,,,,,,,,,,,,,,,,,,,,,,,,,,,,,,,,,132.83783659990877,133.86254119989462,130.2116044999566,130.2116044999566,130.2116044999566,130.2116044999566,old_fruit_30.png,25,1.0,2.628842500038445,,,0048,11,2025-03-14_14h06.01.446,Surprise recog test,2023.1.3,59.94750992352395,
25,0,25,0,,,,,,,,,,,,,,,,,,,,,,,,,,,,,,,,,,135.79498479992617,136.81310769997071,133.86254119989462,133.86254119989462,133.86254119989462,133.86254119989462,new_sceneIn_26.png,26,2.0,1.9332595999585465,,,0048,11,2025-03-14_14h06.01.446,Surprise recog test,2023.1.3,59.94750992352395,
26,0,26,0,,,,,,,,,,,,,,,,,,,,,,,,,,,,,,,,,,138.00073339999653,139.01548750000075,136.81310769997071,136.81310769997071,136.81310769997071,136.81310769997071,old_sceneOut_35.png,27,2.0,1.1895371999125928,,,0048,11,2025-03-14_14h06.01.446,Surprise recog test,2023.1.3,59.94750992352395,
27,0,27,0,,,,,,,,,,,,,,,,,,,,,,,,,,,,,,,,,,141.56970429990906,142.60080509993713,139.01548750000075,139.01548750000075,139.01548750000075,139.01548750000075,new_fruit_16.png,28,3.0,2.5500906000379473,,,0048,11,2025-03-14_14h06.01.446,Surprise recog test,2023.1.3,59.94750992352395,
28,0,28,0,,,,,,,,,,,,,,,,,,,,,,,,,,,,,,,,,,145.03406549990177,146.04120899992995,142.60080509993713,142.60080509993713,142.60080509993713,142.60080509993713,old_sceneOut_4.png,29,4.0,2.4320020000450313,,,0048,11,2025-03-14_14h06.01.446,Surprise recog test,2023.1.3,59.94750992352395,
29,0,29,0,,,,,,,,,,,,,,,,,,,,,,,,,,,,,,,,,,148.23671469988767,149.25615699996706,146.04120899992995,146.04120899992995,146.04120899992995,146.04120899992995,new_sceneIn_39.png,30,1.0,2.1881333000492305,,,0048,11,2025-03-14_14h06.01.446,Surprise recog test,2023.1.3,59.94750992352395,
30,0,30,0,,,,,,,,,,,,,,,,,,,,,,,,,,,,,,,,,,152.3522824998945,153.36536589998286,149.25615699996706,149.25615699996706,149.25615699996706,149.25615699996706,old_stationery_15.png,31,3.0,3.0964740000199527,,,0048,11,2025-03-14_14h06.01.446,Surprise recog test,2023.1.3,59.94750992352395,
31,0,31,0,,,,,,,,,,,,,,,,,,,,,,,,,,,,,,,,,,156.14975459990092,157.1791003999533,153.36536589998286,153.36536589998286,153.36536589998286,153.36536589998286,old_sceneOut_34.png,32,1.0,2.7804776000557467,,,0048,11,2025-03-14_14h06.01.446,Surprise recog test,2023.1.3,59.94750992352395,
32,0,32,0,,,,,,,,,,,,,,,,,,,,,,,,,,,,,,,,,,159.31476629991084,,157.1791003999533,157.1791003999533,157.1791003999533,157.1791003999533,old_stationery_40.png,33,1.0,2.140444300021045,,,0048,11,2025-03-14_14h06.01.446,Surprise recog test,2023.1.3,59.94750992352395,
33,0,33,0,,,,,,,,,,,,,,,,,,,,,,,,,,,,,,,,,,162.82096019992605,163.8526602999773,160.35034159990028,160.35034159990028,160.35034159990028,160.35034159990028,old_stationery_28.png,34,4.0,2.4752759999828413,,,0048,11,2025-03-14_14h06.01.446,Surprise recog test,2023.1.3,59.94750992352395,
34,0,34,0,,,,,,,,,,,,,,,,,,,,,,,,,,,,,,,,,,166.02047379990108,,163.8526602999773,163.8526602999773,163.8526602999773,163.8526602999773,new_sceneOut_41.png,35,1.0,2.1679170000134036,,,0048,11,2025-03-14_14h06.01.446,Surprise recog test,2023.1.3,59.94750992352395,
35,0,35,0,,,,,,,,,,,,,,,,,,,,,,,,,,,,,,,,,,169.1084528999636,,167.0532165999757,167.0532165999757,167.0532165999757,167.0532165999757,new_stationery_18.png,36,2.0,2.057364600012079,,,0048,11,2025-03-14_14h06.01.446,Surprise recog test,2023.1.3,59.94750992352395,
36,0,36,0,,,,,,,,,,,,,,,,,,,,,,,,,,,,,,,,,,172.54023939999752,173.56221029988956,170.13938939990476,170.13938939990476,170.13938939990476,170.13938939990476,new_sceneIn_12.png,37,4.0,2.3996068999404088,,,0048,11,2025-03-14_14h06.01.446,Surprise recog test,2023.1.3,59.94750992352395,
37,0,37,0,,,,,,,,,,,,,,,,,,,,,,,,,,,,,,,,,,175.24888400000054,176.2667172999354,173.56221029988956,173.56221029988956,173.56221029988956,173.56221029988956,new_fruit_23.png,38,4.0,1.688594999955967,,,0048,11,2025-03-14_14h06.01.446,Surprise recog test,2023.1.3,59.94750992352395,
38,0,38,0,,,,,,,,,,,,,,,,,,,,,,,,,,,,,,,,,,177.6577647998929,178.68104799999855,176.2667172999354,176.2667172999354,176.2667172999354,176.2667172999354,old_fruit_47.png,39,4.0,1.3848053999245167,,,0048,11,2025-03-14_14h06.01.446,Surprise recog test,2023.1.3,59.94750992352395,
39,0,39,0,,,,,,,,,,,,,,,,,,,,,,,,,,,,,,,,,,180.10878619994037,181.13524569990113,178.68104799999855,178.68104799999855,178.68104799999855,178.68104799999855,new_sceneOut_50.png,40,4.0,1.4299478000029922,,,0048,11,2025-03-14_14h06.01.446,Surprise recog test,2023.1.3,59.94750992352395,
40,0,40,0,,,,,,,,,,,,,,,,,,,,,,,,,,,,,,,,,,182.95751389989164,183.9862988999812,181.13524569990113,181.13524569990113,181.13524569990113,181.13524569990113,old_sceneIn_27.png,41,1.0,1.8209937999490649,,,0048,11,2025-03-14_14h06.01.446,Surprise recog test,2023.1.3,59.94750992352395,
41,0,41,0,,,,,,,,,,,,,,,,,,,,,,,,,,,,,,,,,,186.24086169991642,187.25992399989627,183.9862988999812,183.9862988999812,183.9862988999812,183.9862988999812,new_stationery_7.png,42,2.0,2.2571917000459507,,,0048,11,2025-03-14_14h06.01.446,Surprise recog test,2023.1.3,59.94750992352395,
42,0,42,0,,,,,,,,,,,,,,,,,,,,,,,,,,,,,,,,,,189.39995249989443,190.4252551998943,187.25992399989627,187.25992399989627,187.25992399989627,187.25992399989627,old_stationery_2.png,43,1.0,2.1352299000136554,,,0048,11,2025-03-14_14h06.01.446,Surprise recog test,2023.1.3,59.94750992352395,
43,0,43,0,,,,,,,,,,,,,,,,,,,,,,,,,,,,,,,,,,191.93443619995378,192.96031899994705,190.4252551998943,190.4252551998943,190.4252551998943,190.4252551998943,old_stationery_43.png,44,4.0,1.5118810000130907,,,0048,11,2025-03-14_14h06.01.446,Surprise recog test,2023.1.3,59.94750992352395,
44,0,44,0,,,,,,,,,,,,,,,,,,,,,,,,,,,,,,,,,,193.99788289994467,195.02669389999937,192.96031899994705,192.96031899994705,192.96031899994705,192.96031899994705,new_sceneOut_26.png,45,4.0,1.039894500048831,,,0048,11,2025-03-14_14h06.01.446,Surprise recog test,2023.1.3,59.94750992352395,
45,0,45,0,,,,,,,,,,,,,,,,,,,,,,,,,,,,,,,,,,196.09432629996445,197.1024208999006,195.02669389999937,195.02669389999937,195.02669389999937,195.02669389999937,new_sceneIn_44.png,46,4.0,1.0681662999559194,,,0048,11,2025-03-14_14h06.01.446,Surprise recog test,2023.1.3,59.94750992352395,
46,0,46,0,,,,,,,,,,,,,,,,,,,,,,,,,,,,,,,,,,199.92962089995854,200.93802549992688,197.1024208999006,197.1024208999006,197.1024208999006,197.1024208999006,new_sceneOut_1.png,47,2.0,2.819574899971485,,,0048,11,2025-03-14_14h06.01.446,Surprise recog test,2023.1.3,59.94750992352395,
47,0,47,0,,,,,,,,,,,,,,,,,,,,,,,,,,,,,,,,,,202.6152850999497,203.63053269998636,200.93802549992688,200.93802549992688,200.93802549992688,200.93802549992688,old_sceneIn_49.png,48,4.0,1.6721197000006214,,,0048,11,2025-03-14_14h06.01.446,Surprise recog test,2023.1.3,59.94750992352395,
48,0,48,0,,,,,,,,,,,,,,,,,,,,,,,,,,,,,,,,,,206.08098769991193,207.09261689998675,203.63053269998636,203.63053269998636,203.63053269998636,203.63053269998636,old_fruit_21.png,49,1.0,2.4513531000120565,,,0048,11,2025-03-14_14h06.01.446,Surprise recog test,2023.1.3,59.94750992352395,
49,0,49,0,,,,,,,,,,,,,,,,,,,,,,,,,,,,,,,,,,209.67075639998075,210.69312619999982,207.09261689998675,207.09261689998675,207.09261689998675,207.09261689998675,new_fruit_39.png,50,4.0,2.573565899976529,,,0048,11,2025-03-14_14h06.01.446,Surprise recog test,2023.1.3,59.94750992352395,
50,0,50,0,,,,,,,,,,,,,,,,,,,,,,,,,,,,,,,,,,212.66085599991493,,210.69312619999982,210.69312619999982,210.69312619999982,210.69312619999982,new_fruit_14.png,51,1.0,1.9715998000465333,,,0048,11,2025-03-14_14h06.01.446,Surprise recog test,2023.1.3,59.94750992352395,
51,0,51,0,,,,,,,,,,,,,,,,,,,,,,,,,,,,,,,,,,215.4464575999882,,213.6929179999279,213.6929179999279,213.6929179999279,213.6929179999279,old_fruit_41.png,52,3.0,1.7560274000279605,,,0048,11,2025-03-14_14h06.01.446,Surprise recog test,2023.1.3,59.94750992352395,
52,0,52,0,,,,,,,,,,,,,,,,,,,,,,,,,,,,,,,,,,218.14489269990008,219.15308409999125,216.47763109998778,216.47763109998778,216.47763109998778,216.47763109998778,new_sceneIn_5.png,53,4.0,1.662884599994868,,,0048,11,2025-03-14_14h06.01.446,Surprise recog test,2023.1.3,59.94750992352395,
53,0,53,0,,,,,,,,,,,,,,,,,,,,,,,,,,,,,,,,,,221.56393969990313,222.57749389996752,219.15308409999125,219.15308409999125,219.15308409999125,219.15308409999125,old_stationery_27.png,54,1.0,2.404862300027162,,,0048,11,2025-03-14_14h06.01.446,Surprise recog test,2023.1.3,59.94750992352395,
54,0,54,0,,,,,,,,,,,,,,,,,,,,,,,,,,,,,,,,,,224.30717759998515,225.3373278999934,222.57749389996752,222.57749389996752,222.57749389996752,222.57749389996752,old_stationery_17.png,55,4.0,1.730597999994643,,,0048,11,2025-03-14_14h06.01.446,Surprise recog test,2023.1.3,59.94750992352395,
55,0,55,0,,,,,,,,,,,,,,,,,,,,,,,,,,,,,,,,,,226.40885099989828,227.43964339990634,225.3373278999934,225.3373278999934,225.3373278999934,225.3373278999934,old_stationery_30.png,56,4.0,1.074023799970746,,,0048,11,2025-03-14_14h06.01.446,Surprise recog test,2023.1.3,59.94750992352395,
56,0,56,0,,,,,,,,,,,,,,,,,,,,,,,,,,,,,,,,,,228.52117729990277,229.5450488999486,227.43964339990634,227.43964339990634,227.43964339990634,227.43964339990634,old_sceneIn_4.png,57,4.0,1.0839742000680417,,,0048,11,2025-03-14_14h06.01.446,Surprise recog test,2023.1.3,59.94750992352395,
57,0,57,0,,,,,,,,,,,,,,,,,,,,,,,,,,,,,,,,,,230.82206659996882,231.83992329996545,229.5450488999486,229.5450488999486,229.5450488999486,229.5450488999486,new_sceneOut_14.png,58,4.0,1.2781743999803439,,,0048,11,2025-03-14_14h06.01.446,Surprise recog test,2023.1.3,59.94750992352395,
58,0,58,0,,,,,,,,,,,,,,,,,,,,,,,,,,,,,,,,,,232.74073219997808,233.76143039995804,231.83992329996545,231.83992329996545,231.83992329996545,231.83992329996545,new_sceneOut_4.png,59,4.0,0.9029532000422478,,,0048,11,2025-03-14_14h06.01.446,Surprise recog test,2023.1.3,59.94750992352395,
59,0,59,0,,,,,,,,,,,,,,,,,,,,,,,,,,,,,,,,,,234.9356355998898,235.95882539998274,233.76143039995804,233.76143039995804,233.76143039995804,233.76143039995804,new_sceneIn_14.png,60,4.0,1.1754484999692068,,,0048,11,2025-03-14_14h06.01.446,Surprise recog test,2023.1.3,59.94750992352395,
60,0,60,0,,,,,,,,,,,,,,,,,,,,,,,,,,,,,,,,,,237.80506309994962,238.82662519998848,235.95882539998274,235.95882539998274,235.95882539998274,235.95882539998274,new_fruit_15.png,61,2.0,1.8478908999823034,,,0048,11,2025-03-14_14h06.01.446,Surprise recog test,2023.1.3,59.94750992352395,
61,0,61,0,,,,,,,,,,,,,,,,,,,,,,,,,,,,,,,,,,240.81348709994927,241.83438599994406,238.82662519998848,238.82662519998848,238.82662519998848,238.82662519998848,old_fruit_26.png,62,2.0,1.9851513999747112,,,0048,11,2025-03-14_14h06.01.446,Surprise recog test,2023.1.3,59.94750992352395,
62,0,62,0,,,,,,,,,,,,,,,,,,,,,,,,,,,,,,,,,,243.65854249999393,244.68699119996745,241.83438599994406,241.83438599994406,241.83438599994406,241.83438599994406,new_sceneIn_35.png,63,4.0,1.82587830000557,,,0048,11,2025-03-14_14h06.01.446,Surprise recog test,2023.1.3,59.94750992352395,
63,0,63,0,,,,,,,,,,,,,,,,,,,,,,,,,,,,,,,,,,245.70561619999353,,244.68699119996745,244.68699119996745,244.68699119996745,244.68699119996745,new_sceneIn_47.png,64,4.0,1.0210354001028463,,,0048,11,2025-03-14_14h06.01.446,Surprise recog test,2023.1.3,59.94750992352395,
64,0,64,0,,,,,,,,,,,,,,,,,,,,,,,,,,,,,,,,,,248.55265479988884,249.56211749999784,246.74307729990687,246.74307729990687,246.74307729990687,246.74307729990687,new_stationery_47.png,65,4.0,1.8156209000153467,,,0048,11,2025-03-14_14h06.01.446,Surprise recog test,2023.1.3,59.94750992352395,
65,0,65,0,,,,,,,,,,,,,,,,,,,,,,,,,,,,,,,,,,251.81756809994113,252.84505719994195,249.56211749999784,249.56211749999784,249.56211749999784,249.56211749999784,old_sceneIn_20.png,66,3.0,2.2511785000097007,,,0048,11,2025-03-14_14h06.01.446,Surprise recog test,2023.1.3,59.94750992352395,
66,0,66,0,,,,,,,,,,,,,,,,,,,,,,,,,,,,,,,,,,254.76713549997658,255.79702539998107,252.84505719994195,252.84505719994195,252.84505719994195,252.84505719994195,old_fruit_1.png,67,1.0,1.9250201999675483,,,0048,11,2025-03-14_14h06.01.446,Surprise recog test,2023.1.3,59.94750992352395,
67,0,67,0,,,,,,,,,,,,,,,,,,,,,,,,,,,,,,,,,,258.14491269993596,259.1603295999812,255.79702539998107,255.79702539998107,255.79702539998107,255.79702539998107,old_sceneIn_41.png,68,1.0,2.3430139999836683,,,0048,11,2025-03-14_14h06.01.446,Surprise recog test,2023.1.3,59.94750992352395,
68,0,68,0,,,,,,,,,,,,,,,,,,,,,,,,,,,,,,,,,,261.74779519997537,262.75345329998527,259.1603295999812,259.1603295999812,259.1603295999812,259.1603295999812,new_fruit_25.png,69,4.0,2.5795559999532998,,,0048,11,2025-03-14_14h06.01.446,Surprise recog test,2023.1.3,59.94750992352395,
69,0,69,0,,,,,,,,,,,,,,,,,,,,,,,,,,,,,,,,,,263.8482926998986,264.8734747999115,262.75345329998527,262.75345329998527,262.75345329998527,262.75345329998527,new_stationery_25.png,70,4.0,1.090327400015667,,,0048,11,2025-03-14_14h06.01.446,Surprise recog test,2023.1.3,59.94750992352395,
70,0,70,0,,,,,,,,,,,,,,,,,,,,,,,,,,,,,,,,,,267.52898009994533,268.556838599965,264.8734747999115,264.8734747999115,264.8734747999115,264.8734747999115,old_sceneIn_43.png,71,2.0,2.659166399971582,,,0048,11,2025-03-14_14h06.01.446,Surprise recog test,2023.1.3,59.94750992352395,
71,0,71,0,,,,,,,,,,,,,,,,,,,,,,,,,,,,,,,,,,269.98296119994484,270.997567399987,268.556838599965,268.556838599965,268.556838599965,268.556838599965,old_fruit_3.png,72,2.0,1.4284520000219345,,,0048,11,2025-03-14_14h06.01.446,Surprise recog test,2023.1.3,59.94750992352395,
72,0,72,0,,,,,,,,,,,,,,,,,,,,,,,,,,,,,,,,,,272.96487199992407,273.99280029989313,270.997567399987,270.997567399987,270.997567399987,270.997567399987,new_stationery_27.png,73,2.0,1.9684932000236586,,,0048,11,2025-03-14_14h06.01.446,Surprise recog test,2023.1.3,59.94750992352395,
73,0,73,0,,,,,,,,,,,,,,,,,,,,,,,,,,,,,,,,,,275.3090744999936,276.3286858999636,273.99280029989313,273.99280029989313,273.99280029989313,273.99280029989313,old_fruit_5.png,74,2.0,1.3143827999010682,,,0048,11,2025-03-14_14h06.01.446,Surprise recog test,2023.1.3,59.94750992352395,
74,0,74,0,,,,,,,,,,,,,,,,,,,,,,,,,,,,,,,,,,277.2976757999277,,276.3286858999636,276.3286858999636,276.3286858999636,276.3286858999636,old_sceneIn_34.png,75,2.0,0.9710879001067951,,,0048,11,2025-03-14_14h06.01.446,Surprise recog test,2023.1.3,59.94750992352395,
75,0,75,0,,,,,,,,,,,,,,,,,,,,,,,,,,,,,,,,,,279.4547812999226,280.4679651999613,278.32707699993625,278.32707699993625,278.32707699993625,278.32707699993625,new_fruit_11.png,76,2.0,1.1241094999713823,,,0048,11,2025-03-14_14h06.01.446,Surprise recog test,2023.1.3,59.94750992352395,
76,0,76,0,,,,,,,,,,,,,,,,,,,,,,,,,,,,,,,,,,282.3618018999696,283.3880719000008,280.4679651999613,280.4679651999613,280.4679651999613,280.4679651999613,new_sceneOut_33.png,77,1.0,1.8896319000050426,,,0048,11,2025-03-14_14h06.01.446,Surprise recog test,2023.1.3,59.94750992352395,
77,0,77,0,,,,,,,,,,,,,,,,,,,,,,,,,,,,,,,,,,285.20189979998395,286.21686109993607,283.3880719000008,283.3880719000008,283.3880719000008,283.3880719000008,old_fruit_35.png,78,1.0,1.8152370000025257,,,0048,11,2025-03-14_14h06.01.446,Surprise recog test,2023.1.3,59.94750992352395,
78,0,78,0,,,,,,,,,,,,,,,,,,,,,,,,,,,,,,,,,,289.3545964999357,290.3769616999198,286.21686109993607,286.21686109993607,286.21686109993607,286.21686109993607,old_sceneIn_8.png,79,1.0,3.1383361000334844,,,0048,11,2025-03-14_14h06.01.446,Surprise recog test,2023.1.3,59.94750992352395,
79,0,79,0,,,,,,,,,,,,,,,,,,,,,,,,,,,,,,,,,,293.01560569996946,294.03167289996054,290.3769616999198,290.3769616999198,290.3769616999198,290.3769616999198,old_fruit_7.png,80,2.0,2.640007899957709,,,0048,11,2025-03-14_14h06.01.446,Surprise recog test,2023.1.3,59.94750992352395,
80,0,80,0,,,,,,,,,,,,,,,,,,,,,,,,,,,,,,,,,,296.4182323999703,297.450538199977,294.03167289996054,294.03167289996054,294.03167289996054,294.03167289996054,old_sceneOut_37.png,81,3.0,2.3816487999865785,,,0048,11,2025-03-14_14h06.01.446,Surprise recog test,2023.1.3,59.94750992352395,
81,0,81,0,,,,,,,,,,,,,,,,,,,,,,,,,,,,,,,,,,299.0790721999947,300.10058979992755,297.450538199977,297.450538199977,297.450538199977,297.450538199977,old_sceneOut_24.png,82,2.0,1.6333771999925375,,,0048,11,2025-03-14_14h06.01.446,Surprise recog test,2023.1.3,59.94750992352395,
82,0,82,0,,,,,,,,,,,,,,,,,,,,,,,,,,,,,,,,,,301.9940834000008,303.01024149998557,300.10058979992755,300.10058979992755,300.10058979992755,300.10058979992755,new_sceneIn_16.png,83,4.0,1.8964198000030592,,,0048,11,2025-03-14_14h06.01.446,Surprise recog test,2023.1.3,59.94750992352395,
83,0,83,0,,,,,,,,,,,,,,,,,,,,,,,,,,,,,,,,,,304.1043111999752,305.1375851999037,303.01024149998557,303.01024149998557,303.01024149998557,303.01024149998557,new_sceneIn_25.png,84,4.0,1.0943674999289215,,,0048,11,2025-03-14_14h06.01.446,Surprise recog test,2023.1.3,59.94750992352395,
84,0,84,0,,,,,,,,,,,,,,,,,,,,,,,,,,,,,,,,,,306.18767839996144,,305.1375851999037,305.1375851999037,305.1375851999037,305.1375851999037,old_sceneIn_16.png,85,4.0,1.0494625000283122,,,0048,11,2025-03-14_14h06.01.446,Surprise recog test,2023.1.3,59.94750992352395,
85,0,85,0,,,,,,,,,,,,,,,,,,,,,,,,,,,,,,,,,,309.4041353999637,310.4250044999644,307.21693849994335,307.21693849994335,307.21693849994335,307.21693849994335,old_sceneIn_35.png,86,3.0,2.188627100083977,,,0048,11,2025-03-14_14h06.01.446,Surprise recog test,2023.1.3,59.94750992352395,
86,0,86,0,,,,,,,,,,,,,,,,,,,,,,,,,,,,,,,,,,312.5034096998861,313.5144326000009,310.4250044999644,310.4250044999644,310.4250044999644,310.4250044999644,old_sceneIn_11.png,87,4.0,2.079296800075099,,,0048,11,2025-03-14_14h06.01.446,Surprise recog test,2023.1.3,59.94750992352395,
87,0,87,0,,,,,,,,,,,,,,,,,,,,,,,,,,,,,,,,,,316.08013879996724,,313.5144326000009,313.5144326000009,313.5144326000009,313.5144326000009,new_stationery_10.png,88,2.0,2.5610103000653908,,,0048,11,2025-03-14_14h06.01.446,Surprise recog test,2023.1.3,59.94750992352395,
88,0,88,0,,,,,,,,,,,,,,,,,,,,,,,,,,,,,,,,,,319.3790943999775,320.397864599945,317.11199629993644,317.11199629993644,317.11199629993644,317.11199629993644,new_stationery_11.png,89,3.0,2.2624696000711992,,,0048,11,2025-03-14_14h06.01.446,Surprise recog test,2023.1.3,59.94750992352395,
89,0,89,0,,,,,,,,,,,,,,,,,,,,,,,,,,,,,,,,,,322.515056299977,323.52843799989205,320.397864599945,320.397864599945,320.397864599945,320.397864599945,new_fruit_48.png,90,2.0,2.1116323999594897,,,0048,11,2025-03-14_14h06.01.446,Surprise recog test,2023.1.3,59.94750992352395,
90,0,90,0,,,,,,,,,,,,,,,,,,,,,,,,,,,,,,,,,,326.0450025999453,327.0743152999785,323.52843799989205,323.52843799989205,323.52843799989205,323.52843799989205,new_sceneOut_42.png,91,1.0,2.516321099945344,,,0048,11,2025-03-14_14h06.01.446,Surprise recog test,2023.1.3,59.94750992352395,
91,0,91,0,,,,,,,,,,,,,,,,,,,,,,,,,,,,,,,,,,328.8686701999977,329.8784021999454,327.0743152999785,327.0743152999785,327.0743152999785,327.0743152999785,old_sceneIn_26.png,92,2.0,1.7974108000053093,,,0048,11,2025-03-14_14h06.01.446,Surprise recog test,2023.1.3,59.94750992352395,
92,0,92,0,,,,,,,,,,,,,,,,,,,,,,,,,,,,,,,,,,331.98217459989246,333.0135538999457,329.8784021999454,329.8784021999454,329.8784021999454,329.8784021999454,old_stationery_38.png,93,1.0,2.09956040000543,,,0048,11,2025-03-14_14h06.01.446,Surprise recog test,2023.1.3,59.94750992352395,
93,0,93,0,,,,,,,,,,,,,,,,,,,,,,,,,,,,,,,,,,335.26039469998796,336.26753529999405,333.0135538999457,333.0135538999457,333.0135538999457,333.0135538999457,old_fruit_11.png,94,1.0,2.249349300051108,,,0048,11,2025-03-14_14h06.01.446,Surprise recog test,2023.1.3,59.94750992352395,
94,0,94,0,,,,,,,,,,,,,,,,,,,,,,,,,,,,,,,,,,338.84522119991016,339.84930859995075,336.26753529999405,336.26753529999405,336.26753529999405,336.26753529999405,new_sceneOut_15.png,95,4.0,2.567081700079143,,,0048,11,2025-03-14_14h06.01.446,Surprise recog test,2023.1.3,59.94750992352395,
95,0,95,0,,,,,,,,,,,,,,,,,,,,,,,,,,,,,,,,,,341.905681299977,342.9196193999378,339.84930859995075,339.84930859995075,339.84930859995075,339.84930859995075,old_fruit_14.png,96,2.0,2.051065400009975,,,0048,11,2025-03-14_14h06.01.446,Surprise recog test,2023.1.3,59.94750992352395,
96,0,96,0,,,,,,,,,,,,,,,,,,,,,,,,,,,,,,,,,,345.08891989989206,346.1247324999422,342.9196193999378,342.9196193999378,342.9196193999378,342.9196193999378,new_fruit_17.png,97,3.0,2.165724700083956,,,0048,11,2025-03-14_14h06.01.446,Surprise recog test,2023.1.3,59.94750992352395,
97,0,97,0,,,,,,,,,,,,,,,,,,,,,,,,,,,,,,,,,,348.32608659996185,349.3483539998997,346.1247324999422,346.1247324999422,346.1247324999422,346.1247324999422,new_sceneOut_18.png,98,4.0,2.2049183000344783,,,0048,11,2025-03-14_14h06.01.446,Surprise recog test,2023.1.3,59.94750992352395,
98,0,98,0,,,,,,,,,,,,,,,,,,,,,,,,,,,,,,,,,,350.91424659988843,351.92699939990416,349.3483539998997,349.3483539998997,349.3483539998997,349.3483539998997,new_stationery_23.png,99,3.0,1.5663323999615386,,,0048,11,2025-03-14_14h06.01.446,Surprise recog test,2023.1.3,59.94750992352395,
99,0,99,0,,,,,,,,,,,,,,,,,,,,,,,,,,,,,,,,,,355.04688179993536,356.0732976999134,351.92699939990416,351.92699939990416,351.92699939990416,351.92699939990416,old_sceneOut_27.png,100,4.0,3.116636999999173,,,0048,11,2025-03-14_14h06.01.446,Surprise recog test,2023.1.3,59.94750992352395,
100,0,100,0,,,,,,,,,,,,,,,,,,,,,,,,,,,,,,,,,,357.5773300000001,358.59731659991667,356.0732976999134,356.0732976999134,356.0732976999134,356.0732976999134,new_fruit_44.png,101,4.0,1.5059737999690697,,,0048,11,2025-03-14_14h06.01.446,Surprise recog test,2023.1.3,59.94750992352395,
101,0,101,0,,,,,,,,,,,,,,,,,,,,,,,,,,,,,,,,,,359.4143773999531,360.42089089995716,358.59731659991667,358.59731659991667,358.59731659991667,358.59731659991667,new_fruit_1.png,102,4.0,0.8203642000444233,,,0048,11,2025-03-14_14h06.01.446,Surprise recog test,2023.1.3,59.94750992352395,
102,0,102,0,,,,,,,,,,,,,,,,,,,,,,,,,,,,,,,,,,361.79449529992417,362.81702889990993,360.42089089995716,360.42089089995716,360.42089089995716,360.42089089995716,old_fruit_31.png,103,4.0,1.369645299972035,,,0048,11,2025-03-14_14h06.01.446,Surprise recog test,2023.1.3,59.94750992352395,
103,0,103,0,,,,,,,,,,,,,,,,,,,,,,,,,,,,,,,,,,363.6370576999616,,362.81702889990993,362.81702889990993,362.81702889990993,362.81702889990993,old_fruit_28.png,104,4.0,0.8220749000320211,,,0048,11,2025-03-14_14h06.01.446,Surprise recog test,2023.1.3,59.94750992352395,
104,0,104,0,,,,,,,,,,,,,,,,,,,,,,,,,,,,,,,,,,366.3710078999866,,364.6568511999212,364.6568511999212,364.6568511999212,364.6568511999212,old_sceneIn_37.png,105,4.0,1.7100661000004038,,,0048,11,2025-03-14_14h06.01.446,Surprise recog test,2023.1.3,59.94750992352395,
105,0,105,0,,,,,,,,,,,,,,,,,,,,,,,,,,,,,,,,,,368.32927959994413,369.3514728998998,367.40339189989027,367.40339189989027,367.40339189989027,367.40339189989027,new_sceneIn_20.png,106,4.0,0.9278044999809936,,,0048,11,2025-03-14_14h06.01.446,Surprise recog test,2023.1.3,59.94750992352395,
106,0,106,0,,,,,,,,,,,,,,,,,,,,,,,,,,,,,,,,,,370.8359291999368,371.86421219992917,369.3514728998998,369.3514728998998,369.3514728998998,369.3514728998998,old_stationery_44.png,107,4.0,1.4860141000244766,,,0048,11,2025-03-14_14h06.01.446,Surprise recog test,2023.1.3,59.94750992352395,
107,0,107,0,,,,,,,,,,,,,,,,,,,,,,,,,,,,,,,,,,374.1616568999598,,371.86421219992917,371.86421219992917,371.86421219992917,371.86421219992917,old_stationery_3.png,108,2.0,2.30108719994314,,,0048,11,2025-03-14_14h06.01.446,Surprise recog test,2023.1.3,59.94750992352395,
108,0,108,0,,,,,,,,,,,,,,,,,,,,,,,,,,,,,,,,,,378.14507239998784,379.1528976999689,375.18863559991587,375.18863559991587,375.18863559991587,375.18863559991587,new_fruit_6.png,109,1.0,2.9577685999684036,,,0048,11,2025-03-14_14h06.01.446,Surprise recog test,2023.1.3,59.94750992352395,
109,0,109,0,,,,,,,,,,,,,,,,,,,,,,,,,,,,,,,,,,381.06367339997087,382.0802607999649,379.1528976999689,379.1528976999689,379.1528976999689,379.1528976999689,old_fruit_12.png,110,2.0,1.9013955000555143,,,0048,11,2025-03-14_14h06.01.446,Surprise recog test,2023.1.3,59.94750992352395,
110,0,110,0,,,,,,,,,,,,,,,,,,,,,,,,,,,,,,,,,,384.09402389999013,385.11991919996217,382.0802607999649,382.0802607999649,382.0802607999649,382.0802607999649,new_sceneIn_15.png,111,2.0,2.0153934999834746,,,0048,11,2025-03-14_14h06.01.446,Surprise recog test,2023.1.3,59.94750992352395,
111,0,111,0,,,,,,,,,,,,,,,,,,,,,,,,,,,,,,,,,,387.042498899973,388.06491889990866,385.11991919996217,385.11991919996217,385.11991919996217,385.11991919996217,old_sceneOut_9.png,112,1.0,1.924247800023295,,,0048,11,2025-03-14_14h06.01.446,Surprise recog test,2023.1.3,59.94750992352395,
112,0,112,0,,,,,,,,,,,,,,,,,,,,,,,,,,,,,,,,,,389.7261978999013,390.7585436999798,388.06491889990866,388.06491889990866,388.06491889990866,388.06491889990866,old_stationery_42.png,113,4.0,1.6614324999973178,,,0048,11,2025-03-14_14h06.01.446,Surprise recog test,2023.1.3,59.94750992352395,
113,0,113,0,,,,,,,,,,,,,,,,,,,,,,,,,,,,,,,,,,392.0576684999978,393.06420119991526,390.7585436999798,390.7585436999798,390.7585436999798,390.7585436999798,old_fruit_37.png,114,4.0,1.2998381999786943,,,0048,11,2025-03-14_14h06.01.446,Surprise recog test,2023.1.3,59.94750992352395,
114,0,114,0,,,,,,,,,,,,,,,,,,,,,,,,,,,,,,,,,,393.98429949989077,395.01030979992356,393.06420119991526,393.06420119991526,393.06420119991526,393.06420119991526,new_fruit_3.png,115,4.0,0.9136189999990165,,,0048,11,2025-03-14_14h06.01.446,Surprise recog test,2023.1.3,59.94750992352395,
115,0,115,0,,,,,,,,,,,,,,,,,,,,,,,,,,,,,,,,,,395.90210169996135,396.92154309991747,395.01030979992356,395.01030979992356,395.01030979992356,395.01030979992356,new_stationery_9.png,116,4.0,0.8937697999645025,,,0048,11,2025-03-14_14h06.01.446,Surprise recog test,2023.1.3,59.94750992352395,
116,0,116,0,,,,,,,,,,,,,,,,,,,,,,,,,,,,,,,,,,398.78015909995884,399.79790769994725,396.92154309991747,396.92154309991747,396.92154309991747,396.92154309991747,old_sceneIn_24.png,117,3.0,1.8560995000880212,,,0048,11,2025-03-14_14h06.01.446,Surprise recog test,2023.1.3,59.94750992352395,
117,0,117,0,,,,,,,,,,,,,,,,,,,,,,,,,,,,,,,,,,400.97362299996894,401.98828289995436,399.79790769994725,399.79790769994725,399.79790769994725,399.79790769994725,new_stationery_14.png,118,3.0,1.1784172999905422,,,0048,11,2025-03-14_14h06.01.446,Surprise recog test,2023.1.3,59.94750992352395,
118,0,118,0,,,,,,,,,,,,,,,,,,,,,,,,,,,,,,,,,,404.38303669996094,405.4039886998944,401.98828289995436,401.98828289995436,401.98828289995436,401.98828289995436,old_sceneIn_47.png,119,1.0,2.3900240000803024,,,0048,11,2025-03-14_14h06.01.446,Surprise recog test,2023.1.3,59.94750992352395,
119,0,119,0,,,,,,,,,,,,,,,,,,,,,,,,,,,,,,,,,,407.6759115998866,408.69371239992324,405.4039886998944,405.4039886998944,405.4039886998944,405.4039886998944,old_sceneOut_43.png,120,2.0,2.2728370999684557,,,0048,11,2025-03-14_14h06.01.446,Surprise recog test,2023.1.3,59.94750992352395,
120,0,120,0,,,,,,,,,,,,,,,,,,,,,,,,,,,,,,,,,,410.43880299990997,411.46670459990855,408.69371239992324,408.69371239992324,408.69371239992324,408.69371239992324,old_stationery_34.png,121,4.0,1.740236199926585,,,0048,11,2025-03-14_14h06.01.446,Surprise recog test,2023.1.3,59.94750992352395,
121,0,121,0,,,,,,,,,,,,,,,,,,,,,,,,,,,,,,,,,,413.2651990999002,414.2894438999938,411.46670459990855,411.46670459990855,411.46670459990855,411.46670459990855,new_fruit_8.png,122,3.0,1.8028507999842986,,,0048,11,2025-03-14_14h06.01.446,Surprise recog test,2023.1.3,59.94750992352395,
122,0,122,0,,,,,,,,,,,,,,,,,,,,,,,,,,,,,,,,,,416.2669234999921,417.2845592999365,414.2894438999938,414.2894438999938,414.2894438999938,414.2894438999938,new_sceneIn_50.png,123,2.0,1.977095099980943,,,0048,11,2025-03-14_14h06.01.446,Surprise recog test,2023.1.3,59.94750992352395,
123,0,123,0,,,,,,,,,,,,,,,,,,,,,,,,,,,,,,,,,,418.97278209996875,419.987309499993,417.2845592999365,417.2845592999365,417.2845592999365,417.2845592999365,old_stationery_33.png,124,4.0,1.6822054999647662,,,0048,11,2025-03-14_14h06.01.446,Surprise recog test,2023.1.3,59.94750992352395,
124,0,124,0,,,,,,,,,,,,,,,,,,,,,,,,,,,,,,,,,,421.3972777999006,422.418085699901,419.987309499993,419.987309499993,419.987309499993,419.987309499993,new_fruit_32.png,125,4.0,1.4055031999014318,,,0048,11,2025-03-14_14h06.01.446,Surprise recog test,2023.1.3,59.94750992352395,
125,0,125,0,,,,,,,,,,,,,,,,,,,,,,,,,,,,,,,,,,424.35323399992194,,422.418085699901,422.418085699901,422.418085699901,422.418085699901,old_sceneIn_14.png,126,1.0,1.9365735999308527,,,0048,11,2025-03-14_14h06.01.446,Surprise recog test,2023.1.3,59.94750992352395,
126,0,126,0,,,,,,,,,,,,,,,,,,,,,,,,,,,,,,,,,,427.1031279999297,428.1108765999088,425.38656829996035,425.38656829996035,425.38656829996035,425.38656829996035,new_stationery_34.png,127,4.0,1.718269499950111,,,0048,11,2025-03-14_14h06.01.446,Surprise recog test,2023.1.3,59.94750992352395,
127,0,127,0,,,,,,,,,,,,,,,,,,,,,,,,,,,,,,,,,,429.2852888999041,430.30709269992076,428.1108765999088,428.1108765999088,428.1108765999088,428.1108765999088,new_fruit_28.png,128,4.0,1.1680520999943838,,,0048,11,2025-03-14_14h06.01.446,Surprise recog test,2023.1.3,59.94750992352395,
128,0,128,0,,,,,,,,,,,,,,,,,,,,,,,,,,,,,,,,,,431.4911924999906,,430.30709269992076,430.30709269992076,430.30709269992076,430.30709269992076,new_fruit_9.png,129,4.0,1.185657799942419,,,0048,11,2025-03-14_14h06.01.446,Surprise recog test,2023.1.3,59.94750992352395,
129,0,129,0,,,,,,,,,,,,,,,,,,,,,,,,,,,,,,,,,,434.75958849990275,435.77679409994744,432.52720599994063,432.52720599994063,432.52720599994063,432.52720599994063,new_sceneOut_16.png,130,3.0,2.233602000051178,,,0048,11,2025-03-14_14h06.01.446,Surprise recog test,2023.1.3,59.94750992352395,
130,0,130,0,,,,,,,,,,,,,,,,,,,,,,,,,,,,,,,,,,438.2114085999783,439.2316737999208,435.77679409994744,435.77679409994744,435.77679409994744,435.77679409994744,new_sceneOut_9.png,131,5.0,2.43254710000474,,,0048,11,2025-03-14_14h06.01.446,Surprise recog test,2023.1.3,59.94750992352395,
131,0,131,0,,,,,,,,,,,,,,,,,,,,,,,,,,,,,,,,,,441.73103309993166,442.74927049991675,439.2316737999208,439.2316737999208,439.2316737999208,439.2316737999208,old_sceneIn_45.png,132,3.0,2.5009575999574736,,,0048,11,2025-03-14_14h06.01.446,Surprise recog test,2023.1.3,59.94750992352395,
132,0,132,0,,,,,,,,,,,,,,,,,,,,,,,,,,,,,,,,,,445.5505436999956,446.57104589999653,442.74927049991675,442.74927049991675,442.74927049991675,442.74927049991675,old_stationery_45.png,133,1.0,2.8012115999590605,,,0048,11,2025-03-14_14h06.01.446,Surprise recog test,2023.1.3,59.94750992352395,
133,0,133,0,,,,,,,,,,,,,,,,,,,,,,,,,,,,,,,,,,449.0732741999673,,446.57104589999653,446.57104589999653,446.57104589999653,446.57104589999653,new_fruit_41.png,134,4.0,2.504422100028023,,,0048,11,2025-03-14_14h06.01.446,Surprise recog test,2023.1.3,59.94750992352395,
134,0,134,0,,,,,,,,,,,,,,,,,,,,,,,,,,,,,,,,,,451.2892932998948,452.31040339998435,450.107326899888,450.107326899888,450.107326899888,450.107326899888,new_sceneIn_10.png,135,4.0,1.1860417000716552,,,0048,11,2025-03-14_14h06.01.446,Surprise recog test,2023.1.3,59.94750992352395,
135,0,135,0,,,,,,,,,,,,,,,,,,,,,,,,,,,,,,,,,,454.138438199996,455.14924919989426,452.31040339998435,452.31040339998435,452.31040339998435,452.31040339998435,old_sceneIn_28.png,136,2.0,1.8289590999484062,,,0048,11,2025-03-14_14h06.01.446,Surprise recog test,2023.1.3,59.94750992352395,
136,0,136,0,,,,,,,,,,,,,,,,,,,,,,,,,,,,,,,,,,457.01739609998185,458.0437720998889,455.14924919989426,455.14924919989426,455.14924919989426,455.14924919989426,new_stationery_50.png,137,2.0,1.864013799931854,,,0048,11,2025-03-14_14h06.01.446,Surprise recog test,2023.1.3,59.94750992352395,
137,0,137,0,,,,,,,,,,,,,,,,,,,,,,,,,,,,,,,,,,459.4923099000007,460.50006349990144,458.0437720998889,458.0437720998889,458.0437720998889,458.0437720998889,old_sceneOut_26.png,138,4.0,1.4482697999337688,,,0048,11,2025-03-14_14h06.01.446,Surprise recog test,2023.1.3,59.94750992352395,
138,0,138,0,,,,,,,,,,,,,,,,,,,,,,,,,,,,,,,,,,462.5480345999822,463.5669699999271,460.50006349990144,460.50006349990144,460.50006349990144,460.50006349990144,old_sceneOut_42.png,139,1.0,2.0436720000579953,,,0048,11,2025-03-14_14h06.01.446,Surprise recog test,2023.1.3,59.94750992352395,
139,0,139,0,,,,,,,,,,,,,,,,,,,,,,,,,,,,,,,,,,465.7270289999433,466.75424139993265,463.5669699999271,463.5669699999271,463.5669699999271,463.5669699999271,new_sceneOut_12.png,140,4.0,2.161500300047919,,,0048,11,2025-03-14_14h06.01.446,Surprise recog test,2023.1.3,59.94750992352395,
140,0,140,0,,,,,,,,,,,,,,,,,,,,,,,,,,,,,,,,,,468.2128978999099,469.2274227999151,466.75424139993265,466.75424139993265,466.75424139993265,466.75424139993265,new_fruit_45.png,141,4.0,1.4608007998904213,,,0048,11,2025-03-14_14h06.01.446,Surprise recog test,2023.1.3,59.94750992352395,
141,0,141,0,,,,,,,,,,,,,,,,,,,,,,,,,,,,,,,,,,470.3875778999645,471.40728609997313,469.2274227999151,469.2274227999151,469.2274227999151,469.2274227999151,new_sceneOut_31.png,142,4.0,1.1537566999904811,,,0048,11,2025-03-14_14h06.01.446,Surprise recog test,2023.1.3,59.94750992352395,
142,0,142,0,,,,,,,,,,,,,,,,,,,,,,,,,,,,,,,,,,474.07448869990185,475.10144539992325,471.40728609997313,471.40728609997313,471.40728609997313,471.40728609997313,new_sceneOut_40.png,143,2.0,2.6649903000798076,,,0048,11,2025-03-14_14h06.01.446,Surprise recog test,2023.1.3,59.94750992352395,
143,0,143,0,,,,,,,,,,,,,,,,,,,,,,,,,,,,,,,,,,477.9156267999206,,475.10144539992325,475.10144539992325,475.10144539992325,475.10144539992325,old_stationery_47.png,144,1.0,2.817345099989325,,,0048,11,2025-03-14_14h06.01.446,Surprise recog test,2023.1.3,59.94750992352395,
144,0,144,0,,,,,,,,,,,,,,,,,,,,,,,,,,,,,,,,,,483.25359279999975,484.27351400000043,478.94633329997305,478.94633329997305,478.94633329997305,478.94633329997305,old_sceneOut_16.png,145,4.0,4.309631600044668,,,0048,11,2025-03-14_14h06.01.446,Surprise recog test,2023.1.3,59.94750992352395,
145,0,145,0,,,,,,,,,,,,,,,,,,,,,,,,,,,,,,,,,,486.80415589991026,,484.27351400000043,484.27351400000043,484.27351400000043,484.27351400000043,new_fruit_49.png,146,3.0,2.526830599992536,,,0048,11,2025-03-14_14h06.01.446,Surprise recog test,2023.1.3,59.94750992352395,
146,0,146,0,,,,,,,,,,,,,,,,,,,,,,,,,,,,,,,,,,490.25291339994874,491.27509549993556,487.8382716999622,487.8382716999622,487.8382716999622,487.8382716999622,old_stationery_23.png,147,1.0,2.4165559998946264,,,0048,11,2025-03-14_14h06.01.446,Surprise recog test,2023.1.3,59.94750992352395,
147,0,147,0,,,,,,,,,,,,,,,,,,,,,,,,,,,,,,,,,,493.74962259992026,494.77660989994183,491.27509549993556,491.27509549993556,491.27509549993556,491.27509549993556,old_sceneOut_22.png,148,3.0,2.4761722000548616,,,0048,11,2025-03-14_14h06.01.446,Surprise recog test,2023.1.3,59.94750992352395,
148,0,148,0,,,,,,,,,,,,,,,,,,,,,,,,,,,,,,,,,,496.74338649993297,497.76625789992977,494.77660989994183,494.77660989994183,494.77660989994183,494.77660989994183,old_sceneOut_6.png,149,3.0,1.961560699972324,,,0048,11,2025-03-14_14h06.01.446,Surprise recog test,2023.1.3,59.94750992352395,
149,0,149,0,,,,,,,,,,,,,,,,,,,,,,,,,,,,,,,,,,498.7823710999219,,497.76625789992977,497.76625789992977,497.76625789992977,497.76625789992977,new_sceneIn_38.png,150,3.0,1.0201299999607727,,,0048,11,2025-03-14_14h06.01.446,Surprise recog test,2023.1.3,59.94750992352395,
150,0,150,0,,,,,,,,,,,,,,,,,,,,,,,,,,,,,,,,,,502.49285359994974,503.50637819990516,499.81259839993436,499.81259839993436,499.81259839993436,499.81259839993436,new_sceneOut_2.png,151,4.0,2.683668400044553,,,0048,11,2025-03-14_14h06.01.446,Surprise recog test,2023.1.3,59.94750992352395,
151,0,151,0,,,,,,,,,,,,,,,,,,,,,,,,,,,,,,,,,,504.4147643999895,505.43610319995787,503.50637819990516,503.50637819990516,503.50637819990516,503.50637819990516,new_stationery_46.png,152,4.0,0.9040919000981376,,,0048,11,2025-03-14_14h06.01.446,Surprise recog test,2023.1.3,59.94750992352395,
152,0,152,0,,,,,,,,,,,,,,,,,,,,,,,,,,,,,,,,,,507.66473479999695,508.693339999998,505.43610319995787,505.43610319995787,505.43610319995787,505.43610319995787,new_sceneIn_18.png,153,3.0,2.2307961999904364,,,0048,11,2025-03-14_14h06.01.446,Surprise recog test,2023.1.3,59.94750992352395,
153,0,153,0,,,,,,,,,,,,,,,,,,,,,,,,,,,,,,,,,,510.41475209989585,511.440917299944,508.693339999998,508.693339999998,508.693339999998,508.693339999998,old_sceneIn_50.png,154,1.0,1.7245328000281006,,,0048,11,2025-03-14_14h06.01.446,Surprise recog test,2023.1.3,59.94750992352395,
154,0,154,0,,,,,,,,,,,,,,,,,,,,,,,,,,,,,,,,,,513.7971352000022,514.8311944999732,511.440917299944,511.440917299944,511.440917299944,511.440917299944,new_fruit_22.png,155,2.0,2.358063400024548,,,0048,11,2025-03-14_14h06.01.446,Surprise recog test,2023.1.3,59.94750992352395,
155,0,155,0,,,,,,,,,,,,,,,,,,,,,,,,,,,,,,,,,,517.1772117998917,518.1974123999244,514.8311944999732,514.8311944999732,514.8311944999732,514.8311944999732,old_sceneIn_44.png,156,4.0,2.344780199928209,,,0048,11,2025-03-14_14h06.01.446,Surprise recog test,2023.1.3,59.94750992352395,
156,0,156,0,,,,,,,,,,,,,,,,,,,,,,,,,,,,,,,,,,520.8164300998906,,518.1974123999244,518.1974123999244,518.1974123999244,518.1974123999244,old_sceneIn_39.png,157,3.0,2.6195501000620425,,,0048,11,2025-03-14_14h06.01.446,Surprise recog test,2023.1.3,59.94750992352395,
157,0,157,0,,,,,,,,,,,,,,,,,,,,,,,,,,,,,,,,,,523.7763975999551,524.7915128999157,521.8484641999239,521.8484641999239,521.8484641999239,521.8484641999239,old_fruit_34.png,158,2.0,1.927357399952598,,,0048,11,2025-03-14_14h06.01.446,Surprise recog test,2023.1.3,59.94750992352395,
158,0,158,0,,,,,,,,,,,,,,,,,,,,,,,,,,,,,,,,,,526.8258085999405,527.8646861999296,524.7915128999157,524.7915128999157,524.7915128999157,524.7915128999157,old_sceneIn_33.png,159,4.0,2.0294973000418395,,,0048,11,2025-03-14_14h06.01.446,Surprise recog test,2023.1.3,59.94750992352395,
159,0,159,0,,,,,,,,,,,,,,,,,,,,,,,,,,,,,,,,,,528.9153882999672,529.9361171999481,527.8646861999296,527.8646861999296,527.8646861999296,527.8646861999296,new_sceneIn_24.png,160,4.0,1.0564088999526575,,,0048,11,2025-03-14_14h06.01.446,Surprise recog test,2023.1.3,59.94750992352395,
160,0,160,0,,,,,,,,,,,,,,,,,,,,,,,,,,,,,,,,,,530.9954099999741,532.0173924999544,529.9361171999481,529.9361171999481,529.9361171999481,529.9361171999481,old_sceneOut_41.png,161,4.0,1.0600322999525815,,,0048,11,2025-03-14_14h06.01.446,Surprise recog test,2023.1.3,59.94750992352395,
161,0,161,0,,,,,,,,,,,,,,,,,,,,,,,,,,,,,,,,,,533.0249140999513,534.0362463999772,532.0173924999544,532.0173924999544,532.0173924999544,532.0173924999544,old_fruit_29.png,162,4.0,1.0082822000840679,,,0048,11,2025-03-14_14h06.01.446,Surprise recog test,2023.1.3,59.94750992352395,
162,0,162,0,,,,,,,,,,,,,,,,,,,,,,,,,,,,,,,,,,535.3038131999783,536.3173248999519,534.0362463999772,534.0362463999772,534.0362463999772,534.0362463999772,old_sceneIn_10.png,163,4.0,1.2662243999075145,,,0048,11,2025-03-14_14h06.01.446,Surprise recog test,2023.1.3,59.94750992352395,
163,0,163,0,,,,,,,,,,,,,,,,,,,,,,,,,,,,,,,,,,537.8673422998982,538.9074094999814,536.3173248999519,536.3173248999519,536.3173248999519,536.3173248999519,old_sceneIn_23.png,164,4.0,1.5458548000315204,,,0048,11,2025-03-14_14h06.01.446,Surprise recog test,2023.1.3,59.94750992352395,
164,0,164,0,,,,,,,,,,,,,,,,,,,,,,,,,,,,,,,,,,541.2324673999101,,538.9074094999814,538.9074094999814,538.9074094999814,538.9074094999814,old_stationery_19.png,165,3.0,2.3318365999730304,,,0048,11,2025-03-14_14h06.01.446,Surprise recog test,2023.1.3,59.94750992352395,
165,0,165,0,,,,,,,,,,,,,,,,,,,,,,,,,,,,,,,,,,543.2858685998945,,542.2692288999679,542.2692288999679,542.2692288999679,542.2692288999679,new_stationery_13.png,166,3.0,1.0212655999930575,,,0048,11,2025-03-14_14h06.01.446,Surprise recog test,2023.1.3,59.94750992352395,
166,0,166,0,,,,,,,,,,,,,,,,,,,,,,,,,,,,,,,,,,547.4601550999796,548.4961670999182,544.3167809000006,544.3167809000006,544.3167809000006,544.3167809000006,new_sceneIn_33.png,167,4.0,3.144520999980159,,,0048,11,2025-03-14_14h06.01.446,Surprise recog test,2023.1.3,59.94750992352395,
167,0,167,0,,,,,,,,,,,,,,,,,,,,,,,,,,,,,,,,,,549.5793223999208,550.606075199903,548.4961670999182,548.4961670999182,548.4961670999182,548.4961670999182,old_fruit_42.png,168,4.0,1.0853306000353768,,,0048,11,2025-03-14_14h06.01.446,Surprise recog test,2023.1.3,59.94750992352395,
168,0,168,0,,,,,,,,,,,,,,,,,,,,,,,,,,,,,,,,,,553.075082999887,554.0926590999588,550.606075199903,550.606075199903,550.606075199903,550.606075199903,new_sceneOut_45.png,169,1.0,2.4703253000043333,,,0048,11,2025-03-14_14h06.01.446,Surprise recog test,2023.1.3,59.94750992352395,
169,0,169,0,,,,,,,,,,,,,,,,,,,,,,,,,,,,,,,,,,556.3596432999475,557.3801561999135,554.0926590999588,554.0926590999588,554.0926590999588,554.0926590999588,old_sceneOut_50.png,170,4.0,2.2645936000626534,,,0048,11,2025-03-14_14h06.01.446,Surprise recog test,2023.1.3,59.94750992352395,
170,0,170,0,,,,,,,,,,,,,,,,,,,,,,,,,,,,,,,,,,559.2866835999303,560.3016663999297,557.3801561999135,557.3801561999135,557.3801561999135,557.3801561999135,old_sceneIn_12.png,171,4.0,1.9070182000286877,,,0048,11,2025-03-14_14h06.01.446,Surprise recog test,2023.1.3,59.94750992352395,
171,0,171,0,,,,,,,,,,,,,,,,,,,,,,,,,,,,,,,,,,562.2895936999703,563.3063982999884,560.3016663999297,560.3016663999297,560.3016663999297,560.3016663999297,old_sceneIn_9.png,172,1.0,1.9856009000213817,,,0048,11,2025-03-14_14h06.01.446,Surprise recog test,2023.1.3,59.94750992352395,
172,0,172,0,,,,,,,,,,,,,,,,,,,,,,,,,,,,,,,,,,564.5617602999555,565.5900277999463,563.3063982999884,563.3063982999884,563.3063982999884,563.3063982999884,new_sceneIn_13.png,173,4.0,1.248811399913393,,,0048,11,2025-03-14_14h06.01.446,Surprise recog test,2023.1.3,59.94750992352395,
173,0,173,0,,,,,,,,,,,,,,,,,,,,,,,,,,,,,,,,,,567.5653180999216,568.5906486999011,565.5900277999463,565.5900277999463,565.5900277999463,565.5900277999463,old_sceneIn_21.png,174,2.0,1.9774296999676153,,,0048,11,2025-03-14_14h06.01.446,Surprise recog test,2023.1.3,59.94750992352395,
174,0,174,0,,,,,,,,,,,,,,,,,,,,,,,,,,,,,,,,,,569.5397588999476,,568.5906486999011,568.5906486999011,568.5906486999011,568.5906486999011,new_sceneOut_22.png,175,2.0,0.9509148999350145,,,0048,11,2025-03-14_14h06.01.446,Surprise recog test,2023.1.3,59.94750992352395,
175,0,175,0,,,,,,,,,,,,,,,,,,,,,,,,,,,,,,,,,,573.8742306999629,574.8954803999513,570.5742422998883,570.5742422998883,570.5742422998883,570.5742422998883,new_stationery_49.png,176,1.0,3.298513300018385,,,0048,11,2025-03-14_14h06.01.446,Surprise recog test,2023.1.3,59.94750992352395,
176,0,176,0,,,,,,,,,,,,,,,,,,,,,,,,,,,,,,,,,,576.1094738999382,577.1286039999686,574.8954803999513,574.8954803999513,574.8954803999513,574.8954803999513,old_sceneOut_30.png,177,1.0,1.2126208000117913,,,0048,11,2025-03-14_14h06.01.446,Surprise recog test,2023.1.3,59.94750992352395,
177,0,177,0,,,,,,,,,,,,,,,,,,,,,,,,,,,,,,,,,,577.9943568999879,579.0154603999108,577.1286039999686,577.1286039999686,577.1286039999686,577.1286039999686,old_fruit_33.png,178,1.0,0.8632654000539333,,,0048,11,2025-03-14_14h06.01.446,Surprise recog test,2023.1.3,59.94750992352395,
178,0,178,0,,,,,,,,,,,,,,,,,,,,,,,,,,,,,,,,,,580.2897559999255,581.3008814998902,579.0154603999108,579.0154603999108,579.0154603999108,579.0154603999108,old_stationery_39.png,179,1.0,1.2763108999934047,,,0048,11,2025-03-14_14h06.01.446,Surprise recog test,2023.1.3,59.94750992352395,
179,0,179,0,,,,,,,,,,,,,,,,,,,,,,,,,,,,,,,,,,583.3090320999036,584.3236560999649,581.3008814998902,581.3008814998902,581.3008814998902,581.3008814998902,old_sceneOut_40.png,180,4.0,2.0019536999752745,,,0048,11,2025-03-14_14h06.01.446,Surprise recog test,2023.1.3,59.94750992352395,
180,0,180,0,,,,,,,,,,,,,,,,,,,,,,,,,,,,,,,,,,585.9507115999004,586.9706844999455,584.3236560999649,584.3236560999649,584.3236560999649,584.3236560999649,old_sceneIn_36.png,181,4.0,1.6196920999791473,,,0048,11,2025-03-14_14h06.01.446,Surprise recog test,2023.1.3,59.94750992352395,
181,0,181,0,,,,,,,,,,,,,,,,,,,,,,,,,,,,,,,,,,587.9480571999447,588.960552399978,586.9706844999455,586.9706844999455,586.9706844999455,586.9706844999455,new_sceneIn_21.png,182,4.0,0.9765116999624297,,,0048,11,2025-03-14_14h06.01.446,Surprise recog test,2023.1.3,59.94750992352395,
182,0,182,0,,,,,,,,,,,,,,,,,,,,,,,,,,,,,,,,,,589.911110999994,590.9400724999141,588.960552399978,588.960552399978,588.960552399978,588.960552399978,new_sceneIn_48.png,183,4.0,0.9441030999878421,,,0048,11,2025-03-14_14h06.01.446,Surprise recog test,2023.1.3,59.94750992352395,
183,0,183,0,,,,,,,,,,,,,,,,,,,,,,,,,,,,,,,,,,592.5409399999771,593.5591264999239,590.9400724999141,590.9400724999141,590.9400724999141,590.9400724999141,new_fruit_7.png,184,4.0,1.6011266000568867,,,0048,11,2025-03-14_14h06.01.446,Surprise recog test,2023.1.3,59.94750992352395,
184,0,184,0,,,,,,,,,,,,,,,,,,,,,,,,,,,,,,,,,,594.2245200999314,595.2321140998974,593.5591264999239,593.5591264999239,593.5591264999239,593.5591264999239,old_sceneIn_31.png,185,4.0,0.665048599941656,,,0048,11,2025-03-14_14h06.01.446,Surprise recog test,2023.1.3,59.94750992352395,
185,0,185,0,,,,,,,,,,,,,,,,,,,,,,,,,,,,,,,,,,596.2703422999475,597.2909884999972,595.2321140998974,595.2321140998974,595.2321140998974,595.2321140998974,new_sceneIn_7.png,186,4.0,1.0341937000630423,,,0048,11,2025-03-14_14h06.01.446,Surprise recog test,2023.1.3,59.94750992352395,
186,0,186,0,,,,,,,,,,,,,,,,,,,,,,,,,,,,,,,,,,598.1857518999605,599.215965099982,597.2909884999972,597.2909884999972,597.2909884999972,597.2909884999972,old_fruit_27.png,187,4.0,0.8969220999861136,,,0048,11,2025-03-14_14h06.01.446,Surprise recog test,2023.1.3,59.94750992352395,
187,0,187,0,,,,,,,,,,,,,,,,,,,,,,,,,,,,,,,,,,600.2128537999233,601.2323566999985,599.215965099982,599.215965099982,599.215965099982,599.215965099982,new_fruit_30.png,188,4.0,0.995792799978517,,,0048,11,2025-03-14_14h06.01.446,Surprise recog test,2023.1.3,59.94750992352395,
188,0,188,0,,,,,,,,,,,,,,,,,,,,,,,,,,,,,,,,,,601.9938004999422,603.0124140999978,601.2323566999985,601.2323566999985,601.2323566999985,601.2323566999985,new_sceneOut_17.png,189,4.0,0.7639347000513226,,,0048,11,2025-03-14_14h06.01.446,Surprise recog test,2023.1.3,59.94750992352395,
189,0,189,0,,,,,,,,,,,,,,,,,,,,,,,,,,,,,,,,,,604.391966599971,605.4189758999273,603.0124140999978,603.0124140999978,603.0124140999978,603.0124140999978,old_fruit_43.png,190,4.0,1.3788472999585792,,,0048,11,2025-03-14_14h06.01.446,Surprise recog test,2023.1.3,59.94750992352395,
190,0,190,0,,,,,,,,,,,,,,,,,,,,,,,,,,,,,,,,,,607.9359384999843,608.94899049995,605.4189758999273,605.4189758999273,605.4189758999273,605.4189758999273,new_stationery_12.png,191,1.0,2.518828999949619,,,0048,11,2025-03-14_14h06.01.446,Surprise recog test,2023.1.3,59.94750992352395,
191,0,191,0,,,,,,,,,,,,,,,,,,,,,,,,,,,,,,,,,,610.4467107999371,611.462536899955,608.94899049995,608.94899049995,608.94899049995,608.94899049995,old_sceneIn_46.png,192,4.0,1.4977876999182627,,,0048,11,2025-03-14_14h06.01.446,Surprise recog test,2023.1.3,59.94750992352395,
192,0,192,0,,,,,,,,,,,,,,,,,,,,,,,,,,,,,,,,,,612.472985399887,613.4933666998986,611.462536899955,611.462536899955,611.462536899955,611.462536899955,new_sceneIn_37.png,193,4.0,1.0006846999749541,,,0048,11,2025-03-14_14h06.01.446,Surprise recog test,2023.1.3,59.94750992352395,
193,0,193,0,,,,,,,,,,,,,,,,,,,,,,,,,,,,,,,,,,614.3788644999731,,613.4933666998986,613.4933666998986,613.4933666998986,613.4933666998986,new_fruit_24.png,194,4.0,0.8871411000145599,,,0048,11,2025-03-14_14h06.01.446,Surprise recog test,2023.1.3,59.94750992352395,
194,0,194,0,,,,,,,,,,,,,,,,,,,,,,,,,,,,,,,,,,616.229394099908,,615.3987384999637,615.3987384999637,615.3987384999637,615.3987384999637,old_sceneIn_3.png,195,4.0,0.8268257000017911,,,0048,11,2025-03-14_14h06.01.446,Surprise recog test,2023.1.3,59.94750992352395,
195,0,195,0,,,,,,,,,,,,,,,,,,,,,,,,,,,,,,,,,,618.3282351999078,619.3446024999721,617.2643610999221,617.2643610999221,617.2643610999221,617.2643610999221,old_sceneOut_32.png,196,4.0,1.0668885000050068,,,0048,11,2025-03-14_14h06.01.446,Surprise recog test,2023.1.3,59.94750992352395,
196,0,196,0,,,,,,,,,,,,,,,,,,,,,,,,,,,,,,,,,,620.0961598999565,621.1029903999297,619.3446024999721,619.3446024999721,619.3446024999721,619.3446024999721,old_fruit_45.png,197,4.0,0.7522019000025466,,,0048,11,2025-03-14_14h06.01.446,Surprise recog test,2023.1.3,59.94750992352395,
197,0,197,0,,,,,,,,,,,,,,,,,,,,,,,,,,,,,,,,,,623.0627113999799,624.080824399949,621.1029903999297,621.1029903999297,621.1029903999297,621.1029903999297,new_fruit_27.png,198,2.0,1.9528636999893934,,,0048,11,2025-03-14_14h06.01.446,Surprise recog test,2023.1.3,59.94750992352395,
198,0,198,0,,,,,,,,,,,,,,,,,,,,,,,,,,,,,,,,,,625.223300499958,626.253243999905,624.080824399949,624.080824399949,624.080824399949,624.080824399949,new_sceneOut_29.png,199,4.0,1.1461734999902546,,,0048,11,2025-03-14_14h06.01.446,Surprise recog test,2023.1.3,59.94750992352395,
199,0,199,0,,,,,,,,,,,,,,,,,,,,,,,,,,,,,,,,,,628.2529747999506,629.2613760998938,626.253243999905,626.253243999905,626.253243999905,626.253243999905,new_sceneIn_32.png,200,1.0,1.9992428000550717,,,0048,11,2025-03-14_14h06.01.446,Surprise recog test,2023.1.3,59.94750992352395,
200,0,200,0,,,,,,,,,,,,,,,,,,,,,,,,,,,,,,,,,,631.1453472999856,632.1672959999414,629.2613760998938,629.2613760998938,629.2613760998938,629.2613760998938,new_stationery_48.png,201,4.0,1.8790683000115678,,,0048,11,2025-03-14_14h06.01.446,Surprise recog test,2023.1.3,59.94750992352395,
201,0,201,0,,,,,,,,,,,,,,,,,,,,,,,,,,,,,,,,,,633.3663010000018,634.382410399965,632.1672959999414,632.1672959999414,632.1672959999414,632.1672959999414,new_fruit_37.png,202,4.0,1.1983355999691412,,,0048,11,2025-03-14_14h06.01.446,Surprise recog test,2023.1.3,59.94750992352395,
202,0,202,0,,,,,,,,,,,,,,,,,,,,,,,,,,,,,,,,,,635.4044659999199,636.4174706999911,634.382410399965,634.382410399965,634.382410399965,634.382410399965,old_sceneOut_13.png,203,4.0,1.0157960000215098,,,0048,11,2025-03-14_14h06.01.446,Surprise recog test,2023.1.3,59.94750992352395,
203,0,203,0,,,,,,,,,,,,,,,,,,,,,,,,,,,,,,,,,,637.2143174998928,,636.4174706999911,636.4174706999911,636.4174706999911,636.4174706999911,new_sceneOut_38.png,204,4.0,0.7928498999681324,,,0048,11,2025-03-14_14h06.01.446,Surprise recog test,2023.1.3,59.94750992352395,
204,0,204,0,,,,,,,,,,,,,,,,,,,,,,,,,,,,,,,,,,640.1288640999701,641.1374302998884,638.2342965999851,638.2342965999851,638.2342965999851,638.2342965999851,old_sceneIn_40.png,205,2.0,1.8880389999831095,,,0048,11,2025-03-14_14h06.01.446,Surprise recog test,2023.1.3,59.94750992352395,
205,0,205,0,,,,,,,,,,,,,,,,,,,,,,,,,,,,,,,,,,642.7565188999288,643.7780861998908,641.1374302998884,641.1374302998884,641.1374302998884,641.1374302998884,old_sceneOut_48.png,206,2.0,1.6144786999793723,,,0048,11,2025-03-14_14h06.01.446,Surprise recog test,2023.1.3,59.94750992352395,
206,0,206,0,,,,,,,,,,,,,,,,,,,,,,,,,,,,,,,,,,645.450056499918,646.4575906998944,643.7780861998908,643.7780861998908,643.7780861998908,643.7780861998908,new_sceneOut_20.png,207,4.0,1.6731957000447437,,,0048,11,2025-03-14_14h06.01.446,Surprise recog test,2023.1.3,59.94750992352395,
207,0,207,0,,,,,,,,,,,,,,,,,,,,,,,,,,,,,,,,,,648.5031918999739,649.5070975999115,646.4575906998944,646.4575906998944,646.4575906998944,646.4575906998944,old_fruit_44.png,208,1.0,2.0376221000915393,,,0048,11,2025-03-14_14h06.01.446,Surprise recog test,2023.1.3,59.94750992352395,
208,0,208,0,,,,,,,,,,,,,,,,,,,,,,,,,,,,,,,,,,651.8030168999685,652.8145647998899,649.5070975999115,649.5070975999115,649.5070975999115,649.5070975999115,old_fruit_40.png,209,3.0,2.291617500013672,,,0048,11,2025-03-14_14h06.01.446,Surprise recog test,2023.1.3,59.94750992352395,
209,0,209,0,,,,,,,,,,,,,,,,,,,,,,,,,,,,,,,,,,654.5669851999264,655.5789872999303,652.8145647998899,652.8145647998899,652.8145647998899,652.8145647998899,old_sceneOut_21.png,210,4.0,1.748429000028409,,,0048,11,2025-03-14_14h06.01.446,Surprise recog test,2023.1.3,59.94750992352395,
210,0,210,0,,,,,,,,,,,,,,,,,,,,,,,,,,,,,,,,,,658.5974066999042,,655.5789872999303,655.5789872999303,655.5789872999303,655.5789872999303,new_sceneIn_22.png,211,2.0,3.0124198000412434,,,0048,11,2025-03-14_14h06.01.446,Surprise recog test,2023.1.3,59.94750992352395,
211,0,211,0,,,,,,,,,,,,,,,,,,,,,,,,,,,,,,,,,,661.5638538999483,662.5819450999843,659.6317138999002,659.6317138999002,659.6317138999002,659.6317138999002,new_sceneOut_10.png,212,2.0,1.934151399997063,,,0048,11,2025-03-14_14h06.01.446,Surprise recog test,2023.1.3,59.94750992352395,
212,0,212,0,,,,,,,,,,,,,,,,,,,,,,,,,,,,,,,,,,664.9086609999649,665.9365281999344,662.5819450999843,662.5819450999843,662.5819450999843,662.5819450999843,new_fruit_18.png,213,2.0,2.328701499965973,,,0048,11,2025-03-14_14h06.01.446,Surprise recog test,2023.1.3,59.94750992352395,
213,0,213,0,,,,,,,,,,,,,,,,,,,,,,,,,,,,,,,,,,667.8575693999883,668.8882753999205,665.9365281999344,665.9365281999344,665.9365281999344,665.9365281999344,new_stationery_39.png,214,4.0,1.9218308000126854,,,0048,11,2025-03-14_14h06.01.446,Surprise recog test,2023.1.3,59.94750992352395,
214,0,214,0,,,,,,,,,,,,,,,,,,,,,,,,,,,,,,,,,,669.6707369999494,670.693625099957,668.8882753999205,668.8882753999205,668.8882753999205,668.8882753999205,new_stationery_32.png,215,4.0,0.7827894000802189,,,0048,11,2025-03-14_14h06.01.446,Surprise recog test,2023.1.3,59.94750992352395,
215,0,215,0,,,,,,,,,,,,,,,,,,,,,,,,,,,,,,,,,,671.4454436999513,672.4769807999255,670.693625099957,670.693625099957,670.693625099957,670.693625099957,new_sceneIn_11.png,216,4.0,0.7543680000817403,,,0048,11,2025-03-14_14h06.01.446,Surprise recog test,2023.1.3,59.94750992352395,
216,0,216,0,,,,,,,,,,,,,,,,,,,,,,,,,,,,,,,,,,674.982087399927,676.000611999887,672.4769807999255,672.4769807999255,672.4769807999255,672.4769807999255,new_sceneIn_23.png,217,3.0,2.508426500018686,,,0048,11,2025-03-14_14h06.01.446,Surprise recog test,2023.1.3,59.94750992352395,
217,0,217,0,,,,,,,,,,,,,,,,,,,,,,,,,,,,,,,,,,678.1275899999309,679.1467173999408,676.000611999887,676.000611999887,676.000611999887,676.000611999887,old_stationery_37.png,218,1.0,2.117642000084743,,,0048,11,2025-03-14_14h06.01.446,Surprise recog test,2023.1.3,59.94750992352395,
218,0,218,0,,,,,,,,,,,,,,,,,,,,,,,,,,,,,,,,,,680.6245561999967,681.6533246999606,679.1467173999408,679.1467173999408,679.1467173999408,679.1467173999408,new_sceneOut_24.png,219,4.0,1.4823681999696419,,,0048,11,2025-03-14_14h06.01.446,Surprise recog test,2023.1.3,59.94750992352395,
219,0,219,0,,,,,,,,,,,,,,,,,,,,,,,,,,,,,,,,,,683.7539532999508,684.785429499927,681.6533246999606,681.6533246999606,681.6533246999606,681.6533246999606,new_stationery_37.png,220,2.0,2.1020330999745056,,,0048,11,2025-03-14_14h06.01.446,Surprise recog test,2023.1.3,59.94750992352395,
220,0,220,0,,,,,,,,,,,,,,,,,,,,,,,,,,,,,,,,,,686.3563429999631,687.3872722999658,684.785429499927,684.785429499927,684.785429499927,684.785429499927,new_fruit_47.png,221,4.0,1.5743958000093699,,,0048,11,2025-03-14_14h06.01.446,Surprise recog test,2023.1.3,59.94750992352395,
221,0,221,0,,,,,,,,,,,,,,,,,,,,,,,,,,,,,,,,,,688.5902178999968,,687.3872722999658,687.3872722999658,687.3872722999658,687.3872722999658,new_sceneOut_23.png,222,4.0,1.2056411999510601,,,0048,11,2025-03-14_14h06.01.446,Surprise recog test,2023.1.3,59.94750992352395,
222,0,222,0,,,,,,,,,,,,,,,,,,,,,,,,,,,,,,,,,,691.3887063999427,692.3976419999963,689.6241679999512,689.6241679999512,689.6241679999512,689.6241679999512,old_fruit_15.png,223,2.0,1.766044499934651,,,0048,11,2025-03-14_14h06.01.446,Surprise recog test,2023.1.3,59.94750992352395,
223,0,223,0,,,,,,,,,,,,,,,,,,,,,,,,,,,,,,,,,,693.7009147999343,694.7136819999432,692.3976419999963,692.3976419999963,692.3976419999963,692.3976419999963,old_stationery_7.png,224,4.0,1.2985270000062883,,,0048,11,2025-03-14_14h06.01.446,Surprise recog test,2023.1.3,59.94750992352395,
224,0,224,0,,,,,,,,,,,,,,,,,,,,,,,,,,,,,,,,,,696.5957675999962,,694.7136819999432,694.7136819999432,694.7136819999432,694.7136819999432,new_sceneOut_48.png,225,2.0,1.8754951000446454,,,0048,11,2025-03-14_14h06.01.446,Surprise recog test,2023.1.3,59.94750992352395,
225,0,225,0,,,,,,,,,,,,,,,,,,,,,,,,,,,,,,,,,,699.7165247999365,,697.630214399891,697.630214399891,697.630214399891,697.630214399891,old_sceneOut_44.png,226,1.0,2.087838999927044,,,0048,11,2025-03-14_14h06.01.446,Surprise recog test,2023.1.3,59.94750992352395,
226,0,226,0,,,,,,,,,,,,,,,,,,,,,,,,,,,,,,,,,,703.9875946999528,705.0174953999231,700.7365520999301,700.7365520999301,700.7365520999301,700.7365520999301,old_stationery_11.png,227,1.0,3.2455977000063285,,,0048,11,2025-03-14_14h06.01.446,Surprise recog test,2023.1.3,59.94750992352395,
227,0,227,0,,,,,,,,,,,,,,,,,,,,,,,,,,,,,,,,,,707.4521482998971,708.4763805998955,705.0174953999231,705.0174953999231,705.0174953999231,705.0174953999231,old_stationery_31.png,228,3.0,2.427013000007719,,,0048,11,2025-03-14_14h06.01.446,Surprise recog test,2023.1.3,59.94750992352395,
228,0,228,0,,,,,,,,,,,,,,,,,,,,,,,,,,,,,,,,,,710.3050894999178,711.3223582999781,708.4763805998955,708.4763805998955,708.4763805998955,708.4763805998955,old_sceneIn_29.png,229,4.0,1.8326737000606954,,,0048,11,2025-03-14_14h06.01.446,Surprise recog test,2023.1.3,59.94750992352395,
229,0,229,0,,,,,,,,,,,,,,,,,,,,,,,,,,,,,,,,,,714.7253011999419,715.7320913999574,711.3223582999781,711.3223582999781,711.3223582999781,711.3223582999781,new_sceneIn_42.png,230,5.0,3.404850499937311,,,0048,11,2025-03-14_14h06.01.446,Surprise recog test,2023.1.3,59.94750992352395,
230,0,230,0,,,,,,,,,,,,,,,,,,,,,,,,,,,,,,,,,,717.238323199912,718.2631716999458,715.7320913999574,715.7320913999574,715.7320913999574,715.7320913999574,new_sceneIn_28.png,231,5.0,1.50131630001124,,,0048,11,2025-03-14_14h06.01.446,Surprise recog test,2023.1.3,59.94750992352395,
231,0,231,0,,,,,,,,,,,,,,,,,,,,,,,,,,,,,,,,,,720.5497330999933,,718.2631716999458,718.2631716999458,718.2631716999458,718.2631716999458,new_sceneOut_37.png,232,3.0,2.2888414000626653,,,0048,11,2025-03-14_14h06.01.446,Surprise recog test,2023.1.3,59.94750992352395,
232,0,232,0,,,,,,,,,,,,,,,,,,,,,,,,,,,,,,,,,,723.8659483999945,724.8834113999037,721.579292899929,721.579292899929,721.579292899929,721.579292899929,old_sceneIn_22.png,233,2.0,2.286287899944,,,0048,11,2025-03-14_14h06.01.446,Surprise recog test,2023.1.3,59.94750992352395,
233,0,233,0,,,,,,,,,,,,,,,,,,,,,,,,,,,,,,,,,,727.7372806998901,728.7505115999375,724.8834113999037,724.8834113999037,724.8834113999037,724.8834113999037,new_stationery_8.png,234,3.0,2.8556050000479445,,,0048,11,2025-03-14_14h06.01.446,Surprise recog test,2023.1.3,59.94750992352395,
234,0,234,0,,,,,,,,,,,,,,,,,,,,,,,,,,,,,,,,,,729.6334816999733,730.6435687999474,728.7505115999375,728.7505115999375,728.7505115999375,728.7505115999375,new_stationery_16.png,235,3.0,0.885046000010334,,,0048,11,2025-03-14_14h06.01.446,Surprise recog test,2023.1.3,59.94750992352395,
235,0,235,0,,,,,,,,,,,,,,,,,,,,,,,,,,,,,,,,,,732.4227339999052,733.443843999994,730.6435687999474,730.6435687999474,730.6435687999474,730.6435687999474,new_stationery_3.png,236,4.0,1.7691362999612466,,,0048,11,2025-03-14_14h06.01.446,Surprise recog test,2023.1.3,59.94750992352395,
236,0,236,0,,,,,,,,,,,,,,,,,,,,,,,,,,,,,,,,,,734.2076501999982,735.2118266999023,733.443843999994,733.443843999994,733.443843999994,733.443843999994,old_fruit_4.png,237,4.0,0.7650969000533223,,,0048,11,2025-03-14_14h06.01.446,Surprise recog test,2023.1.3,59.94750992352395,
237,0,237,0,,,,,,,,,,,,,,,,,,,,,,,,,,,,,,,,,,736.6552292999113,737.6771721999394,735.2118266999023,735.2118266999023,735.2118266999023,735.2118266999023,old_fruit_23.png,238,4.0,1.4395284000784159,,,0048,11,2025-03-14_14h06.01.446,Surprise recog test,2023.1.3,59.94750992352395,
238,0,238,0,,,,,,,,,,,,,,,,,,,,,,,,,,,,,,,,,,738.443135599955,739.4638069999637,737.6771721999394,737.6771721999394,737.6771721999394,737.6771721999394,new_stationery_19.png,239,4.0,0.7667560999980196,,,0048,11,2025-03-14_14h06.01.446,Surprise recog test,2023.1.3,59.94750992352395,
239,0,239,0,,,,,,,,,,,,,,,,,,,,,,,,,,,,,,,,,,740.7892271999735,741.8135555998888,739.4638069999637,739.4638069999637,739.4638069999637,739.4638069999637,old_fruit_36.png,240,4.0,1.3247747999848798,,,0048,11,2025-03-14_14h06.01.446,Surprise recog test,2023.1.3,59.94750992352395,
240,0,240,0,,,,,,,,,,,,,,,,,,,,,,,,,,,,,,,,,,746.8014517999254,,741.8135555998888,741.8135555998888,741.8135555998888,741.8135555998888,new_stationery_2.png,241,None,None,746.7921020999784,,0048,11,2025-03-14_14h06.01.446,Surprise recog test,2023.1.3,59.94750992352395,
241,0,241,0,,,,,,,,,,,,,,,,,,,,,,,,,,,,,,,,,,747.9113423998933,748.9393173999852,747.8210980999283,747.8210980999283,747.8210980999283,747.8210980999283,new_sceneOut_13.png,242,3.0,0.09488990006502718,,,0048,11,2025-03-14_14h06.01.446,Surprise recog test,2023.1.3,59.94750992352395,
242,0,242,0,,,,,,,,,,,,,,,,,,,,,,,,,,,,,,,,,,750.9687998999143,751.9854973999318,748.9393173999852,748.9393173999852,748.9393173999852,748.9393173999852,old_fruit_2.png,243,1.0,2.0313039999455214,,,0048,11,2025-03-14_14h06.01.446,Surprise recog test,2023.1.3,59.94750992352395,
243,0,243,0,,,,,,,,,,,,,,,,,,,,,,,,,,,,,,,,,,753.746883799904,754.7615773999132,751.9854973999318,751.9854973999318,751.9854973999318,751.9854973999318,new_stationery_35.png,244,1.0,1.7602477999171242,,,0048,11,2025-03-14_14h06.01.446,Surprise recog test,2023.1.3,59.94750992352395,
244,0,244,0,,,,,,,,,,,,,,,,,,,,,,,,,,,,,,,,,,756.6549173999811,757.6843136999523,754.7615773999132,754.7615773999132,754.7615773999132,754.7615773999132,old_fruit_6.png,245,2.0,1.889253000030294,,,0048,11,2025-03-14_14h06.01.446,Surprise recog test,2023.1.3,59.94750992352395,
245,0,245,0,,,,,,,,,,,,,,,,,,,,,,,,,,,,,,,,,,759.3081079999683,760.3327759999083,757.6843136999523,757.6843136999523,757.6843136999523,757.6843136999523,old_sceneOut_14.png,246,4.0,1.62585680000484,,,0048,11,2025-03-14_14h06.01.446,Surprise recog test,2023.1.3,59.94750992352395,
246,0,246,0,,,,,,,,,,,,,,,,,,,,,,,,,,,,,,,,,,761.9901801999658,763.0174905000022,760.3327759999083,760.3327759999083,760.3327759999083,760.3327759999083,new_stationery_29.png,247,5.0,1.657225799979642,,,0048,11,2025-03-14_14h06.01.446,Surprise recog test,2023.1.3,59.94750992352395,
247,0,247,0,,,,,,,,,,,,,,,,,,,,,,,,,,,,,,,,,,764.9217471999582,765.9577953999396,763.0174905000022,763.0174905000022,763.0174905000022,763.0174905000022,new_sceneOut_6.png,248,4.0,1.907103499979712,,,0048,11,2025-03-14_14h06.01.446,Surprise recog test,2023.1.3,59.94750992352395,
248,0,248,0,,,,,,,,,,,,,,,,,,,,,,,,,,,,,,,,,,767.8691248999676,768.8897315999493,765.9577953999396,765.9577953999396,765.9577953999396,765.9577953999396,old_stationery_20.png,249,1.0,1.9132737000472844,,,0048,11,2025-03-14_14h06.01.446,Surprise recog test,2023.1.3,59.94750992352395,
249,0,249,0,,,,,,,,,,,,,,,,,,,,,,,,,,,,,,,,,,770.3950724999886,771.425625899923,768.8897315999493,768.8897315999493,768.8897315999493,768.8897315999493,old_sceneOut_3.png,250,3.0,1.5076806999277323,,,0048,11,2025-03-14_14h06.01.446,Surprise recog test,2023.1.3,59.94750992352395,
250,0,250,0,,,,,,,,,,,,,,,,,,,,,,,,,,,,,,,,,,772.6131110999268,773.6382011999376,771.425625899923,771.425625899923,771.425625899923,771.425625899923,new_stationery_21.png,251,4.0,1.188701399951242,,,0048,11,2025-03-14_14h06.01.446,Surprise recog test,2023.1.3,59.94750992352395,
251,0,251,0,,,,,,,,,,,,,,,,,,,,,,,,,,,,,,,,,,774.9187354999594,775.9443369999062,773.6382011999376,773.6382011999376,773.6382011999376,773.6382011999376,new_sceneIn_45.png,252,4.0,1.2813972999574617,,,0048,11,2025-03-14_14h06.01.446,Surprise recog test,2023.1.3,59.94750992352395,
252,0,252,0,,,,,,,,,,,,,,,,,,,,,,,,,,,,,,,,,,777.7492523998953,778.7697658999823,775.9443369999062,775.9443369999062,775.9443369999062,775.9443369999062,old_fruit_8.png,253,2.0,1.8051555000711232,,,0048,11,2025-03-14_14h06.01.446,Surprise recog test,2023.1.3,59.94750992352395,
253,0,253,0,,,,,,,,,,,,,,,,,,,,,,,,,,,,,,,,,,780.6884955998976,781.7134266999783,778.7697658999823,778.7697658999823,778.7697658999823,778.7697658999823,new_fruit_10.png,254,5.0,1.9124742000130937,,,0048,11,2025-03-14_14h06.01.446,Surprise recog test,2023.1.3,59.94750992352395,
254,0,254,0,,,,,,,,,,,,,,,,,,,,,,,,,,,,,,,,,,783.3486271000002,784.3698896999704,781.7134266999783,781.7134266999783,781.7134266999783,781.7134266999783,new_sceneIn_27.png,255,4.0,1.6272978000342846,,,0048,11,2025-03-14_14h06.01.446,Surprise recog test,2023.1.3,59.94750992352395,
255,0,255,0,,,,,,,,,,,,,,,,,,,,,,,,,,,,,,,,,,785.2731200999115,786.3054738999344,784.3698896999704,784.3698896999704,784.3698896999704,784.3698896999704,new_stationery_6.png,256,4.0,0.9051414999412373,,,0048,11,2025-03-14_14h06.01.446,Surprise recog test,2023.1.3,59.94750992352395,
256,0,256,0,,,,,,,,,,,,,,,,,,,,,,,,,,,,,,,,,,788.2719052999746,,786.3054738999344,786.3054738999344,786.3054738999344,786.3054738999344,old_sceneOut_2.png,257,2.0,1.9693734999746084,,,0048,11,2025-03-14_14h06.01.446,Surprise recog test,2023.1.3,59.94750992352395,
257,0,257,0,,,,,,,,,,,,,,,,,,,,,,,,,,,,,,,,,,790.8430177998962,791.8700796999037,789.2935262999963,789.2935262999963,789.2935262999963,789.2935262999963,old_fruit_25.png,258,2.0,1.545734200044535,,,0048,11,2025-03-14_14h06.01.446,Surprise recog test,2023.1.3,59.94750992352395,
258,0,258,0,,,,,,,,,,,,,,,,,,,,,,,,,,,,,,,,,,793.0284530998906,794.0534647998866,791.8700796999037,791.8700796999037,791.8700796999037,791.8700796999037,new_sceneOut_36.png,259,4.0,1.151816500001587,,,0048,11,2025-03-14_14h06.01.446,Surprise recog test,2023.1.3,59.94750992352395,
259,0,259,0,,,,,,,,,,,,,,,,,,,,,,,,,,,,,,,,,,794.9899364999728,796.0059967999114,794.0534647998866,794.0534647998866,794.0534647998866,794.0534647998866,old_fruit_13.png,260,4.0,0.9359735999023542,,,0048,11,2025-03-14_14h06.01.446,Surprise recog test,2023.1.3,59.94750992352395,
260,0,260,0,,,,,,,,,,,,,,,,,,,,,,,,,,,,,,,,,,796.9274098000024,797.937380499905,796.0059967999114,796.0059967999114,796.0059967999114,796.0059967999114,new_stationery_44.png,261,4.0,0.9228638000786304,,,0048,11,2025-03-14_14h06.01.446,Surprise recog test,2023.1.3,59.94750992352395,
261,0,261,0,,,,,,,,,,,,,,,,,,,,,,,,,,,,,,,,,,799.4890152999433,800.5033651998965,797.937380499905,797.937380499905,797.937380499905,797.937380499905,new_fruit_40.png,262,4.0,1.547011199989356,,,0048,11,2025-03-14_14h06.01.446,Surprise recog test,2023.1.3,59.94750992352395,
262,0,262,0,,,,,,,,,,,,,,,,,,,,,,,,,,,,,,,,,,803.2850077999756,,800.5033651998965,800.5033651998965,800.5033651998965,800.5033651998965,old_sceneOut_17.png,263,3.0,2.7753600999712944,,,0048,11,2025-03-14_14h06.01.446,Surprise recog test,2023.1.3,59.94750992352395,
263,0,263,0,,,,,,,,,,,,,,,,,,,,,,,,,,,,,,,,,,805.5839976998977,806.5911360998871,804.3054998998996,804.3054998998996,804.3054998998996,804.3054998998996,new_stationery_43.png,264,4.0,1.2713576999958605,,,0048,11,2025-03-14_14h06.01.446,Surprise recog test,2023.1.3,59.94750992352395,
264,0,264,0,,,,,,,,,,,,,,,,,,,,,,,,,,,,,,,,,,807.5374432998942,,806.5911360998871,806.5911360998871,806.5911360998871,806.5911360998871,old_stationery_4.png,265,4.0,0.9423300999915227,,,0048,11,2025-03-14_14h06.01.446,Surprise recog test,2023.1.3,59.94750992352395,
265,0,265,0,,,,,,,,,,,,,,,,,,,,,,,,,,,,,,,,,,810.7547488999553,811.7763506999472,808.5715687999036,808.5715687999036,808.5715687999036,808.5715687999036,old_sceneIn_19.png,266,2.0,2.185383499949239,,,0048,11,2025-03-14_14h06.01.446,Surprise recog test,2023.1.3,59.94750992352395,
266,0,266,0,,,,,,,,,,,,,,,,,,,,,,,,,,,,,,,,,,813.2585412999615,814.2744756999891,811.7763506999472,811.7763506999472,811.7763506999472,811.7763506999472,old_sceneOut_49.png,267,4.0,1.4849212999688461,,,0048,11,2025-03-14_14h06.01.446,Surprise recog test,2023.1.3,59.94750992352395,
267,0,267,0,,,,,,,,,,,,,,,,,,,,,,,,,,,,,,,,,,816.5510524999117,817.5819336998975,814.2744756999891,814.2744756999891,814.2744756999891,814.2744756999891,new_sceneIn_3.png,268,3.0,2.278973100008443,,,0048,11,2025-03-14_14h06.01.446,Surprise recog test,2023.1.3,59.94750992352395,
268,0,268,0,,,,,,,,,,,,,,,,,,,,,,,,,,,,,,,,,,818.7470011999831,,817.5819336998975,817.5819336998975,817.5819336998975,817.5819336998975,old_fruit_32.png,269,4.0,1.1682835000101477,,,0048,11,2025-03-14_14h06.01.446,Surprise recog test,2023.1.3,59.94750992352395,
269,0,269,0,,,,,,,,,,,,,,,,,,,,,,,,,,,,,,,,,,820.5729952999391,821.5996249999152,819.7683511999203,819.7683511999203,819.7683511999203,819.7683511999203,new_stationery_33.png,270,4.0,0.7982464999658987,,,0048,11,2025-03-14_14h06.01.446,Surprise recog test,2023.1.3,59.94750992352395,
270,0,270,0,,,,,,,,,,,,,,,,,,,,,,,,,,,,,,,,,,822.5878352998989,823.6182921999134,821.5996249999152,821.5996249999152,821.5996249999152,821.5996249999152,old_stationery_21.png,271,4.0,0.9883121000602841,,,0048,11,2025-03-14_14h06.01.446,Surprise recog test,2023.1.3,59.94750992352395,
271,0,271,0,,,,,,,,,,,,,,,,,,,,,,,,,,,,,,,,,,825.6027142999228,,823.6182921999134,823.6182921999134,823.6182921999134,823.6182921999134,old_sceneIn_42.png,272,3.0,1.9864946999587119,,,0048,11,2025-03-14_14h06.01.446,Surprise recog test,2023.1.3,59.94750992352395,
272,0,272,0,,,,,,,,,,,,,,,,,,,,,,,,,,,,,,,,,,828.52471649996,829.5571942999959,826.625961999991,826.625961999991,826.625961999991,826.625961999991,old_sceneOut_47.png,273,1.0,1.895879799965769,,,0048,11,2025-03-14_14h06.01.446,Surprise recog test,2023.1.3,59.94750992352395,
273,0,273,0,,,,,,,,,,,,,,,,,,,,,,,,,,,,,,,,,,831.5525948998984,832.5769508999074,829.5571942999959,829.5571942999959,829.5571942999959,829.5571942999959,old_stationery_13.png,274,4.0,1.997858399990946,,,0048,11,2025-03-14_14h06.01.446,Surprise recog test,2023.1.3,59.94750992352395,
274,0,274,0,,,,,,,,,,,,,,,,,,,,,,,,,,,,,,,,,,834.1718465999002,835.1826056999853,832.5769508999074,832.5769508999074,832.5769508999074,832.5769508999074,new_sceneOut_7.png,275,3.0,1.5972232000203803,,,0048,11,2025-03-14_14h06.01.446,Surprise recog test,2023.1.3,59.94750992352395,
275,0,275,0,,,,,,,,,,,,,,,,,,,,,,,,,,,,,,,,,,836.7096311999485,837.7325050999643,835.1826056999853,835.1826056999853,835.1826056999853,835.1826056999853,old_fruit_50.png,276,4.0,1.5186966999899596,,,0048,11,2025-03-14_14h06.01.446,Surprise recog test,2023.1.3,59.94750992352395,
276,0,276,0,,,,,,,,,,,,,,,,,,,,,,,,,,,,,,,,,,839.0628474999685,840.0826287999516,837.7325050999643,837.7325050999643,837.7325050999643,837.7325050999643,new_sceneIn_19.png,277,4.0,1.3309415000258014,,,0048,11,2025-03-14_14h06.01.446,Surprise recog test,2023.1.3,59.94750992352395,
277,0,277,0,,,,,,,,,,,,,,,,,,,,,,,,,,,,,,,,,,841.4207144998945,842.4516846999759,840.0826287999516,840.0826287999516,840.0826287999516,840.0826287999516,old_sceneOut_7.png,278,4.0,1.3376330999890342,,,0048,11,2025-03-14_14h06.01.446,Surprise recog test,2023.1.3,59.94750992352395,
278,0,278,0,,,,,,,,,,,,,,,,,,,,,,,,,,,,,,,,,,844.1184500999516,,842.4516846999759,842.4516846999759,842.4516846999759,842.4516846999759,old_stationery_32.png,279,3.0,1.6685690999729559,,,0048,11,2025-03-14_14h06.01.446,Surprise recog test,2023.1.3,59.94750992352395,
279,0,279,0,,,,,,,,,,,,,,,,,,,,,,,,,,,,,,,,,,847.2675851999084,848.282343299943,845.1507608999964,845.1507608999964,845.1507608999964,845.1507608999964,old_stationery_12.png,280,2.0,2.1178843999514356,,,0048,11,2025-03-14_14h06.01.446,Surprise recog test,2023.1.3,59.94750992352395,
280,0,280,0,,,,,,,,,,,,,,,,,,,,,,,,,,,,,,,,,,850.3686250998871,851.3924388999585,848.282343299943,848.282343299943,848.282343299943,848.282343299943,new_stationery_15.png,281,1.0,2.0861100999172777,,,0048,11,2025-03-14_14h06.01.446,Surprise recog test,2023.1.3,59.94750992352395,
281,0,281,0,,,,,,,,,,,,,,,,,,,,,,,,,,,,,,,,,,853.8960497999797,854.9294931999175,851.3924388999585,851.3924388999585,851.3924388999585,851.3924388999585,old_fruit_22.png,282,1.0,2.506363800028339,,,0048,11,2025-03-14_14h06.01.446,Surprise recog test,2023.1.3,59.94750992352395,
282,0,282,0,,,,,,,,,,,,,,,,,,,,,,,,,,,,,,,,,,857.1754232998937,858.20076529996,854.9294931999175,854.9294931999175,854.9294931999175,854.9294931999175,new_sceneOut_43.png,283,1.0,2.247690199990757,,,0048,11,2025-03-14_14h06.01.446,Surprise recog test,2023.1.3,59.94750992352395,
283,0,283,0,,,,,,,,,,,,,,,,,,,,,,,,,,,,,,,,,,859.8328778999858,,858.20076529996,858.20076529996,858.20076529996,858.20076529996,old_sceneOut_20.png,284,2.0,1.632332899956964,,,0048,11,2025-03-14_14h06.01.446,Surprise recog test,2023.1.3,59.94750992352395,
284,0,284,0,,,,,,,,,,,,,,,,,,,,,,,,,,,,,,,,,,862.8357843999984,,860.8610486999387,860.8610486999387,860.8610486999387,860.8610486999387,new_sceneOut_30.png,285,2.0,1.9760192000539973,,,0048,11,2025-03-14_14h06.01.446,Surprise recog test,2023.1.3,59.94750992352395,
285,0,285,0,,,,,,,,,,,,,,,,,,,,,,,,,,,,,,,,,,865.9207112999866,,863.8711710999487,863.8711710999487,863.8711710999487,863.8711710999487,new_sceneIn_30.png,286,2.0,2.0536036000121385,,,0048,11,2025-03-14_14h06.01.446,Surprise recog test,2023.1.3,59.94750992352395,
286,0,286,0,,,,,,,,,,,,,,,,,,,,,,,,,,,,,,,,,,868.6685945999343,869.6907802999485,866.9540364999557,866.9540364999557,866.9540364999557,866.9540364999557,new_stationery_24.png,287,3.0,1.7147575999842957,,,0048,11,2025-03-14_14h06.01.446,Surprise recog test,2023.1.3,59.94750992352395,
287,0,287,0,,,,,,,,,,,,,,,,,,,,,,,,,,,,,,,,,,871.4885654998943,872.5071747999173,869.6907802999485,869.6907802999485,869.6907802999485,869.6907802999485,old_stationery_18.png,288,1.0,1.7977533999364823,,,0048,11,2025-03-14_14h06.01.446,Surprise recog test,2023.1.3,59.94750992352395,
288,0,288,0,,,,,,,,,,,,,,,,,,,,,,,,,,,,,,,,,,875.8104541999055,876.828569999896,872.5071747999173,872.5071747999173,872.5071747999173,872.5071747999173,old_sceneOut_45.png,289,1.0,3.3054198999889195,,,0048,11,2025-03-14_14h06.01.446,Surprise recog test,2023.1.3,59.94750992352395,
289,0,289,0,,,,,,,,,,,,,,,,,,,,,,,,,,,,,,,,,,878.7946306999074,879.8147148999851,876.828569999896,876.828569999896,876.828569999896,876.828569999896,old_sceneOut_25.png,290,4.0,1.9660752000054345,,,0048,11,2025-03-14_14h06.01.446,Surprise recog test,2023.1.3,59.94750992352395,
290,0,290,0,,,,,,,,,,,,,,,,,,,,,,,,,,,,,,,,,,882.331017099903,883.3528938998934,879.8147148999851,879.8147148999851,879.8147148999851,879.8147148999851,old_sceneOut_33.png,291,3.0,2.5113863000879064,,,0048,11,2025-03-14_14h06.01.446,Surprise recog test,2023.1.3,59.94750992352395,
291,0,291,0,,,,,,,,,,,,,,,,,,,,,,,,,,,,,,,,,,884.9752480000025,885.9915665999288,883.3528938998934,883.3528938998934,883.3528938998934,883.3528938998934,old_fruit_10.png,292,1.0,1.622482500039041,,,0048,11,2025-03-14_14h06.01.446,Surprise recog test,2023.1.3,59.94750992352395,
292,0,292,0,,,,,,,,,,,,,,,,,,,,,,,,,,,,,,,,,,887.4127241999377,888.4407582998974,885.9915665999288,885.9915665999288,885.9915665999288,885.9915665999288,new_sceneIn_1.png,293,4.0,1.4160134999547154,,,0048,11,2025-03-14_14h06.01.446,Surprise recog test,2023.1.3,59.94750992352395,
293,0,293,0,,,,,,,,,,,,,,,,,,,,,,,,,,,,,,,,,,889.4783911999548,890.4975306999404,888.4407582998974,888.4407582998974,888.4407582998974,888.4407582998974,old_sceneOut_31.png,294,4.0,1.04100379999727,,,0048,11,2025-03-14_14h06.01.446,Surprise recog test,2023.1.3,59.94750992352395,
294,0,294,0,,,,,,,,,,,,,,,,,,,,,,,,,,,,,,,,,,893.1107346999925,,890.4975306999404,890.4975306999404,890.4975306999404,890.4975306999404,new_sceneOut_3.png,295,1.0,2.6107157999649644,,,0048,11,2025-03-14_14h06.01.446,Surprise recog test,2023.1.3,59.94750992352395,
295,0,295,0,,,,,,,,,,,,,,,,,,,,,,,,,,,,,,,,,,895.9757592999376,896.9952239999548,894.1303917999612,894.1303917999612,894.1303917999612,894.1303917999612,old_stationery_24.png,296,1.0,1.8362979999510571,,,0048,11,2025-03-14_14h06.01.446,Surprise recog test,2023.1.3,59.94750992352395,
296,0,296,0,,,,,,,,,,,,,,,,,,,,,,,,,,,,,,,,,,898.5463950999547,899.5634984999197,896.9952239999548,896.9952239999548,896.9952239999548,896.9952239999548,new_sceneOut_25.png,297,4.0,1.553874299977906,,,0048,11,2025-03-14_14h06.01.446,Surprise recog test,2023.1.3,59.94750992352395,
297,0,297,0,,,,,,,,,,,,,,,,,,,,,,,,,,,,,,,,,,901.3968495998997,902.4052300999174,899.5634984999197,899.5634984999197,899.5634984999197,899.5634984999197,new_fruit_46.png,298,3.0,1.830571400001645,,,0048,11,2025-03-14_14h06.01.446,Surprise recog test,2023.1.3,59.94750992352395,
298,0,298,0,,,,,,,,,,,,,,,,,,,,,,,,,,,,,,,,,,903.97234019998,904.9924424999626,902.4052300999174,902.4052300999174,902.4052300999174,902.4052300999174,old_stationery_36.png,299,2.0,1.5622617000481114,,,0048,11,2025-03-14_14h06.01.446,Surprise recog test,2023.1.3,59.94750992352395,
299,0,299,0,,,,,,,,,,,,,,,,,,,,,,,,,,,,,,,,,,906.4119245999027,907.4339658999816,904.9924424999626,904.9924424999626,904.9924424999626,904.9924424999626,new_stationery_40.png,300,4.0,1.4155922000063583,,,0048,11,2025-03-14_14h06.01.446,Surprise recog test,2023.1.3,59.94750992352395,
300,0,300,0,,,,,,,,,,,,,,,,,,,,,,,,,,,,,,,,,,909.4401160998968,,907.4339658999816,907.4339658999816,907.4339658999816,907.4339658999816,old_sceneIn_5.png,301,5.0,2.007770200027153,,,0048,11,2025-03-14_14h06.01.446,Surprise recog test,2023.1.3,59.94750992352395,
301,0,301,0,,,,,,,,,,,,,,,,,,,,,,,,,,,,,,,,,,911.4136754999636,912.4351662999252,910.4770138999447,910.4770138999447,910.4770138999447,910.4770138999447,new_fruit_42.png,302,5.0,0.9396152999252081,,,0048,11,2025-03-14_14h06.01.446,Surprise recog test,2023.1.3,59.94750992352395,
302,0,302,0,,,,,,,,,,,,,,,,,,,,,,,,,,,,,,,,,,913.5348557999823,914.562866799999,912.4351662999252,912.4351662999252,912.4351662999252,912.4351662999252,old_fruit_49.png,303,5.0,1.1008793000364676,,,0048,11,2025-03-14_14h06.01.446,Surprise recog test,2023.1.3,59.94750992352395,
303,0,303,0,,,,,,,,,,,,,,,,,,,,,,,,,,,,,,,,,,916.4223546999274,917.4345250999322,914.562866799999,914.562866799999,914.562866799999,914.562866799999,old_stationery_9.png,304,1.0,1.8614865000126883,,,0048,11,2025-03-14_14h06.01.446,Surprise recog test,2023.1.3,59.94750992352395,
304,0,304,0,,,,,,,,,,,,,,,,,,,,,,,,,,,,,,,,,,919.167727699969,920.203428799985,917.4345250999322,917.4345250999322,917.4345250999322,917.4345250999322,new_sceneOut_11.png,305,3.0,1.728682899964042,,,0048,11,2025-03-14_14h06.01.446,Surprise recog test,2023.1.3,59.94750992352395,
305,0,305,0,,,,,,,,,,,,,,,,,,,,,,,,,,,,,,,,,,922.8953605999704,923.9171787999803,920.203428799985,920.203428799985,920.203428799985,920.203428799985,new_sceneIn_31.png,306,2.0,2.6953991999616846,,,0048,11,2025-03-14_14h06.01.446,Surprise recog test,2023.1.3,59.94750992352395,
306,0,306,0,,,,,,,,,,,,,,,,,,,,,,,,,,,,,,,,,,925.9029708999442,,923.9171787999803,923.9171787999803,923.9171787999803,923.9171787999803,old_sceneIn_15.png,307,1.0,1.9855489000910893,,,0048,11,2025-03-14_14h06.01.446,Surprise recog test,2023.1.3,59.94750992352395,
307,0,307,0,,,,,,,,,,,,,,,,,,,,,,,,,,,,,,,,,,928.9531397999963,929.9627421998885,926.940775499912,926.940775499912,926.940775499912,926.940775499912,old_sceneOut_11.png,308,4.0,2.014897800050676,,,0048,11,2025-03-14_14h06.01.446,Surprise recog test,2023.1.3,59.94750992352395,
308,0,308,0,,,,,,,,,,,,,,,,,,,,,,,,,,,,,,,,,,932.1136683999794,933.1272936000023,929.9627421998885,929.9627421998885,929.9627421998885,929.9627421998885,new_fruit_29.png,309,5.0,2.148156199953519,,,0048,11,2025-03-14_14h06.01.446,Surprise recog test,2023.1.3,59.94750992352395,
309,0,309,0,,,,,,,,,,,,,,,,,,,,,,,,,,,,,,,,,,934.9418611999135,935.9631603999296,933.1272936000023,933.1272936000023,933.1272936000023,933.1272936000023,new_stationery_4.png,310,2.0,1.8096601000288501,,,0048,11,2025-03-14_14h06.01.446,Surprise recog test,2023.1.3,59.94750992352395,
310,0,310,0,,,,,,,,,,,,,,,,,,,,,,,,,,,,,,,,,,937.7493699999759,938.7683327998966,935.9631603999296,935.9631603999296,935.9631603999296,935.9631603999296,new_sceneIn_6.png,311,5.0,1.790617399965413,,,0048,11,2025-03-14_14h06.01.446,Surprise recog test,2023.1.3,59.94750992352395,
311,0,311,0,,,,,,,,,,,,,,,,,,,,,,,,,,,,,,,,,,941.004825699958,942.0302519999677,938.7683327998966,938.7683327998966,938.7683327998966,938.7683327998966,old_sceneOut_29.png,312,3.0,2.2322779999813065,,,0048,11,2025-03-14_14h06.01.446,Surprise recog test,2023.1.3,59.94750992352395,
312,0,312,0,,,,,,,,,,,,,,,,,,,,,,,,,,,,,,,,,,943.92266869999,944.9405024999287,942.0302519999677,942.0302519999677,942.0302519999677,942.0302519999677,old_sceneIn_32.png,313,4.0,1.8951487999875098,,,0048,11,2025-03-14_14h06.01.446,Surprise recog test,2023.1.3,59.94750992352395,
313,0,313,0,,,,,,,,,,,,,,,,,,,,,,,,,,,,,,,,,,947.0681592999026,948.0766554999864,944.9405024999287,944.9405024999287,944.9405024999287,944.9405024999287,old_fruit_19.png,314,1.0,2.116191199980676,,,0048,11,2025-03-14_14h06.01.446,Surprise recog test,2023.1.3,59.94750992352395,
314,0,314,0,,,,,,,,,,,,,,,,,,,,,,,,,,,,,,,,,,949.7623797999695,950.7759274999844,948.0766554999864,948.0766554999864,948.0766554999864,948.0766554999864,old_sceneOut_36.png,315,4.0,1.6818258999846876,,,0048,11,2025-03-14_14h06.01.446,Surprise recog test,2023.1.3,59.94750992352395,
315,0,315,0,,,,,,,,,,,,,,,,,,,,,,,,,,,,,,,,,,953.0388836999191,954.0591327999718,950.7759274999844,950.7759274999844,950.7759274999844,950.7759274999844,old_sceneIn_30.png,316,2.0,2.2571024000644684,,,0048,11,2025-03-14_14h06.01.446,Surprise recog test,2023.1.3,59.94750992352395,
316,0,316,0,,,,,,,,,,,,,,,,,,,,,,,,,,,,,,,,,,956.4424998998875,957.4590197999496,954.0591327999718,954.0591327999718,954.0591327999718,954.0591327999718,new_stationery_30.png,317,1.0,2.383090400020592,,,0048,11,2025-03-14_14h06.01.446,Surprise recog test,2023.1.3,59.94750992352395,
317,0,317,0,,,,,,,,,,,,,,,,,,,,,,,,,,,,,,,,,,959.3092065999517,960.3330127999652,957.4590197999496,957.4590197999496,957.4590197999496,957.4590197999496,new_sceneOut_47.png,318,2.0,1.851806600112468,,,0048,11,2025-03-14_14h06.01.446,Surprise recog test,2023.1.3,59.94750992352395,
318,0,318,0,,,,,,,,,,,,,,,,,,,,,,,,,,,,,,,,,,961.2632616999326,962.2761994999601,960.3330127999652,960.3330127999652,960.3330127999652,960.3330127999652,new_fruit_12.png,319,2.0,0.9316850000759587,,,0048,11,2025-03-14_14h06.01.446,Surprise recog test,2023.1.3,59.94750992352395,
319,0,319,0,,,,,,,,,,,,,,,,,,,,,,,,,,,,,,,,,,964.9908591998974,966.0077144999523,962.2761994999601,962.2761994999601,962.2761994999601,962.2761994999601,old_stationery_14.png,320,4.0,2.7157223999965936,,,0048,11,2025-03-14_14h06.01.446,Surprise recog test,2023.1.3,59.94750992352395,
320,0,320,0,,,,,,,,,,,,,,,,,,,,,,,,,,,,,,,,,,968.0856594999786,969.1034782999195,966.0077144999523,966.0077144999523,966.0077144999523,966.0077144999523,new_sceneOut_28.png,321,1.0,2.0666322000324726,,,0048,11,2025-03-14_14h06.01.446,Surprise recog test,2023.1.3,59.94750992352395,
321,0,321,0,,,,,,,,,,,,,,,,,,,,,,,,,,,,,,,,,,970.3374462999636,971.3571028999286,969.1034782999195,969.1034782999195,969.1034782999195,969.1034782999195,old_stationery_5.png,322,4.0,1.228337200009264,,,0048,11,2025-03-14_14h06.01.446,Surprise recog test,2023.1.3,59.94750992352395,
322,0,322,0,,,,,,,,,,,,,,,,,,,,,,,,,,,,,,,,,,972.3495716999751,973.3758228999795,971.3571028999286,971.3571028999286,971.3571028999286,971.3571028999286,old_sceneOut_5.png,323,4.0,0.9929222000064328,,,0048,11,2025-03-14_14h06.01.446,Surprise recog test,2023.1.3,59.94750992352395,
323,0,323,0,,,,,,,,,,,,,,,,,,,,,,,,,,,,,,,,,,974.9153247999493,975.9287369999802,973.3758228999795,973.3758228999795,973.3758228999795,973.3758228999795,new_fruit_43.png,324,4.0,1.54121039994061,,,0048,11,2025-03-14_14h06.01.446,Surprise recog test,2023.1.3,59.94750992352395,
324,0,324,0,,,,,,,,,,,,,,,,,,,,,,,,,,,,,,,,,,977.6101225999882,978.6353824998951,975.9287369999802,975.9287369999802,975.9287369999802,975.9287369999802,new_fruit_13.png,325,4.0,1.6773950000060722,,,0048,11,2025-03-14_14h06.01.446,Surprise recog test,2023.1.3,59.94750992352395,
325,0,325,0,,,,,,,,,,,,,,,,,,,,,,,,,,,,,,,,,,980.6012672999641,981.6204642999219,978.6353824998951,978.6353824998951,978.6353824998951,978.6353824998951,new_stationery_42.png,326,4.0,1.9688888998935,,,0048,11,2025-03-14_14h06.01.446,Surprise recog test,2023.1.3,59.94750992352395,
326,0,326,0,,,,,,,,,,,,,,,,,,,,,,,,,,,,,,,,,,982.8872584999772,983.9173188999994,981.6204642999219,981.6204642999219,981.6204642999219,981.6204642999219,new_sceneIn_41.png,327,4.0,1.2618504000129178,,,0048,11,2025-03-14_14h06.01.446,Surprise recog test,2023.1.3,59.94750992352395,
327,0,327,0,,,,,,,,,,,,,,,,,,,,,,,,,,,,,,,,,,985.8233913999284,986.8518361999886,983.9173188999994,983.9173188999994,983.9173188999994,983.9173188999994,new_sceneIn_9.png,328,2.0,1.9090926999924704,,,0048,11,2025-03-14_14h06.01.446,Surprise recog test,2023.1.3,59.94750992352395,
328,0,328,0,,,,,,,,,,,,,,,,,,,,,,,,,,,,,,,,,,989.4580426999601,990.4912994999904,986.8518361999886,986.8518361999886,986.8518361999886,986.8518361999886,new_sceneOut_27.png,329,4.0,2.607605900033377,,,0048,11,2025-03-14_14h06.01.446,Surprise recog test,2023.1.3,59.94750992352395,
329,0,329,0,,,,,,,,,,,,,,,,,,,,,,,,,,,,,,,,,,993.3427581998985,,990.4912994999904,990.4912994999904,990.4912994999904,990.4912994999904,old_fruit_38.png,330,2.0,2.855308700003661,,,0048,11,2025-03-14_14h06.01.446,Surprise recog test,2023.1.3,59.94750992352395,
330,0,330,0,,,,,,,,,,,,,,,,,,,,,,,,,,,,,,,,,,995.3811178999022,996.4111133998958,994.3747497999575,994.3747497999575,994.3747497999575,994.3747497999575,old_stationery_41.png,331,4.0,1.0079779999796301,,,0048,11,2025-03-14_14h06.01.446,Surprise recog test,2023.1.3,59.94750992352395,
331,0,331,0,,,,,,,,,,,,,,,,,,,,,,,,,,,,,,,,,,997.7253963999683,998.7444576999405,996.4111133998958,996.4111133998958,996.4111133998958,996.4111133998958,old_sceneIn_48.png,332,4.0,1.3168333999346942,,,0048,11,2025-03-14_14h06.01.446,Surprise recog test,2023.1.3,59.94750992352395,
332,0,332,0,,,,,,,,,,,,,,,,,,,,,,,,,,,,,,,,,,1000.3601603999268,1001.3823603999335,998.7444576999405,998.7444576999405,998.7444576999405,998.7444576999405,old_sceneOut_12.png,333,4.0,1.6182718001073226,,,0048,11,2025-03-14_14h06.01.446,Surprise recog test,2023.1.3,59.94750992352395,
333,0,333,0,,,,,,,,,,,,,,,,,,,,,,,,,,,,,,,,,,1003.0348698999733,,1001.3823603999335,1001.3823603999335,1001.3823603999335,1001.3823603999335,old_sceneOut_10.png,334,4.0,1.655638700001873,,,0048,11,2025-03-14_14h06.01.446,Surprise recog test,2023.1.3,59.94750992352395,
334,0,334,0,,,,,,,,,,,,,,,,,,,,,,,,,,,,,,,,,,1006.1505969999125,1007.1709287998965,1004.0676003999542,1004.0676003999542,1004.0676003999542,1004.0676003999542,old_stationery_46.png,335,1.0,2.0806828000349924,,,0048,11,2025-03-14_14h06.01.446,Surprise recog test,2023.1.3,59.94750992352395,
335,0,335,0,,,,,,,,,,,,,,,,,,,,,,,,,,,,,,,,,,1008.3138496999163,1009.3353316999273,1007.1709287998965,1007.1709287998965,1007.1709287998965,1007.1709287998965,old_sceneOut_15.png,336,4.0,1.1416358000133187,,,0048,11,2025-03-14_14h06.01.446,Surprise recog test,2023.1.3,59.94750992352395,
336,0,336,0,,,,,,,,,,,,,,,,,,,,,,,,,,,,,,,,,,1011.2817026999546,1012.2963649999583,1009.3353316999273,1009.3353316999273,1009.3353316999273,1009.3353316999273,old_stationery_50.png,337,1.0,1.9450523999985307,,,0048,11,2025-03-14_14h06.01.446,Surprise recog test,2023.1.3,59.94750992352395,
337,0,337,0,,,,,,,,,,,,,,,,,,,,,,,,,,,,,,,,,,1015.0049204999814,1016.0248488999205,1012.2963649999583,1012.2963649999583,1012.2963649999583,1012.2963649999583,new_sceneOut_21.png,338,1.0,2.7028496999992058,,,0048,11,2025-03-14_14h06.01.446,Surprise recog test,2023.1.3,59.94750992352395,
338,0,338,0,,,,,,,,,,,,,,,,,,,,,,,,,,,,,,,,,,1018.5805518999696,,1016.0248488999205,1016.0248488999205,1016.0248488999205,1016.0248488999205,old_stationery_16.png,339,5.0,2.5570783999282867,,,0048,11,2025-03-14_14h06.01.446,Surprise recog test,2023.1.3,59.94750992352395,
339,0,339,0,,,,,,,,,,,,,,,,,,,,,,,,,,,,,,,,,,1021.5160029999679,,1019.6135362999048,1019.6135362999048,1019.6135362999048,1019.6135362999048,new_sceneIn_43.png,340,2.0,1.9053758999798447,,,0048,11,2025-03-14_14h06.01.446,Surprise recog test,2023.1.3,59.94750992352395,
340,0,340,0,,,,,,,,,,,,,,,,,,,,,,,,,,,,,,,,,,1024.8194151999196,,1022.5453178999014,1022.5453178999014,1022.5453178999014,1022.5453178999014,new_fruit_20.png,341,5.0,2.2745875000255182,,,0048,11,2025-03-14_14h06.01.446,Surprise recog test,2023.1.3,59.94750992352395,
341,0,341,0,,,,,,,,,,,,,,,,,,,,,,,,,,,,,,,,,,1027.7927269999636,1028.820715299924,1025.846702199895,1025.846702199895,1025.846702199895,1025.846702199895,new_sceneIn_34.png,342,3.0,1.9461795000825077,,,0048,11,2025-03-14_14h06.01.446,Surprise recog test,2023.1.3,59.94750992352395,
342,0,342,0,,,,,,,,,,,,,,,,,,,,,,,,,,,,,,,,,,1030.6263715999667,1031.6579311999958,1028.820715299924,1028.820715299924,1028.820715299924,1028.820715299924,old_stationery_49.png,343,1.0,1.80813339992892,,,0048,11,2025-03-14_14h06.01.446,Surprise recog test,2023.1.3,59.94750992352395,
343,0,343,0,,,,,,,,,,,,,,,,,,,,,,,,,,,,,,,,,,1033.5449846999254,1034.5758212999208,1031.6579311999958,1031.6579311999958,1031.6579311999958,1031.6579311999958,old_stationery_35.png,344,1.0,1.88989499991294,,,0048,11,2025-03-14_14h06.01.446,Surprise recog test,2023.1.3,59.94750992352395,
344,0,344,0,,,,,,,,,,,,,,,,,,,,,,,,,,,,,,,,,,1036.4544562998926,1037.4804027999053,1034.5758212999208,1034.5758212999208,1034.5758212999208,1034.5758212999208,old_sceneIn_13.png,345,4.0,1.8801985000027344,,,0048,11,2025-03-14_14h06.01.446,Surprise recog test,2023.1.3,59.94750992352395,
345,0,345,0,,,,,,,,,,,,,,,,,,,,,,,,,,,,,,,,,,1038.4610920998966,1039.4662072999636,1037.4804027999053,1037.4804027999053,1037.4804027999053,1037.4804027999053,new_stationery_5.png,346,4.0,0.9837257999461144,,,0048,11,2025-03-14_14h06.01.446,Surprise recog test,2023.1.3,59.94750992352395,
346,0,346,0,,,,,,,,,,,,,,,,,,,,,,,,,,,,,,,,,,1040.4592331999447,1041.4822542999173,1039.4662072999636,1039.4662072999636,1039.4662072999636,1039.4662072999636,old_sceneIn_1.png,347,4.0,0.9895129000069574,,,0048,11,2025-03-14_14h06.01.446,Surprise recog test,2023.1.3,59.94750992352395,
347,0,347,0,,,,,,,,,,,,,,,,,,,,,,,,,,,,,,,,,,1042.737822999945,1043.7675279999385,1041.4822542999173,1041.4822542999173,1041.4822542999173,1041.4822542999173,new_sceneIn_40.png,348,4.0,1.2566304000793025,,,0048,11,2025-03-14_14h06.01.446,Surprise recog test,2023.1.3,59.94750992352395,
348,0,348,0,,,,,,,,,,,,,,,,,,,,,,,,,,,,,,,,,,1045.5461970999604,1046.559531499981,1043.7675279999385,1043.7675279999385,1043.7675279999385,1043.7675279999385,new_stationery_17.png,349,1.0,1.7781836999347433,,,0048,11,2025-03-14_14h06.01.446,Surprise recog test,2023.1.3,59.94750992352395,
349,0,349,0,,,,,,,,,,,,,,,,,,,,,,,,,,,,,,,,,,1048.157892099931,1049.1857918999158,1046.559531499981,1046.559531499981,1046.559531499981,1046.559531499981,new_fruit_38.png,350,2.0,1.595338899991475,,,0048,11,2025-03-14_14h06.01.446,Surprise recog test,2023.1.3,59.94750992352395,
350,0,350,0,,,,,,,,,,,,,,,,,,,,,,,,,,,,,,,,,,1050.5619127999526,1051.589900599909,1049.1857918999158,1049.1857918999158,1049.1857918999158,1049.1857918999158,old_sceneIn_25.png,351,4.0,1.3784739000257105,,,0048,11,2025-03-14_14h06.01.446,Surprise recog test,2023.1.3,59.94750992352395,
351,0,351,0,,,,,,,,,,,,,,,,,,,,,,,,,,,,,,,,,,1053.2971086999169,1054.329458699911,1051.589900599909,1051.589900599909,1051.589900599909,1051.589900599909,new_fruit_21.png,352,1.0,1.7042608999181539,,,0048,11,2025-03-14_14h06.01.446,Surprise recog test,2023.1.3,59.94750992352395,
