trial_loop.thisRepN,trial_loop.thisTrialN,trial_loop.thisN,trial_loop.thisIndex,VAS_slider.started,VAS_text.started,VAS_notstressed_text.started,VAS_stressed_text.started,continue_input.started,continue_text.started,label0.started,label10.started,label20.started,label30.started,label40.started,label50.started,label60.started,label70.started,label80.started,label90.started,label100.started,VAS_slider.response,VAS_slider.rt,VAS_slider.history,Answer_VAS,continue_input.keys,instruction_text.started,continue_text_2.started,continue_input_2.started,continue_input_2.keys,continue_input_2.rt,continue_input_2.duration,example_text.started,example_slider_2.started,example_image.started,example_slider_2.response,example_slider_2.rt,fixcross.started,fixcross.stopped,front_square.started,stim_images.started,trial_inst_images.started,slider_images.started,thisImg,trial_count,slider_images.response,slider_images.rt,outro.started,participant,condition,date,expName,psychopyVersion,frameRate,
,,,,26.853444800013676,26.853444800013676,26.853444800013676,26.853444800013676,26.853444800013676,26.853444800013676,26.853444800013676,26.853444800013676,26.853444800013676,26.853444800013676,26.853444800013676,26.853444800013676,26.853444800013676,26.853444800013676,26.853444800013676,26.853444800013676,26.853444800013676,2.077777777777778,10.255166199989617,"[(2.077777777777778, 10.255166199989617)]",2.077777777777778,None,,,,,,,,,,,,,,,,,,,,,,,005,0,2024-09-18_14h06.12.333,Surprise recog test,2023.1.3,59.87697677476022,
,,,,,,,,,,,,,,,,,,,,,,,,,,37.1776952999644,37.1776952999644,37.1776952999644,space,38.17224890005309,None,,,,,,,,,,,,,,,,,005,0,2024-09-18_14h06.12.333,Surprise recog test,2023.1.3,59.87697677476022,
0,0,0,0,,,,,,,,,,,,,,,,,,,,,,,,,,,,,75.49623910000082,75.49623910000082,75.49623910000082,5.0,3.4048316000262275,83.32795379997697,84.33880330005195,79.86822569998913,79.86822569998913,79.86822569998913,79.86822569998913,old_fruit_19.png,1,2.0,3.4634566999739036,,005,0,2024-09-18_14h06.12.333,Surprise recog test,2023.1.3,59.87697677476022,
1,0,1,0,,,,,,,,,,,,,,,,,,,,,,,,,,,,,,,,,,88.53800659999251,,84.33880330005195,84.33880330005195,84.33880330005195,84.33880330005195,old_stationery_17.png,2,5.0,4.197037199977785,,005,0,2024-09-18_14h06.12.333,Surprise recog test,2023.1.3,59.87697677476022,
2,0,2,0,,,,,,,,,,,,,,,,,,,,,,,,,,,,,,,,,,92.83309179998469,93.8475837999722,89.57004290004261,89.57004290004261,89.57004290004261,89.57004290004261,new_sceneOut_10.png,3,1.0,3.2633247999474406,,005,0,2024-09-18_14h06.12.333,Surprise recog test,2023.1.3,59.87697677476022,
3,0,3,0,,,,,,,,,,,,,,,,,,,,,,,,,,,,,,,,,,95.82455530005973,96.84318379999604,93.8475837999722,93.8475837999722,93.8475837999722,93.8475837999722,old_fruit_32.png,4,1.0,1.9731715000234544,,005,0,2024-09-18_14h06.12.333,Surprise recog test,2023.1.3,59.87697677476022,
4,0,4,0,,,,,,,,,,,,,,,,,,,,,,,,,,,,,,,,,,101.83420020004269,,96.84318379999604,96.84318379999604,96.84318379999604,96.84318379999604,old_sceneOut_23.png,5,None,None,,005,0,2024-09-18_14h06.12.333,Surprise recog test,2023.1.3,59.87697677476022,
5,0,5,0,,,,,,,,,,,,,,,,,,,,,,,,,,,,,,,,,,107.72245170001406,108.75610800005961,102.86197099997662,102.86197099997662,102.86197099997662,102.86197099997662,old_sceneOut_14.png,6,3.0,4.86211159999948,,005,0,2024-09-18_14h06.12.333,Surprise recog test,2023.1.3,59.87697677476022,
6,0,6,0,,,,,,,,,,,,,,,,,,,,,,,,,,,,,,,,,,112.43041829997674,113.45984250004403,108.75610800005961,108.75610800005961,108.75610800005961,108.75610800005961,new_fruit_30.png,7,2.0,3.6765959999756888,,005,0,2024-09-18_14h06.12.333,Surprise recog test,2023.1.3,59.87697677476022,
7,0,7,0,,,,,,,,,,,,,,,,,,,,,,,,,,,,,,,,,,118.26000010001007,119.28146710002329,113.45984250004403,113.45984250004403,113.45984250004403,113.45984250004403,old_fruit_41.png,8,2.0,4.802799400058575,,005,0,2024-09-18_14h06.12.333,Surprise recog test,2023.1.3,59.87697677476022,
8,0,8,0,,,,,,,,,,,,,,,,,,,,,,,,,,,,,,,,,,121.75699640007224,122.78511489997618,119.28146710002329,119.28146710002329,119.28146710002329,119.28146710002329,new_sceneIn_11.png,9,4.0,2.4765305999899283,,005,0,2024-09-18_14h06.12.333,Surprise recog test,2023.1.3,59.87697677476022,
9,0,9,0,,,,,,,,,,,,,,,,,,,,,,,,,,,,,,,,,,127.39362750004511,128.41689880006015,122.78511489997618,122.78511489997618,122.78511489997618,122.78511489997618,new_sceneIn_16.png,10,3.0,4.611406299984083,,005,0,2024-09-18_14h06.12.333,Surprise recog test,2023.1.3,59.87697677476022,
10,0,10,0,,,,,,,,,,,,,,,,,,,,,,,,,,,,,,,,,,132.7488338999683,133.77595430007204,128.41689880006015,128.41689880006015,128.41689880006015,128.41689880006015,new_sceneOut_39.png,11,5.0,4.334269399987534,,005,0,2024-09-18_14h06.12.333,Surprise recog test,2023.1.3,59.87697677476022,
11,0,11,0,,,,,,,,,,,,,,,,,,,,,,,,,,,,,,,,,,135.47907430003397,,133.77595430007204,133.77595430007204,133.77595430007204,133.77595430007204,old_fruit_10.png,12,2.0,1.701785699930042,,005,0,2024-09-18_14h06.12.333,Surprise recog test,2023.1.3,59.87697677476022,
12,0,12,0,,,,,,,,,,,,,,,,,,,,,,,,,,,,,,,,,,139.65365230001044,140.6698898000177,136.51179400004912,136.51179400004912,136.51179400004912,136.51179400004912,old_sceneOut_34.png,13,1.0,3.1447354999836534,,005,0,2024-09-18_14h06.12.333,Surprise recog test,2023.1.3,59.87697677476022,
13,0,13,0,,,,,,,,,,,,,,,,,,,,,,,,,,,,,,,,,,143.39219000004232,144.40255480003543,140.6698898000177,140.6698898000177,140.6698898000177,140.6698898000177,new_sceneIn_26.png,14,3.0,2.718160899938084,,005,0,2024-09-18_14h06.12.333,Surprise recog test,2023.1.3,59.87697677476022,
14,0,14,0,,,,,,,,,,,,,,,,,,,,,,,,,,,,,,,,,,147.2174533000216,148.2266888000304,144.40255480003543,144.40255480003543,144.40255480003543,144.40255480003543,old_sceneOut_38.png,15,3.0,2.804774699965492,,005,0,2024-09-18_14h06.12.333,Surprise recog test,2023.1.3,59.87697677476022,
15,0,15,0,,,,,,,,,,,,,,,,,,,,,,,,,,,,,,,,,,150.16178840002976,151.19281919999048,148.2266888000304,148.2266888000304,148.2266888000304,148.2266888000304,new_sceneOut_27.png,16,1.0,1.9310795000055805,,005,0,2024-09-18_14h06.12.333,Surprise recog test,2023.1.3,59.87697677476022,
16,0,16,0,,,,,,,,,,,,,,,,,,,,,,,,,,,,,,,,,,153.69359729997814,,151.19281919999048,151.19281919999048,151.19281919999048,151.19281919999048,new_fruit_41.png,17,4.0,2.501492799958214,,005,0,2024-09-18_14h06.12.333,Surprise recog test,2023.1.3,59.87697677476022,
17,0,17,0,,,,,,,,,,,,,,,,,,,,,,,,,,,,,,,,,,156.4820924999658,157.50176030001603,154.71164650004357,154.71164650004357,154.71164650004357,154.71164650004357,new_sceneIn_4.png,18,5.0,1.7673170999623835,,005,0,2024-09-18_14h06.12.333,Surprise recog test,2023.1.3,59.87697677476022,
18,0,18,0,,,,,,,,,,,,,,,,,,,,,,,,,,,,,,,,,,159.68159749999177,,157.50176030001603,157.50176030001603,157.50176030001603,157.50176030001603,old_fruit_13.png,19,5.0,2.176070300047286,,005,0,2024-09-18_14h06.12.333,Surprise recog test,2023.1.3,59.87697677476022,
19,0,19,0,,,,,,,,,,,,,,,,,,,,,,,,,,,,,,,,,,162.95592490001582,163.987316200044,160.70236820005812,160.70236820005812,160.70236820005812,160.70236820005812,new_sceneIn_18.png,20,5.0,2.246919799945317,,005,0,2024-09-18_14h06.12.333,Surprise recog test,2023.1.3,59.87697677476022,
20,0,20,0,,,,,,,,,,,,,,,,,,,,,,,,,,,,,,,,,,165.5753644000506,166.5910065000644,163.987316200044,163.987316200044,163.987316200044,163.987316200044,old_sceneIn_27.png,21,5.0,1.5899878999916837,,005,0,2024-09-18_14h06.12.333,Surprise recog test,2023.1.3,59.87697677476022,
21,0,21,0,,,,,,,,,,,,,,,,,,,,,,,,,,,,,,,,,,168.88393000001088,169.8982732000295,166.5910065000644,166.5910065000644,166.5910065000644,166.5910065000644,new_stationery_12.png,22,1.0,2.288440200034529,,005,0,2024-09-18_14h06.12.333,Surprise recog test,2023.1.3,59.87697677476022,
22,0,22,0,,,,,,,,,,,,,,,,,,,,,,,,,,,,,,,,,,172.8921201999765,,169.8982732000295,169.8982732000295,169.8982732000295,169.8982732000295,old_sceneIn_13.png,23,3.0,2.994479199987836,,005,0,2024-09-18_14h06.12.333,Surprise recog test,2023.1.3,59.87697677476022,
23,0,23,0,,,,,,,,,,,,,,,,,,,,,,,,,,,,,,,,,,176.73522220004816,177.76176679995842,173.91859520005528,173.91859520005528,173.91859520005528,173.91859520005528,old_sceneIn_44.png,24,3.0,2.8178056000033394,,005,0,2024-09-18_14h06.12.333,Surprise recog test,2023.1.3,59.87697677476022,
24,0,24,0,,,,,,,,,,,,,,,,,,,,,,,,,,,,,,,,,,181.1480331000639,,177.76176679995842,177.76176679995842,177.76176679995842,177.76176679995842,old_sceneIn_5.png,25,4.0,3.387575300061144,,005,0,2024-09-18_14h06.12.333,Surprise recog test,2023.1.3,59.87697677476022,
25,0,25,0,,,,,,,,,,,,,,,,,,,,,,,,,,,,,,,,,,184.31787829997484,,182.17017289996147,182.17017289996147,182.17017289996147,182.17017289996147,old_fruit_20.png,26,2.0,2.142439900082536,,005,0,2024-09-18_14h06.12.333,Surprise recog test,2023.1.3,59.87697677476022,
26,0,26,0,,,,,,,,,,,,,,,,,,,,,,,,,,,,,,,,,,186.83220419997815,187.85490480007138,185.33937790000346,185.33937790000346,185.33937790000346,185.33937790000346,old_fruit_28.png,27,1.0,1.487400499987416,,005,0,2024-09-18_14h06.12.333,Surprise recog test,2023.1.3,59.87697677476022,
27,0,27,0,,,,,,,,,,,,,,,,,,,,,,,,,,,,,,,,,,190.46871320006903,191.49714690004475,187.85490480007138,187.85490480007138,187.85490480007138,187.85490480007138,new_sceneOut_8.png,28,4.0,2.6162266000173986,,005,0,2024-09-18_14h06.12.333,Surprise recog test,2023.1.3,59.87697677476022,
28,0,28,0,,,,,,,,,,,,,,,,,,,,,,,,,,,,,,,,,,193.86958759999834,194.9074916000245,191.49714690004475,191.49714690004475,191.49714690004475,191.49714690004475,old_stationery_3.png,29,1.0,2.375005800044164,,005,0,2024-09-18_14h06.12.333,Surprise recog test,2023.1.3,59.87697677476022,
29,0,29,0,,,,,,,,,,,,,,,,,,,,,,,,,,,,,,,,,,197.52592250006273,198.54976640001405,194.9074916000245,194.9074916000245,194.9074916000245,194.9074916000245,new_fruit_19.png,30,2.0,2.623436799971387,,005,0,2024-09-18_14h06.12.333,Surprise recog test,2023.1.3,59.87697677476022,
30,0,30,0,,,,,,,,,,,,,,,,,,,,,,,,,,,,,,,,,,202.23057620006148,203.25042459997348,198.54976640001405,198.54976640001405,198.54976640001405,198.54976640001405,old_sceneIn_30.png,31,3.0,3.6836390000535175,,005,0,2024-09-18_14h06.12.333,Surprise recog test,2023.1.3,59.87697677476022,
31,0,31,0,,,,,,,,,,,,,,,,,,,,,,,,,,,,,,,,,,204.71705049998127,,203.25042459997348,203.25042459997348,203.25042459997348,203.25042459997348,old_fruit_8.png,32,2.0,1.4678698000498116,,005,0,2024-09-18_14h06.12.333,Surprise recog test,2023.1.3,59.87697677476022,
32,0,32,0,,,,,,,,,,,,,,,,,,,,,,,,,,,,,,,,,,208.29608570004348,209.32250380003825,205.75596410001162,205.75596410001162,205.75596410001162,205.75596410001162,old_fruit_6.png,33,2.0,2.545778999920003,,005,0,2024-09-18_14h06.12.333,Surprise recog test,2023.1.3,59.87697677476022,
33,0,33,0,,,,,,,,,,,,,,,,,,,,,,,,,,,,,,,,,,211.99777750007343,213.0272588999942,209.32250380003825,209.32250380003825,209.32250380003825,209.32250380003825,old_sceneIn_36.png,34,1.0,2.6776175999548286,,005,0,2024-09-18_14h06.12.333,Surprise recog test,2023.1.3,59.87697677476022,
34,0,34,0,,,,,,,,,,,,,,,,,,,,,,,,,,,,,,,,,,215.9940029999707,,213.0272588999942,213.0272588999942,213.0272588999942,213.0272588999942,old_sceneIn_37.png,35,3.0,2.9685088000260293,,005,0,2024-09-18_14h06.12.333,Surprise recog test,2023.1.3,59.87697677476022,
35,0,35,0,,,,,,,,,,,,,,,,,,,,,,,,,,,,,,,,,,219.51066949998494,220.53298520005774,217.03699479997158,217.03699479997158,217.03699479997158,217.03699479997158,new_stationery_34.png,36,5.0,2.4718760000541806,,005,0,2024-09-18_14h06.12.333,Surprise recog test,2023.1.3,59.87697677476022,
36,0,36,0,,,,,,,,,,,,,,,,,,,,,,,,,,,,,,,,,,223.6022264000494,224.63283570006024,220.53298520005774,220.53298520005774,220.53298520005774,220.53298520005774,old_sceneOut_19.png,37,4.0,3.0710911999922246,,005,0,2024-09-18_14h06.12.333,Surprise recog test,2023.1.3,59.87697677476022,
37,0,37,0,,,,,,,,,,,,,,,,,,,,,,,,,,,,,,,,,,229.5598939000629,230.59014169999864,224.63283570006024,224.63283570006024,224.63283570006024,224.63283570006024,old_fruit_21.png,38,3.0,4.929096299922094,,005,0,2024-09-18_14h06.12.333,Surprise recog test,2023.1.3,59.87697677476022,
38,0,38,0,,,,,,,,,,,,,,,,,,,,,,,,,,,,,,,,,,234.49694830004591,235.51218399999198,230.59014169999864,230.59014169999864,230.59014169999864,230.59014169999864,old_sceneIn_4.png,39,4.0,3.9088769999798387,,005,0,2024-09-18_14h06.12.333,Surprise recog test,2023.1.3,59.87697677476022,
39,0,39,0,,,,,,,,,,,,,,,,,,,,,,,,,,,,,,,,,,238.09864660003223,239.13172459998168,235.51218399999198,235.51218399999198,235.51218399999198,235.51218399999198,old_fruit_38.png,40,5.0,2.583861400024034,,005,0,2024-09-18_14h06.12.333,Surprise recog test,2023.1.3,59.87697677476022,
40,0,40,0,,,,,,,,,,,,,,,,,,,,,,,,,,,,,,,,,,242.94927189999726,,239.13172459998168,239.13172459998168,239.13172459998168,239.13172459998168,new_sceneIn_22.png,41,1.0,3.82143879996147,,005,0,2024-09-18_14h06.12.333,Surprise recog test,2023.1.3,59.87697677476022,
41,0,41,0,,,,,,,,,,,,,,,,,,,,,,,,,,,,,,,,,,248.70139140007086,249.7226376000326,243.9703800000716,243.9703800000716,243.9703800000716,243.9703800000716,old_fruit_9.png,42,2.0,4.726888499921188,,005,0,2024-09-18_14h06.12.333,Surprise recog test,2023.1.3,59.87697677476022,
42,0,42,0,,,,,,,,,,,,,,,,,,,,,,,,,,,,,,,,,,251.63126890000422,252.6591357999714,249.7226376000326,249.7226376000326,249.7226376000326,249.7226376000326,new_fruit_6.png,43,1.0,1.9113457000348717,,005,0,2024-09-18_14h06.12.333,Surprise recog test,2023.1.3,59.87697677476022,
43,0,43,0,,,,,,,,,,,,,,,,,,,,,,,,,,,,,,,,,,254.59365769999567,,252.6591357999714,252.6591357999714,252.6591357999714,252.6591357999714,new_fruit_4.png,44,2.0,1.936780899995938,,005,0,2024-09-18_14h06.12.333,Surprise recog test,2023.1.3,59.87697677476022,
44,0,44,0,,,,,,,,,,,,,,,,,,,,,,,,,,,,,,,,,,258.2496577000711,259.279525800026,255.62779259996023,255.62779259996023,255.62779259996023,255.62779259996023,new_sceneOut_29.png,45,5.0,2.6245026999386027,,005,0,2024-09-18_14h06.12.333,Surprise recog test,2023.1.3,59.87697677476022,
45,0,45,0,,,,,,,,,,,,,,,,,,,,,,,,,,,,,,,,,,261.4693368000444,262.48596730001736,259.279525800026,259.279525800026,259.279525800026,259.279525800026,old_stationery_34.png,46,1.0,2.1902837000088766,,005,0,2024-09-18_14h06.12.333,Surprise recog test,2023.1.3,59.87697677476022,
46,0,46,0,,,,,,,,,,,,,,,,,,,,,,,,,,,,,,,,,,263.70599489996675,264.73414279997814,262.48596730001736,262.48596730001736,262.48596730001736,262.48596730001736,old_fruit_30.png,47,1.0,1.2161048999987543,,005,0,2024-09-18_14h06.12.333,Surprise recog test,2023.1.3,59.87697677476022,
47,0,47,0,,,,,,,,,,,,,,,,,,,,,,,,,,,,,,,,,,267.1064681999851,268.13671420002356,264.73414279997814,264.73414279997814,264.73414279997814,264.73414279997814,new_stationery_36.png,48,3.0,2.3731684000231326,,005,0,2024-09-18_14h06.12.333,Surprise recog test,2023.1.3,59.87697677476022,
48,0,48,0,,,,,,,,,,,,,,,,,,,,,,,,,,,,,,,,,,270.8715607000049,271.89173280005343,268.13671420002356,268.13671420002356,268.13671420002356,268.13671420002356,old_stationery_5.png,49,1.0,2.7353186999680474,,005,0,2024-09-18_14h06.12.333,Surprise recog test,2023.1.3,59.87697677476022,
49,0,49,0,,,,,,,,,,,,,,,,,,,,,,,,,,,,,,,,,,274.6530618000543,275.6709283000091,271.89173280005343,271.89173280005343,271.89173280005343,271.89173280005343,new_stationery_7.png,50,2.0,2.7611981000518426,,005,0,2024-09-18_14h06.12.333,Surprise recog test,2023.1.3,59.87697677476022,
50,0,50,0,,,,,,,,,,,,,,,,,,,,,,,,,,,,,,,,,,277.842845999985,278.8515033000149,275.6709283000091,275.6709283000091,275.6709283000091,275.6709283000091,new_fruit_43.png,51,5.0,2.17188779998105,,005,0,2024-09-18_14h06.12.333,Surprise recog test,2023.1.3,59.87697677476022,
51,0,51,0,,,,,,,,,,,,,,,,,,,,,,,,,,,,,,,,,,281.5975529999705,,278.8515033000149,278.8515033000149,278.8515033000149,278.8515033000149,new_fruit_10.png,52,4.0,2.7421961999498308,,005,0,2024-09-18_14h06.12.333,Surprise recog test,2023.1.3,59.87697677476022,
52,0,52,0,,,,,,,,,,,,,,,,,,,,,,,,,,,,,,,,,,285.7391587999882,286.75740200001746,282.6167284999974,282.6167284999974,282.6167284999974,282.6167284999974,old_stationery_19.png,53,3.0,3.1165325000183657,,005,0,2024-09-18_14h06.12.333,Surprise recog test,2023.1.3,59.87697677476022,
53,0,53,0,,,,,,,,,,,,,,,,,,,,,,,,,,,,,,,,,,290.7698663000483,291.78814309998415,286.75740200001746,286.75740200001746,286.75740200001746,286.75740200001746,old_fruit_12.png,54,3.0,4.001459800056182,,005,0,2024-09-18_14h06.12.333,Surprise recog test,2023.1.3,59.87697677476022,
54,0,54,0,,,,,,,,,,,,,,,,,,,,,,,,,,,,,,,,,,295.0446385999676,296.0785500999773,291.78814309998415,291.78814309998415,291.78814309998415,291.78814309998415,new_sceneOut_41.png,55,2.0,3.258820400107652,,005,0,2024-09-18_14h06.12.333,Surprise recog test,2023.1.3,59.87697677476022,
55,0,55,0,,,,,,,,,,,,,,,,,,,,,,,,,,,,,,,,,,298.0303884999594,,296.0785500999773,296.0785500999773,296.0785500999773,296.0785500999773,new_fruit_8.png,56,3.0,1.9510034000268206,,005,0,2024-09-18_14h06.12.333,Surprise recog test,2023.1.3,59.87697677476022,
56,0,56,0,,,,,,,,,,,,,,,,,,,,,,,,,,,,,,,,,,302.77021800004877,303.7884609999601,299.0614615000086,299.0614615000086,299.0614615000086,299.0614615000086,new_sceneOut_21.png,57,2.0,3.7105745999142528,,005,0,2024-09-18_14h06.12.333,Surprise recog test,2023.1.3,59.87697677476022,
57,0,57,0,,,,,,,,,,,,,,,,,,,,,,,,,,,,,,,,,,305.38985719997436,306.41725319996476,303.7884609999601,303.7884609999601,303.7884609999601,303.7884609999601,new_sceneOut_50.png,58,2.0,1.597856199950911,,005,0,2024-09-18_14h06.12.333,Surprise recog test,2023.1.3,59.87697677476022,
58,0,58,0,,,,,,,,,,,,,,,,,,,,,,,,,,,,,,,,,,308.34748230001424,309.3705538000213,306.41725319996476,306.41725319996476,306.41725319996476,306.41725319996476,new_sceneOut_49.png,59,3.0,1.9314941000193357,,005,0,2024-09-18_14h06.12.333,Surprise recog test,2023.1.3,59.87697677476022,
59,0,59,0,,,,,,,,,,,,,,,,,,,,,,,,,,,,,,,,,,311.9885751999682,312.99256070004776,309.3705538000213,309.3705538000213,309.3705538000213,309.3705538000213,new_sceneIn_43.png,60,4.0,2.619850300019607,,005,0,2024-09-18_14h06.12.333,Surprise recog test,2023.1.3,59.87697677476022,
60,0,60,0,,,,,,,,,,,,,,,,,,,,,,,,,,,,,,,,,,317.44855269999243,318.4719858999597,312.99256070004776,312.99256070004776,312.99256070004776,312.99256070004776,new_sceneOut_12.png,61,2.0,4.451761299977079,,005,0,2024-09-18_14h06.12.333,Surprise recog test,2023.1.3,59.87697677476022,
61,0,61,0,,,,,,,,,,,,,,,,,,,,,,,,,,,,,,,,,,322.35345930000767,323.3835453999927,318.4719858999597,318.4719858999597,318.4719858999597,318.4719858999597,new_stationery_40.png,62,4.0,3.883116799988784,,005,0,2024-09-18_14h06.12.333,Surprise recog test,2023.1.3,59.87697677476022,
62,0,62,0,,,,,,,,,,,,,,,,,,,,,,,,,,,,,,,,,,326.2648618000094,327.2750118999975,323.3835453999927,323.3835453999927,323.3835453999927,323.3835453999927,old_fruit_34.png,63,4.0,2.884130100021139,,005,0,2024-09-18_14h06.12.333,Surprise recog test,2023.1.3,59.87697677476022,
63,0,63,0,,,,,,,,,,,,,,,,,,,,,,,,,,,,,,,,,,329.9370917000342,330.95424800005276,327.2750118999975,327.2750118999975,327.2750118999975,327.2750118999975,old_sceneOut_9.png,64,3.0,2.6572041999315843,,005,0,2024-09-18_14h06.12.333,Surprise recog test,2023.1.3,59.87697677476022,
64,0,64,0,,,,,,,,,,,,,,,,,,,,,,,,,,,,,,,,,,332.9882045000559,334.0043296000222,330.95424800005276,330.95424800005276,330.95424800005276,330.95424800005276,new_fruit_13.png,65,2.0,2.0296705999644473,,005,0,2024-09-18_14h06.12.333,Surprise recog test,2023.1.3,59.87697677476022,
65,0,65,0,,,,,,,,,,,,,,,,,,,,,,,,,,,,,,,,,,336.6463177000405,337.6813175000716,334.0043296000222,334.0043296000222,334.0043296000222,334.0043296000222,new_stationery_42.png,66,2.0,2.643289800034836,,005,0,2024-09-18_14h06.12.333,Surprise recog test,2023.1.3,59.87697677476022,
66,0,66,0,,,,,,,,,,,,,,,,,,,,,,,,,,,,,,,,,,339.81241140002385,340.82193590002134,337.6813175000716,337.6813175000716,337.6813175000716,337.6813175000716,old_sceneOut_41.png,67,2.0,2.133184300037101,,005,0,2024-09-18_14h06.12.333,Surprise recog test,2023.1.3,59.87697677476022,
67,0,67,0,,,,,,,,,,,,,,,,,,,,,,,,,,,,,,,,,,343.2755463999929,344.29639240005054,340.82193590002134,340.82193590002134,340.82193590002134,340.82193590002134,old_fruit_14.png,68,3.0,2.4537339999806136,,005,0,2024-09-18_14h06.12.333,Surprise recog test,2023.1.3,59.87697677476022,
68,0,68,0,,,,,,,,,,,,,,,,,,,,,,,,,,,,,,,,,,346.42342100001406,347.43749729997944,344.29639240005054,344.29639240005054,344.29639240005054,344.29639240005054,new_sceneIn_47.png,69,5.0,2.128831599955447,,005,0,2024-09-18_14h06.12.333,Surprise recog test,2023.1.3,59.87697677476022,
69,0,69,0,,,,,,,,,,,,,,,,,,,,,,,,,,,,,,,,,,349.2759966000449,350.3040121999802,347.43749729997944,347.43749729997944,347.43749729997944,347.43749729997944,old_stationery_14.png,70,5.0,1.835189100005664,,005,0,2024-09-18_14h06.12.333,Surprise recog test,2023.1.3,59.87697677476022,
70,0,70,0,,,,,,,,,,,,,,,,,,,,,,,,,,,,,,,,,,352.72531400003936,,350.3040121999802,350.3040121999802,350.3040121999802,350.3040121999802,old_sceneIn_38.png,71,4.0,2.4218764000106603,,005,0,2024-09-18_14h06.12.333,Surprise recog test,2023.1.3,59.87697677476022,
71,0,71,0,,,,,,,,,,,,,,,,,,,,,,,,,,,,,,,,,,356.6058198000537,357.61349150002934,353.76587900007144,353.76587900007144,353.76587900007144,353.76587900007144,old_fruit_2.png,72,3.0,2.8422021000878885,,005,0,2024-09-18_14h06.12.333,Surprise recog test,2023.1.3,59.87697677476022,
72,0,72,0,,,,,,,,,,,,,,,,,,,,,,,,,,,,,,,,,,360.25170490005985,361.28313990007155,357.61349150002934,357.61349150002934,357.61349150002934,357.61349150002934,old_sceneOut_27.png,73,4.0,2.634697200031951,,005,0,2024-09-18_14h06.12.333,Surprise recog test,2023.1.3,59.87697677476022,
73,0,73,0,,,,,,,,,,,,,,,,,,,,,,,,,,,,,,,,,,363.5431304000085,364.5517475999659,361.28313990007155,361.28313990007155,361.28313990007155,361.28313990007155,new_sceneIn_38.png,74,3.0,2.2628659000620246,,005,0,2024-09-18_14h06.12.333,Surprise recog test,2023.1.3,59.87697677476022,
74,0,74,0,,,,,,,,,,,,,,,,,,,,,,,,,,,,,,,,,,366.91803619998973,367.9249741999665,364.5517475999659,364.5517475999659,364.5517475999659,364.5517475999659,old_fruit_48.png,75,1.0,2.3591226000571623,,005,0,2024-09-18_14h06.12.333,Surprise recog test,2023.1.3,59.87697677476022,
75,0,75,0,,,,,,,,,,,,,,,,,,,,,,,,,,,,,,,,,,370.0852318999823,371.0934863999719,367.9249741999665,367.9249741999665,367.9249741999665,367.9249741999665,old_sceneOut_2.png,76,2.0,2.1540784999961033,,005,0,2024-09-18_14h06.12.333,Surprise recog test,2023.1.3,59.87697677476022,
76,0,76,0,,,,,,,,,,,,,,,,,,,,,,,,,,,,,,,,,,373.02783420006745,374.05657580005936,371.0934863999719,371.0934863999719,371.0934863999719,371.0934863999719,old_stationery_9.png,77,1.0,1.9297910000896081,,005,0,2024-09-18_14h06.12.333,Surprise recog test,2023.1.3,59.87697677476022,
77,0,77,0,,,,,,,,,,,,,,,,,,,,,,,,,,,,,,,,,,377.30617140000686,378.31301090004854,374.05657580005936,374.05657580005936,374.05657580005936,374.05657580005936,old_sceneOut_4.png,78,4.0,3.2490477000828832,,005,0,2024-09-18_14h06.12.333,Surprise recog test,2023.1.3,59.87697677476022,
78,0,78,0,,,,,,,,,,,,,,,,,,,,,,,,,,,,,,,,,,380.46251720003784,381.4816220999928,378.31301090004854,378.31301090004854,378.31301090004854,378.31301090004854,old_sceneIn_39.png,79,2.0,2.143810100038536,,005,0,2024-09-18_14h06.12.333,Surprise recog test,2023.1.3,59.87697677476022,
79,0,79,0,,,,,,,,,,,,,,,,,,,,,,,,,,,,,,,,,,384.06564110005274,385.0785195999779,381.4816220999928,381.4816220999928,381.4816220999928,381.4816220999928,old_sceneIn_47.png,80,5.0,2.5863255000440404,,005,0,2024-09-18_14h06.12.333,Surprise recog test,2023.1.3,59.87697677476022,
80,0,80,0,,,,,,,,,,,,,,,,,,,,,,,,,,,,,,,,,,386.98067870002706,387.9917250999715,385.0785195999779,385.0785195999779,385.0785195999779,385.0785195999779,old_sceneOut_3.png,81,4.0,1.902499399962835,,005,0,2024-09-18_14h06.12.333,Surprise recog test,2023.1.3,59.87697677476022,
81,0,81,0,,,,,,,,,,,,,,,,,,,,,,,,,,,,,,,,,,389.21871799998917,390.23851759999525,387.9917250999715,387.9917250999715,387.9917250999715,387.9917250999715,old_sceneIn_11.png,82,4.0,1.2232551999622956,,005,0,2024-09-18_14h06.12.333,Surprise recog test,2023.1.3,59.87697677476022,
82,0,82,0,,,,,,,,,,,,,,,,,,,,,,,,,,,,,,,,,,393.27745769999456,394.2965189999668,390.23851759999525,390.23851759999525,390.23851759999525,390.23851759999525,new_fruit_5.png,83,2.0,3.0399503000080585,,005,0,2024-09-18_14h06.12.333,Surprise recog test,2023.1.3,59.87697677476022,
83,0,83,0,,,,,,,,,,,,,,,,,,,,,,,,,,,,,,,,,,395.82911599997897,396.8617613000097,394.2965189999668,394.2965189999668,394.2965189999668,394.2965189999668,new_stationery_22.png,84,1.0,1.5285534999566153,,005,0,2024-09-18_14h06.12.333,Surprise recog test,2023.1.3,59.87697677476022,
84,0,84,0,,,,,,,,,,,,,,,,,,,,,,,,,,,,,,,,,,399.2264724000124,400.2537192000309,396.8617613000097,396.8617613000097,396.8617613000097,396.8617613000097,new_sceneIn_1.png,85,3.0,2.3614143000449985,,005,0,2024-09-18_14h06.12.333,Surprise recog test,2023.1.3,59.87697677476022,
85,0,85,0,,,,,,,,,,,,,,,,,,,,,,,,,,,,,,,,,,402.5493646999821,,400.2537192000309,400.2537192000309,400.2537192000309,400.2537192000309,old_stationery_28.png,86,1.0,2.2978915000567213,,005,0,2024-09-18_14h06.12.333,Surprise recog test,2023.1.3,59.87697677476022,
86,0,86,0,,,,,,,,,,,,,,,,,,,,,,,,,,,,,,,,,,404.91355170006864,405.93599020002875,403.5835814999882,403.5835814999882,403.5835814999882,403.5835814999882,old_fruit_4.png,87,1.0,1.3295107000740245,,005,0,2024-09-18_14h06.12.333,Surprise recog test,2023.1.3,59.87697677476022,
87,0,87,0,,,,,,,,,,,,,,,,,,,,,,,,,,,,,,,,,,407.62473050004337,408.6566955000162,405.93599020002875,405.93599020002875,405.93599020002875,405.93599020002875,new_fruit_21.png,88,2.0,1.6929404999827966,,005,0,2024-09-18_14h06.12.333,Surprise recog test,2023.1.3,59.87697677476022,
88,0,88,0,,,,,,,,,,,,,,,,,,,,,,,,,,,,,,,,,,412.06429879995994,413.078547699959,408.6566955000162,408.6566955000162,408.6566955000162,408.6566955000162,new_fruit_32.png,89,4.0,3.4117944999597967,,005,0,2024-09-18_14h06.12.333,Surprise recog test,2023.1.3,59.87697677476022,
89,0,89,0,,,,,,,,,,,,,,,,,,,,,,,,,,,,,,,,,,415.0563418000238,416.0830194000155,413.078547699959,413.078547699959,413.078547699959,413.078547699959,old_stationery_46.png,90,1.0,1.9701075999764726,,005,0,2024-09-18_14h06.12.333,Surprise recog test,2023.1.3,59.87697677476022,
90,0,90,0,,,,,,,,,,,,,,,,,,,,,,,,,,,,,,,,,,418.37487180007156,419.3960420000367,416.0830194000155,416.0830194000155,416.0830194000155,416.0830194000155,new_fruit_22.png,91,2.0,2.2956662999931723,,005,0,2024-09-18_14h06.12.333,Surprise recog test,2023.1.3,59.87697677476022,
91,0,91,0,,,,,,,,,,,,,,,,,,,,,,,,,,,,,,,,,,421.28931849997025,422.3034537000349,419.3960420000367,419.3960420000367,419.3960420000367,419.3960420000367,new_stationery_35.png,92,1.0,1.8929530000314116,,005,0,2024-09-18_14h06.12.333,Surprise recog test,2023.1.3,59.87697677476022,
92,0,92,0,,,,,,,,,,,,,,,,,,,,,,,,,,,,,,,,,,424.8788940999657,425.9001086000353,422.3034537000349,422.3034537000349,422.3034537000349,422.3034537000349,old_sceneOut_20.png,93,2.0,2.5694155000383034,,005,0,2024-09-18_14h06.12.333,Surprise recog test,2023.1.3,59.87697677476022,
93,0,93,0,,,,,,,,,,,,,,,,,,,,,,,,,,,,,,,,,,428.80298539996147,,425.9001086000353,425.9001086000353,425.9001086000353,425.9001086000353,new_stationery_3.png,94,4.0,2.904709199909121,,005,0,2024-09-18_14h06.12.333,Surprise recog test,2023.1.3,59.87697677476022,
94,0,94,0,,,,,,,,,,,,,,,,,,,,,,,,,,,,,,,,,,432.34773999999743,433.3626691000536,429.8315099000465,429.8315099000465,429.8315099000465,429.8315099000465,new_sceneIn_24.png,95,3.0,2.5171856000088155,,005,0,2024-09-18_14h06.12.333,Surprise recog test,2023.1.3,59.87697677476022,
95,0,95,0,,,,,,,,,,,,,,,,,,,,,,,,,,,,,,,,,,435.2499240000034,436.2777080000378,433.3626691000536,433.3626691000536,433.3626691000536,433.3626691000536,old_sceneOut_42.png,96,3.0,1.883091300027445,,005,0,2024-09-18_14h06.12.333,Surprise recog test,2023.1.3,59.87697677476022,
96,0,96,0,,,,,,,,,,,,,,,,,,,,,,,,,,,,,,,,,,438.4358474999899,439.4606074000476,436.2777080000378,436.2777080000378,436.2777080000378,436.2777080000378,new_stationery_10.png,97,1.0,2.1602810999611393,,005,0,2024-09-18_14h06.12.333,Surprise recog test,2023.1.3,59.87697677476022,
97,0,97,0,,,,,,,,,,,,,,,,,,,,,,,,,,,,,,,,,,441.845435300027,442.8590054999804,439.4606074000476,439.4606074000476,439.4606074000476,439.4606074000476,new_sceneIn_7.png,98,5.0,2.3845369999762625,,005,0,2024-09-18_14h06.12.333,Surprise recog test,2023.1.3,59.87697677476022,
98,0,98,0,,,,,,,,,,,,,,,,,,,,,,,,,,,,,,,,,,444.8737300999928,445.8894408000633,442.8590054999804,442.8590054999804,442.8590054999804,442.8590054999804,old_stationery_45.png,99,3.0,2.014087700052187,,005,0,2024-09-18_14h06.12.333,Surprise recog test,2023.1.3,59.87697677476022,
99,0,99,0,,,,,,,,,,,,,,,,,,,,,,,,,,,,,,,,,,447.29558410006575,448.30920160003006,445.8894408000633,445.8894408000633,445.8894408000633,445.8894408000633,old_fruit_35.png,100,2.0,1.401048899977468,,005,0,2024-09-18_14h06.12.333,Surprise recog test,2023.1.3,59.87697677476022,
100,0,100,0,,,,,,,,,,,,,,,,,,,,,,,,,,,,,,,,,,450.5831435000291,451.59439199999906,448.30920160003006,448.30920160003006,448.30920160003006,448.30920160003006,new_sceneIn_28.png,101,1.0,2.2698925000149757,,005,0,2024-09-18_14h06.12.333,Surprise recog test,2023.1.3,59.87697677476022,
101,0,101,0,,,,,,,,,,,,,,,,,,,,,,,,,,,,,,,,,,453.72154030005913,454.7439782000147,451.59439199999906,451.59439199999906,451.59439199999906,451.59439199999906,new_stationery_19.png,102,1.0,2.123114399961196,,005,0,2024-09-18_14h06.12.333,Surprise recog test,2023.1.3,59.87697677476022,
102,0,102,0,,,,,,,,,,,,,,,,,,,,,,,,,,,,,,,,,,456.4866582000395,457.5077742000576,454.7439782000147,454.7439782000147,454.7439782000147,454.7439782000147,new_sceneIn_34.png,103,3.0,1.742167399963364,,005,0,2024-09-18_14h06.12.333,Surprise recog test,2023.1.3,59.87697677476022,
103,0,103,0,,,,,,,,,,,,,,,,,,,,,,,,,,,,,,,,,,459.7854769000551,460.8150867000222,457.5077742000576,457.5077742000576,457.5077742000576,457.5077742000576,old_sceneIn_46.png,104,4.0,2.277975599979982,,005,0,2024-09-18_14h06.12.333,Surprise recog test,2023.1.3,59.87697677476022,
104,0,104,0,,,,,,,,,,,,,,,,,,,,,,,,,,,,,,,,,,463.5553059000522,464.5705212999601,460.8150867000222,460.8150867000222,460.8150867000222,460.8150867000222,old_sceneOut_26.png,105,4.0,2.7434648000635207,,005,0,2024-09-18_14h06.12.333,Surprise recog test,2023.1.3,59.87697677476022,
105,0,105,0,,,,,,,,,,,,,,,,,,,,,,,,,,,,,,,,,,467.38732249999885,,464.5705212999601,464.5705212999601,464.5705212999601,464.5705212999601,new_stationery_11.png,106,3.0,2.8132093999302015,,005,0,2024-09-18_14h06.12.333,Surprise recog test,2023.1.3,59.87697677476022,
106,0,106,0,,,,,,,,,,,,,,,,,,,,,,,,,,,,,,,,,,470.3280181000009,471.3415158999851,468.4215120000299,468.4215120000299,468.4215120000299,468.4215120000299,old_stationery_43.png,107,1.0,1.9077545999316499,,005,0,2024-09-18_14h06.12.333,Surprise recog test,2023.1.3,59.87697677476022,
107,0,107,0,,,,,,,,,,,,,,,,,,,,,,,,,,,,,,,,,,475.2971102000447,476.32050769997295,471.3415158999851,471.3415158999851,471.3415158999851,471.3415158999851,new_sceneIn_36.png,108,4.0,3.9517288999632,,005,0,2024-09-18_14h06.12.333,Surprise recog test,2023.1.3,59.87697677476022,
108,0,108,0,,,,,,,,,,,,,,,,,,,,,,,,,,,,,,,,,,478.0411682999693,479.06204870005604,476.32050769997295,476.32050769997295,476.32050769997295,476.32050769997295,old_sceneOut_32.png,109,3.0,1.7223075000802055,,005,0,2024-09-18_14h06.12.333,Surprise recog test,2023.1.3,59.87697677476022,
109,0,109,0,,,,,,,,,,,,,,,,,,,,,,,,,,,,,,,,,,481.3276978000067,482.34723389998544,479.06204870005604,479.06204870005604,479.06204870005604,479.06204870005604,old_sceneIn_23.png,110,5.0,2.265057999989949,,005,0,2024-09-18_14h06.12.333,Surprise recog test,2023.1.3,59.87697677476022,
110,0,110,0,,,,,,,,,,,,,,,,,,,,,,,,,,,,,,,,,,484.1465429000091,485.152563599986,482.34723389998544,482.34723389998544,482.34723389998544,482.34723389998544,old_stationery_50.png,111,1.0,1.8007652000524104,,005,0,2024-09-18_14h06.12.333,Surprise recog test,2023.1.3,59.87697677476022,
111,0,111,0,,,,,,,,,,,,,,,,,,,,,,,,,,,,,,,,,,486.8987524000695,487.9209808000596,485.152563599986,485.152563599986,485.152563599986,485.152563599986,new_fruit_23.png,112,2.0,1.7413255999563262,,005,0,2024-09-18_14h06.12.333,Surprise recog test,2023.1.3,59.87697677476022,
112,0,112,0,,,,,,,,,,,,,,,,,,,,,,,,,,,,,,,,,,490.0185540000675,491.0337251999881,487.9209808000596,487.9209808000596,487.9209808000596,487.9209808000596,new_sceneOut_42.png,113,4.0,2.09586160001345,,005,0,2024-09-18_14h06.12.333,Surprise recog test,2023.1.3,59.87697677476022,
113,0,113,0,,,,,,,,,,,,,,,,,,,,,,,,,,,,,,,,,,493.09757520002313,494.12701980001293,491.0337251999881,491.0337251999881,491.0337251999881,491.0337251999881,old_sceneIn_21.png,114,4.0,2.065040300018154,,005,0,2024-09-18_14h06.12.333,Surprise recog test,2023.1.3,59.87697677476022,
114,0,114,0,,,,,,,,,,,,,,,,,,,,,,,,,,,,,,,,,,496.00823899998795,497.02953239995986,494.12701980001293,494.12701980001293,494.12701980001293,494.12701980001293,new_sceneOut_33.png,115,2.0,1.8843249999918044,,005,0,2024-09-18_14h06.12.333,Surprise recog test,2023.1.3,59.87697677476022,
115,0,115,0,,,,,,,,,,,,,,,,,,,,,,,,,,,,,,,,,,499.07370710000396,500.09661270002834,497.02953239995986,497.02953239995986,497.02953239995986,497.02953239995986,new_sceneOut_19.png,116,3.0,2.0471652999985963,,005,0,2024-09-18_14h06.12.333,Surprise recog test,2023.1.3,59.87697677476022,
116,0,116,0,,,,,,,,,,,,,,,,,,,,,,,,,,,,,,,,,,501.9590737000108,502.9776515000267,500.09661270002834,500.09661270002834,500.09661270002834,500.09661270002834,old_sceneOut_39.png,117,2.0,1.862403400009498,,005,0,2024-09-18_14h06.12.333,Surprise recog test,2023.1.3,59.87697677476022,
117,0,117,0,,,,,,,,,,,,,,,,,,,,,,,,,,,,,,,,,,504.5919024000177,505.6226195000345,502.9776515000267,502.9776515000267,502.9776515000267,502.9776515000267,new_sceneIn_10.png,118,2.0,1.613141900044866,,005,0,2024-09-18_14h06.12.333,Surprise recog test,2023.1.3,59.87697677476022,
118,0,118,0,,,,,,,,,,,,,,,,,,,,,,,,,,,,,,,,,,507.2661508000456,508.275826600031,505.6226195000345,505.6226195000345,505.6226195000345,505.6226195000345,old_stationery_23.png,119,1.0,1.6425080000190064,,005,0,2024-09-18_14h06.12.333,Surprise recog test,2023.1.3,59.87697677476022,
119,0,119,0,,,,,,,,,,,,,,,,,,,,,,,,,,,,,,,,,,510.18168240005616,511.19969440007117,508.275826600031,508.275826600031,508.275826600031,508.275826600031,new_fruit_46.png,120,2.0,1.8995097000151873,,005,0,2024-09-18_14h06.12.333,Surprise recog test,2023.1.3,59.87697677476022,
120,0,120,0,,,,,,,,,,,,,,,,,,,,,,,,,,,,,,,,,,513.3712145000463,514.3938469999703,511.19969440007117,511.19969440007117,511.19969440007117,511.19969440007117,old_sceneOut_36.png,121,3.0,2.1703897999832407,,005,0,2024-09-18_14h06.12.333,Surprise recog test,2023.1.3,59.87697677476022,
121,0,121,0,,,,,,,,,,,,,,,,,,,,,,,,,,,,,,,,,,516.2648439999903,517.2811845999677,514.3938469999703,514.3938469999703,514.3938469999703,514.3938469999703,new_fruit_40.png,122,2.0,1.8736038999632,,005,0,2024-09-18_14h06.12.333,Surprise recog test,2023.1.3,59.87697677476022,
122,0,122,0,,,,,,,,,,,,,,,,,,,,,,,,,,,,,,,,,,519.5763239000225,520.5844242000021,517.2811845999677,517.2811845999677,517.2811845999677,517.2811845999677,new_stationery_32.png,123,4.0,2.29097199998796,,005,0,2024-09-18_14h06.12.333,Surprise recog test,2023.1.3,59.87697677476022,
123,0,123,0,,,,,,,,,,,,,,,,,,,,,,,,,,,,,,,,,,522.781286100042,,520.5844242000021,520.5844242000021,520.5844242000021,520.5844242000021,old_fruit_49.png,124,3.0,2.189752100035548,,005,0,2024-09-18_14h06.12.333,Surprise recog test,2023.1.3,59.87697677476022,
124,0,124,0,,,,,,,,,,,,,,,,,,,,,,,,,,,,,,,,,,526.0150559999747,527.0214125000639,523.8170201999601,523.8170201999601,523.8170201999601,523.8170201999601,new_sceneIn_48.png,125,2.0,2.2005130000179633,,005,0,2024-09-18_14h06.12.333,Surprise recog test,2023.1.3,59.87697677476022,
125,0,125,0,,,,,,,,,,,,,,,,,,,,,,,,,,,,,,,,,,528.3669399999781,529.3838021999691,527.0214125000639,527.0214125000639,527.0214125000639,527.0214125000639,old_sceneIn_18.png,126,2.0,1.3421654000412673,,005,0,2024-09-18_14h06.12.333,Surprise recog test,2023.1.3,59.87697677476022,
126,0,126,0,,,,,,,,,,,,,,,,,,,,,,,,,,,,,,,,,,531.3913764000172,532.4223814000143,529.3838021999691,529.3838021999691,529.3838021999691,529.3838021999691,new_stationery_21.png,127,5.0,2.0090184999862686,,005,0,2024-09-18_14h06.12.333,Surprise recog test,2023.1.3,59.87697677476022,
127,0,127,0,,,,,,,,,,,,,,,,,,,,,,,,,,,,,,,,,,535.0572993999813,536.0701218000613,532.4223814000143,532.4223814000143,532.4223814000143,532.4223814000143,new_sceneIn_3.png,128,3.0,2.637153399991803,,005,0,2024-09-18_14h06.12.333,Surprise recog test,2023.1.3,59.87697677476022,
128,0,128,0,,,,,,,,,,,,,,,,,,,,,,,,,,,,,,,,,,537.8558878999902,538.8792200000025,536.0701218000613,536.0701218000613,536.0701218000613,536.0701218000613,new_sceneOut_44.png,129,2.0,1.7850545999826863,,005,0,2024-09-18_14h06.12.333,Surprise recog test,2023.1.3,59.87697677476022,
129,0,129,0,,,,,,,,,,,,,,,,,,,,,,,,,,,,,,,,,,541.239850300015,542.2729653000133,538.8792200000025,538.8792200000025,538.8792200000025,538.8792200000025,new_stationery_47.png,130,1.0,2.362770500010811,,005,0,2024-09-18_14h06.12.333,Surprise recog test,2023.1.3,59.87697677476022,
130,0,130,0,,,,,,,,,,,,,,,,,,,,,,,,,,,,,,,,,,543.6072180999909,544.621380400029,542.2729653000133,542.2729653000133,542.2729653000133,542.2729653000133,new_stationery_45.png,131,1.0,1.3383388000074774,,005,0,2024-09-18_14h06.12.333,Surprise recog test,2023.1.3,59.87697677476022,
131,0,131,0,,,,,,,,,,,,,,,,,,,,,,,,,,,,,,,,,,546.5579361000564,547.5754078000318,544.621380400029,544.621380400029,544.621380400029,544.621380400029,old_stationery_4.png,132,2.0,1.9319870000472292,,005,0,2024-09-18_14h06.12.333,Surprise recog test,2023.1.3,59.87697677476022,
132,0,132,0,,,,,,,,,,,,,,,,,,,,,,,,,,,,,,,,,,549.4009354000445,550.406755700009,547.5754078000318,547.5754078000318,547.5754078000318,547.5754078000318,old_stationery_13.png,133,1.0,1.8180451000807807,,005,0,2024-09-18_14h06.12.333,Surprise recog test,2023.1.3,59.87697677476022,
133,0,133,0,,,,,,,,,,,,,,,,,,,,,,,,,,,,,,,,,,552.0364772999892,553.0419129000511,550.406755700009,550.406755700009,550.406755700009,550.406755700009,new_stationery_1.png,134,1.0,1.6197670999681577,,005,0,2024-09-18_14h06.12.333,Surprise recog test,2023.1.3,59.87697677476022,
134,0,134,0,,,,,,,,,,,,,,,,,,,,,,,,,,,,,,,,,,556.1066337999655,557.11122229998,553.0419129000511,553.0419129000511,553.0419129000511,553.0419129000511,new_fruit_24.png,135,4.0,3.0543381000170484,,005,0,2024-09-18_14h06.12.333,Surprise recog test,2023.1.3,59.87697677476022,
135,0,135,0,,,,,,,,,,,,,,,,,,,,,,,,,,,,,,,,,,559.0089705999708,560.0139901000075,557.11122229998,557.11122229998,557.11122229998,557.11122229998,old_fruit_46.png,136,3.0,1.8874624000163749,,005,0,2024-09-18_14h06.12.333,Surprise recog test,2023.1.3,59.87697677476022,
136,0,136,0,,,,,,,,,,,,,,,,,,,,,,,,,,,,,,,,,,561.7611748999916,562.7657209000317,560.0139901000075,560.0139901000075,560.0139901000075,560.0139901000075,new_sceneIn_45.png,137,5.0,1.7379335999721661,,005,0,2024-09-18_14h06.12.333,Surprise recog test,2023.1.3,59.87697677476022,
137,0,137,0,,,,,,,,,,,,,,,,,,,,,,,,,,,,,,,,,,565.3141894000582,566.3189514999976,562.7657209000317,562.7657209000317,562.7657209000317,562.7657209000317,new_fruit_39.png,138,4.0,2.538094599964097,,005,0,2024-09-18_14h06.12.333,Surprise recog test,2023.1.3,59.87697677476022,
138,0,138,0,,,,,,,,,,,,,,,,,,,,,,,,,,,,,,,,,,568.3668224000139,569.3719254999887,566.3189514999976,566.3189514999976,566.3189514999976,566.3189514999976,new_stationery_30.png,139,2.0,2.037456799997017,,005,0,2024-09-18_14h06.12.333,Surprise recog test,2023.1.3,59.87697677476022,
139,0,139,0,,,,,,,,,,,,,,,,,,,,,,,,,,,,,,,,,,572.4368057000684,573.4422541999957,569.3719254999887,569.3719254999887,569.3719254999887,569.3719254999887,new_sceneOut_35.png,140,3.0,3.055166200036183,,005,0,2024-09-18_14h06.12.333,Surprise recog test,2023.1.3,59.87697677476022,
140,0,140,0,,,,,,,,,,,,,,,,,,,,,,,,,,,,,,,,,,575.0888989999657,576.0936019000364,573.4422541999957,573.4422541999957,573.4422541999957,573.4422541999957,old_stationery_41.png,141,1.0,1.6378285000100732,,005,0,2024-09-18_14h06.12.333,Surprise recog test,2023.1.3,59.87697677476022,
141,0,141,0,,,,,,,,,,,,,,,,,,,,,,,,,,,,,,,,,,577.6584753000643,578.6641761000501,576.0936019000364,576.0936019000364,576.0936019000364,576.0936019000364,old_fruit_36.png,142,1.0,1.5575364000396803,,005,0,2024-09-18_14h06.12.333,Surprise recog test,2023.1.3,59.87697677476022,
142,0,142,0,,,,,,,,,,,,,,,,,,,,,,,,,,,,,,,,,,580.576938400045,581.5818661999656,578.6641761000501,578.6641761000501,578.6641761000501,578.6641761000501,old_sceneIn_12.png,143,4.0,1.9046535000670701,,005,0,2024-09-18_14h06.12.333,Surprise recog test,2023.1.3,59.87697677476022,
143,0,143,0,,,,,,,,,,,,,,,,,,,,,,,,,,,,,,,,,,583.9796909000725,584.9859302999685,581.5818661999656,581.5818661999656,581.5818661999656,581.5818661999656,new_stationery_13.png,144,4.0,2.387776399962604,,005,0,2024-09-18_14h06.12.333,Surprise recog test,2023.1.3,59.87697677476022,
144,0,144,0,,,,,,,,,,,,,,,,,,,,,,,,,,,,,,,,,,587.0822621000698,588.0882863000734,584.9859302999685,584.9859302999685,584.9859302999685,584.9859302999685,new_fruit_25.png,145,2.0,2.0895028000231832,,005,0,2024-09-18_14h06.12.333,Surprise recog test,2023.1.3,59.87697677476022,
145,0,145,0,,,,,,,,,,,,,,,,,,,,,,,,,,,,,,,,,,590.5017209000653,591.5074998000637,588.0882863000734,588.0882863000734,588.0882863000734,588.0882863000734,new_sceneOut_36.png,146,5.0,2.40838060004171,,005,0,2024-09-18_14h06.12.333,Surprise recog test,2023.1.3,59.87697677476022,
146,0,146,0,,,,,,,,,,,,,,,,,,,,,,,,,,,,,,,,,,593.9075892000692,,591.5074998000637,591.5074998000637,591.5074998000637,591.5074998000637,new_sceneOut_15.png,147,3.0,2.3973642999771982,,005,0,2024-09-18_14h06.12.333,Surprise recog test,2023.1.3,59.87697677476022,
147,0,147,0,,,,,,,,,,,,,,,,,,,,,,,,,,,,,,,,,,597.6223664999707,598.6321199999657,594.9283646000549,594.9283646000549,594.9283646000549,594.9283646000549,old_sceneIn_43.png,148,5.0,2.686541600036435,,005,0,2024-09-18_14h06.12.333,Surprise recog test,2023.1.3,59.87697677476022,
148,0,148,0,,,,,,,,,,,,,,,,,,,,,,,,,,,,,,,,,,600.7723368000006,601.799603600055,598.6321199999657,598.6321199999657,598.6321199999657,598.6321199999657,new_fruit_16.png,149,3.0,2.1355910000856966,,005,0,2024-09-18_14h06.12.333,Surprise recog test,2023.1.3,59.87697677476022,
149,0,149,0,,,,,,,,,,,,,,,,,,,,,,,,,,,,,,,,,,603.3713516000425,604.398670900031,601.799603600055,601.799603600055,601.799603600055,601.799603600055,new_fruit_27.png,150,2.0,1.5751469999086112,,005,0,2024-09-18_14h06.12.333,Surprise recog test,2023.1.3,59.87697677476022,
150,0,150,0,,,,,,,,,,,,,,,,,,,,,,,,,,,,,,,,,,606.3057824000716,607.3359464000678,604.398670900031,604.398670900031,604.398670900031,604.398670900031,new_sceneOut_18.png,151,5.0,1.905676900059916,,005,0,2024-09-18_14h06.12.333,Surprise recog test,2023.1.3,59.87697677476022,
151,0,151,0,,,,,,,,,,,,,,,,,,,,,,,,,,,,,,,,,,609.3060910999775,610.3375541999703,607.3359464000678,607.3359464000678,607.3359464000678,607.3359464000678,new_fruit_35.png,152,4.0,1.973524700035341,,005,0,2024-09-18_14h06.12.333,Surprise recog test,2023.1.3,59.87697677476022,
152,0,152,0,,,,,,,,,,,,,,,,,,,,,,,,,,,,,,,,,,612.1262330999598,613.1498346000444,610.3375541999703,610.3375541999703,610.3375541999703,610.3375541999703,old_fruit_22.png,153,4.0,1.788618199992925,,005,0,2024-09-18_14h06.12.333,Surprise recog test,2023.1.3,59.87697677476022,
153,0,153,0,,,,,,,,,,,,,,,,,,,,,,,,,,,,,,,,,,614.8646989000263,615.8795419000089,613.1498346000444,613.1498346000444,613.1498346000444,613.1498346000444,old_fruit_26.png,154,2.0,1.7131867000134662,,005,0,2024-09-18_14h06.12.333,Surprise recog test,2023.1.3,59.87697677476022,
154,0,154,0,,,,,,,,,,,,,,,,,,,,,,,,,,,,,,,,,,617.8971628000727,618.9160240000347,615.8795419000089,615.8795419000089,615.8795419000089,615.8795419000089,old_sceneOut_10.png,155,5.0,2.013778799911961,,005,0,2024-09-18_14h06.12.333,Surprise recog test,2023.1.3,59.87697677476022,
155,0,155,0,,,,,,,,,,,,,,,,,,,,,,,,,,,,,,,,,,621.6548079999629,622.6842835000716,618.9160240000347,618.9160240000347,618.9160240000347,618.9160240000347,old_sceneIn_3.png,156,4.0,2.7340640999609604,,005,0,2024-09-18_14h06.12.333,Surprise recog test,2023.1.3,59.87697677476022,
156,0,156,0,,,,,,,,,,,,,,,,,,,,,,,,,,,,,,,,,,624.592787600006,625.6053008000599,622.6842835000716,622.6842835000716,622.6842835000716,622.6842835000716,new_sceneOut_43.png,157,3.0,1.9113108000019565,,005,0,2024-09-18_14h06.12.333,Surprise recog test,2023.1.3,59.87697677476022,
157,0,157,0,,,,,,,,,,,,,,,,,,,,,,,,,,,,,,,,,,627.9990123000462,629.0208711000159,625.6053008000599,625.6053008000599,625.6053008000599,625.6053008000599,old_sceneIn_33.png,158,3.0,2.3860073999967426,,005,0,2024-09-18_14h06.12.333,Surprise recog test,2023.1.3,59.87697677476022,
158,0,158,0,,,,,,,,,,,,,,,,,,,,,,,,,,,,,,,,,,631.203322699992,632.2294429000467,629.0208711000159,629.0208711000159,629.0208711000159,629.0208711000159,old_sceneIn_20.png,159,4.0,2.1853365000570193,,005,0,2024-09-18_14h06.12.333,Surprise recog test,2023.1.3,59.87697677476022,
159,0,159,0,,,,,,,,,,,,,,,,,,,,,,,,,,,,,,,,,,635.0493600000627,636.0607937000459,632.2294429000467,632.2294429000467,632.2294429000467,632.2294429000467,new_stationery_17.png,160,1.0,2.824102699989453,,005,0,2024-09-18_14h06.12.333,Surprise recog test,2023.1.3,59.87697677476022,
160,0,160,0,,,,,,,,,,,,,,,,,,,,,,,,,,,,,,,,,,638.1822999999858,639.2112928000279,636.0607937000459,636.0607937000459,636.0607937000459,636.0607937000459,old_fruit_39.png,161,2.0,2.1184238999849185,,005,0,2024-09-18_14h06.12.333,Surprise recog test,2023.1.3,59.87697677476022,
161,0,161,0,,,,,,,,,,,,,,,,,,,,,,,,,,,,,,,,,,640.8950800000457,641.9129315000027,639.2112928000279,639.2112928000279,639.2112928000279,639.2112928000279,old_stationery_33.png,162,1.0,1.6853884999873117,,005,0,2024-09-18_14h06.12.333,Surprise recog test,2023.1.3,59.87697677476022,
162,0,162,0,,,,,,,,,,,,,,,,,,,,,,,,,,,,,,,,,,643.9404649999924,644.9552520000143,641.9129315000027,641.9129315000027,641.9129315000027,641.9129315000027,old_sceneIn_31.png,163,3.0,2.0285477000288665,,005,0,2024-09-18_14h06.12.333,Surprise recog test,2023.1.3,59.87697677476022,
163,0,163,0,,,,,,,,,,,,,,,,,,,,,,,,,,,,,,,,,,648.7832529000007,649.7922544999747,644.9552520000143,644.9552520000143,644.9552520000143,644.9552520000143,old_sceneIn_15.png,164,3.0,3.8254214000189677,,005,0,2024-09-18_14h06.12.333,Surprise recog test,2023.1.3,59.87697677476022,
164,0,164,0,,,,,,,,,,,,,,,,,,,,,,,,,,,,,,,,,,651.2380581999896,,649.7922544999747,649.7922544999747,649.7922544999747,649.7922544999747,new_stationery_20.png,165,2.0,1.4421433999668807,,005,0,2024-09-18_14h06.12.333,Surprise recog test,2023.1.3,59.87697677476022,
165,0,165,0,,,,,,,,,,,,,,,,,,,,,,,,,,,,,,,,,,655.6168793999823,656.6436831000028,652.2714394000359,652.2714394000359,652.2714394000359,652.2714394000359,old_fruit_43.png,166,3.0,3.345651999930851,,005,0,2024-09-18_14h06.12.333,Surprise recog test,2023.1.3,59.87697677476022,
166,0,166,0,,,,,,,,,,,,,,,,,,,,,,,,,,,,,,,,,,659.7568339999998,660.7800624000374,656.6436831000028,656.6436831000028,656.6436831000028,656.6436831000028,old_sceneOut_24.png,167,4.0,3.1158062999602407,,005,0,2024-09-18_14h06.12.333,Surprise recog test,2023.1.3,59.87697677476022,
167,0,167,0,,,,,,,,,,,,,,,,,,,,,,,,,,,,,,,,,,663.2954958999762,664.3172586000292,660.7800624000374,660.7800624000374,660.7800624000374,660.7800624000374,new_stationery_46.png,168,3.0,2.5136811999836937,,005,0,2024-09-18_14h06.12.333,Surprise recog test,2023.1.3,59.87697677476022,
168,0,168,0,,,,,,,,,,,,,,,,,,,,,,,,,,,,,,,,,,667.315528600011,668.3300775999669,664.3172586000292,664.3172586000292,664.3172586000292,664.3172586000292,new_sceneIn_30.png,169,5.0,2.9973913999274373,,005,0,2024-09-18_14h06.12.333,Surprise recog test,2023.1.3,59.87697677476022,
169,0,169,0,,,,,,,,,,,,,,,,,,,,,,,,,,,,,,,,,,670.5673654000275,671.5900854000356,668.3300775999669,668.3300775999669,668.3300775999669,668.3300775999669,old_sceneOut_11.png,170,2.0,2.237546500051394,,005,0,2024-09-18_14h06.12.333,Surprise recog test,2023.1.3,59.87697677476022,
170,0,170,0,,,,,,,,,,,,,,,,,,,,,,,,,,,,,,,,,,673.1721383000258,674.1792114999844,671.5900854000356,671.5900854000356,671.5900854000356,671.5900854000356,old_stationery_42.png,171,1.0,1.5838175000390038,,005,0,2024-09-18_14h06.12.333,Surprise recog test,2023.1.3,59.87697677476022,
171,0,171,0,,,,,,,,,,,,,,,,,,,,,,,,,,,,,,,,,,676.3089121000376,,674.1792114999844,674.1792114999844,674.1792114999844,674.1792114999844,old_sceneOut_40.png,172,2.0,2.1250158000038937,,005,0,2024-09-18_14h06.12.333,Surprise recog test,2023.1.3,59.87697677476022,
172,0,172,0,,,,,,,,,,,,,,,,,,,,,,,,,,,,,,,,,,678.9504915999714,679.9668843999971,677.34314370004,677.34314370004,677.34314370004,677.34314370004,new_sceneOut_46.png,173,3.0,1.6074649000074714,,005,0,2024-09-18_14h06.12.333,Surprise recog test,2023.1.3,59.87697677476022,
173,0,173,0,,,,,,,,,,,,,,,,,,,,,,,,,,,,,,,,,,681.9213421000168,682.9443144999677,679.9668843999971,679.9668843999971,679.9668843999971,679.9668843999971,old_fruit_16.png,174,2.0,1.9482068999204785,,005,0,2024-09-18_14h06.12.333,Surprise recog test,2023.1.3,59.87697677476022,
174,0,174,0,,,,,,,,,,,,,,,,,,,,,,,,,,,,,,,,,,685.7310576000018,686.7537797000259,682.9443144999677,682.9443144999677,682.9443144999677,682.9443144999677,new_sceneIn_49.png,175,1.0,2.788088999921456,,005,0,2024-09-18_14h06.12.333,Surprise recog test,2023.1.3,59.87697677476022,
175,0,175,0,,,,,,,,,,,,,,,,,,,,,,,,,,,,,,,,,,688.3329019000521,689.3476182000013,686.7537797000259,686.7537797000259,686.7537797000259,686.7537797000259,old_stationery_36.png,176,2.0,1.5797542000655085,,005,0,2024-09-18_14h06.12.333,Surprise recog test,2023.1.3,59.87697677476022,
176,0,176,0,,,,,,,,,,,,,,,,,,,,,,,,,,,,,,,,,,691.2158942000242,692.2431553000351,689.3476182000013,689.3476182000013,689.3476182000013,689.3476182000013,old_stationery_38.png,177,3.0,1.8642625999636948,,005,0,2024-09-18_14h06.12.333,Surprise recog test,2023.1.3,59.87697677476022,
177,0,177,0,,,,,,,,,,,,,,,,,,,,,,,,,,,,,,,,,,694.1383334000129,695.1586627999786,692.2431553000351,692.2431553000351,692.2431553000351,692.2431553000351,old_stationery_29.png,178,3.0,1.9004875000100583,,005,0,2024-09-18_14h06.12.333,Surprise recog test,2023.1.3,59.87697677476022,
178,0,178,0,,,,,,,,,,,,,,,,,,,,,,,,,,,,,,,,,,697.7741857999936,698.7851049000164,695.1586627999786,695.1586627999786,695.1586627999786,695.1586627999786,old_sceneIn_41.png,179,5.0,2.6150155999930575,,005,0,2024-09-18_14h06.12.333,Surprise recog test,2023.1.3,59.87697677476022,
179,0,179,0,,,,,,,,,,,,,,,,,,,,,,,,,,,,,,,,,,699.9802667000331,,698.7851049000164,698.7851049000164,698.7851049000164,698.7851049000164,old_sceneOut_31.png,180,4.0,1.1948713000165299,,005,0,2024-09-18_14h06.12.333,Surprise recog test,2023.1.3,59.87697677476022,
180,0,180,0,,,,,,,,,,,,,,,,,,,,,,,,,,,,,,,,,,703.4501067000674,704.4785360000096,701.0020395000465,701.0020395000465,701.0020395000465,701.0020395000465,old_sceneIn_2.png,181,4.0,2.4458143999800086,,005,0,2024-09-18_14h06.12.333,Surprise recog test,2023.1.3,59.87697677476022,
181,0,181,0,,,,,,,,,,,,,,,,,,,,,,,,,,,,,,,,,,705.740410599974,706.7696794000221,704.4785360000096,704.4785360000096,704.4785360000096,704.4785360000096,new_sceneIn_25.png,182,4.0,1.2635881999740377,,005,0,2024-09-18_14h06.12.333,Surprise recog test,2023.1.3,59.87697677476022,
182,0,182,0,,,,,,,,,,,,,,,,,,,,,,,,,,,,,,,,,,710.9413838000037,711.9727283000248,706.7696794000221,706.7696794000221,706.7696794000221,706.7696794000221,new_stationery_15.png,183,1.0,4.174416800029576,,005,0,2024-09-18_14h06.12.333,Surprise recog test,2023.1.3,59.87697677476022,
183,0,183,0,,,,,,,,,,,,,,,,,,,,,,,,,,,,,,,,,,714.3857095000567,715.41466270003,711.9727283000248,711.9727283000248,711.9727283000248,711.9727283000248,new_sceneOut_26.png,184,3.0,2.4131748999934644,,005,0,2024-09-18_14h06.12.333,Surprise recog test,2023.1.3,59.87697677476022,
184,0,184,0,,,,,,,,,,,,,,,,,,,,,,,,,,,,,,,,,,716.7691254999954,717.7821455000667,715.41466270003,715.41466270003,715.41466270003,715.41466270003,old_fruit_7.png,185,2.0,1.3556101999711245,,005,0,2024-09-18_14h06.12.333,Surprise recog test,2023.1.3,59.87697677476022,
185,0,185,0,,,,,,,,,,,,,,,,,,,,,,,,,,,,,,,,,,719.82614010002,720.8342871000059,717.7821455000667,717.7821455000667,717.7821455000667,717.7821455000667,new_stationery_9.png,186,1.0,2.0377699999371544,,005,0,2024-09-18_14h06.12.333,Surprise recog test,2023.1.3,59.87697677476022,
186,0,186,0,,,,,,,,,,,,,,,,,,,,,,,,,,,,,,,,,,722.1587135000154,723.1820691999746,720.8342871000059,720.8342871000059,720.8342871000059,720.8342871000059,new_sceneOut_37.png,187,3.0,1.3202708000317216,,005,0,2024-09-18_14h06.12.333,Surprise recog test,2023.1.3,59.87697677476022,
187,0,187,0,,,,,,,,,,,,,,,,,,,,,,,,,,,,,,,,,,724.8543694000691,725.8817611000268,723.1820691999746,723.1820691999746,723.1820691999746,723.1820691999746,old_fruit_37.png,188,4.0,1.6728045999770984,,005,0,2024-09-18_14h06.12.333,Surprise recog test,2023.1.3,59.87697677476022,
188,0,188,0,,,,,,,,,,,,,,,,,,,,,,,,,,,,,,,,,,728.174211399979,729.1880113000516,725.8817611000268,725.8817611000268,725.8817611000268,725.8817611000268,old_sceneOut_47.png,189,5.0,2.292926699970849,,005,0,2024-09-18_14h06.12.333,Surprise recog test,2023.1.3,59.87697677476022,
189,0,189,0,,,,,,,,,,,,,,,,,,,,,,,,,,,,,,,,,,730.1481686000479,731.1780373000074,729.1880113000516,729.1880113000516,729.1880113000516,729.1880113000516,new_sceneIn_17.png,190,5.0,0.955570499994792,,005,0,2024-09-18_14h06.12.333,Surprise recog test,2023.1.3,59.87697677476022,
190,0,190,0,,,,,,,,,,,,,,,,,,,,,,,,,,,,,,,,,,733.4359932000516,734.4591551000485,731.1780373000074,731.1780373000074,731.1780373000074,731.1780373000074,new_sceneOut_48.png,191,4.0,2.2608222999842837,,005,0,2024-09-18_14h06.12.333,Surprise recog test,2023.1.3,59.87697677476022,
191,0,191,0,,,,,,,,,,,,,,,,,,,,,,,,,,,,,,,,,,736.9191517999861,737.9281223000726,734.4591551000485,734.4591551000485,734.4591551000485,734.4591551000485,old_sceneOut_21.png,192,5.0,2.4615558000514284,,005,0,2024-09-18_14h06.12.333,Surprise recog test,2023.1.3,59.87697677476022,
192,0,192,0,,,,,,,,,,,,,,,,,,,,,,,,,,,,,,,,,,739.9321304999758,740.9513038999867,737.9281223000726,737.9281223000726,737.9281223000726,737.9281223000726,new_fruit_2.png,193,2.0,1.998046200023964,,005,0,2024-09-18_14h06.12.333,Surprise recog test,2023.1.3,59.87697677476022,
193,0,193,0,,,,,,,,,,,,,,,,,,,,,,,,,,,,,,,,,,743.4319422000553,,740.9513038999867,740.9513038999867,740.9513038999867,740.9513038999867,new_stationery_37.png,194,2.0,2.474807500024326,,005,0,2024-09-18_14h06.12.333,Surprise recog test,2023.1.3,59.87697677476022,
194,0,194,0,,,,,,,,,,,,,,,,,,,,,,,,,,,,,,,,,,745.9835189000005,,744.4634513000492,744.4634513000492,744.4634513000492,744.4634513000492,old_sceneOut_33.png,195,3.0,1.5210997000103816,,005,0,2024-09-18_14h06.12.333,Surprise recog test,2023.1.3,59.87697677476022,
195,0,195,0,,,,,,,,,,,,,,,,,,,,,,,,,,,,,,,,,,749.1414449000731,750.1696219000733,747.0191892000148,747.0191892000148,747.0191892000148,747.0191892000148,old_stationery_1.png,196,5.0,2.1241328000323847,,005,0,2024-09-18_14h06.12.333,Surprise recog test,2023.1.3,59.87697677476022,
196,0,196,0,,,,,,,,,,,,,,,,,,,,,,,,,,,,,,,,,,752.72752700001,753.7583704000572,750.1696219000733,750.1696219000733,750.1696219000733,750.1696219000733,new_sceneOut_1.png,197,3.0,2.5591732999309897,,005,0,2024-09-18_14h06.12.333,Surprise recog test,2023.1.3,59.87697677476022,
197,0,197,0,,,,,,,,,,,,,,,,,,,,,,,,,,,,,,,,,,756.4516156000318,757.476510800072,753.7583704000572,753.7583704000572,753.7583704000572,753.7583704000572,old_fruit_1.png,198,3.0,2.695157999987714,,005,0,2024-09-18_14h06.12.333,Surprise recog test,2023.1.3,59.87697677476022,
198,0,198,0,,,,,,,,,,,,,,,,,,,,,,,,,,,,,,,,,,759.7609782000072,,757.476510800072,757.476510800072,757.476510800072,757.476510800072,new_stationery_44.png,199,4.0,2.286210999940522,,005,0,2024-09-18_14h06.12.333,Surprise recog test,2023.1.3,59.87697677476022,
199,0,199,0,,,,,,,,,,,,,,,,,,,,,,,,,,,,,,,,,,762.5683057999704,763.5933151000645,760.8061910000397,760.8061910000397,760.8061910000397,760.8061910000397,new_fruit_11.png,200,2.0,1.7677336999913678,,005,0,2024-09-18_14h06.12.333,Surprise recog test,2023.1.3,59.87697677476022,
200,0,200,0,,,,,,,,,,,,,,,,,,,,,,,,,,,,,,,,,,765.1368272000691,766.1613180000568,763.5933151000645,763.5933151000645,763.5933151000645,763.5933151000645,new_stationery_28.png,201,1.0,1.5459826999576762,,005,0,2024-09-18_14h06.12.333,Surprise recog test,2023.1.3,59.87697677476022,
201,0,201,0,,,,,,,,,,,,,,,,,,,,,,,,,,,,,,,,,,767.1816277999897,768.2018606000347,766.1613180000568,766.1613180000568,766.1613180000568,766.1613180000568,old_stationery_26.png,202,1.0,1.015260500018485,,005,0,2024-09-18_14h06.12.333,Surprise recog test,2023.1.3,59.87697677476022,
202,0,202,0,,,,,,,,,,,,,,,,,,,,,,,,,,,,,,,,,,771.7239648000104,772.7546645000111,768.2018606000347,768.2018606000347,768.2018606000347,768.2018606000347,old_sceneIn_1.png,203,1.0,3.5232929000630975,,005,0,2024-09-18_14h06.12.333,Surprise recog test,2023.1.3,59.87697677476022,
203,0,203,0,,,,,,,,,,,,,,,,,,,,,,,,,,,,,,,,,,774.4479881000007,775.4586421999848,772.7546645000111,772.7546645000111,772.7546645000111,772.7546645000111,new_sceneIn_41.png,204,5.0,1.694449199945666,,005,0,2024-09-18_14h06.12.333,Surprise recog test,2023.1.3,59.87697677476022,
204,0,204,0,,,,,,,,,,,,,,,,,,,,,,,,,,,,,,,,,,777.0943839000538,,775.4586421999848,775.4586421999848,775.4586421999848,775.4586421999848,new_fruit_31.png,205,2.0,1.6321109000127763,,005,0,2024-09-18_14h06.12.333,Surprise recog test,2023.1.3,59.87697677476022,
205,0,205,0,,,,,,,,,,,,,,,,,,,,,,,,,,,,,,,,,,780.0292551000603,,778.1141705999617,778.1141705999617,778.1141705999617,778.1141705999617,old_stationery_6.png,206,1.0,1.9105836000526324,,005,0,2024-09-18_14h06.12.333,Surprise recog test,2023.1.3,59.87697677476022,
206,0,206,0,,,,,,,,,,,,,,,,,,,,,,,,,,,,,,,,,,782.6721425000578,783.6932564000599,781.0500156000489,781.0500156000489,781.0500156000489,781.0500156000489,new_sceneOut_9.png,207,4.0,1.6172370000276715,,005,0,2024-09-18_14h06.12.333,Surprise recog test,2023.1.3,59.87697677476022,
207,0,207,0,,,,,,,,,,,,,,,,,,,,,,,,,,,,,,,,,,785.2202277999604,786.2527678000042,783.6932564000599,783.6932564000599,783.6932564000599,783.6932564000599,old_sceneIn_32.png,208,5.0,1.5229287999682128,,005,0,2024-09-18_14h06.12.333,Surprise recog test,2023.1.3,59.87697677476022,
208,0,208,0,,,,,,,,,,,,,,,,,,,,,,,,,,,,,,,,,,788.1203238000162,789.1478800000623,786.2527678000042,786.2527678000042,786.2527678000042,786.2527678000042,new_stationery_31.png,209,3.0,1.8698640000075102,,005,0,2024-09-18_14h06.12.333,Surprise recog test,2023.1.3,59.87697677476022,
209,0,209,0,,,,,,,,,,,,,,,,,,,,,,,,,,,,,,,,,,790.8122664999682,791.841608799994,789.1478800000623,789.1478800000623,789.1478800000623,789.1478800000623,new_fruit_34.png,210,5.0,1.6656531000044197,,005,0,2024-09-18_14h06.12.333,Surprise recog test,2023.1.3,59.87697677476022,
210,0,210,0,,,,,,,,,,,,,,,,,,,,,,,,,,,,,,,,,,794.0578665999928,,791.841608799994,791.841608799994,791.841608799994,791.841608799994,new_fruit_3.png,211,5.0,2.2184274999890476,,005,0,2024-09-18_14h06.12.333,Surprise recog test,2023.1.3,59.87697677476022,
211,0,211,0,,,,,,,,,,,,,,,,,,,,,,,,,,,,,,,,,,797.5409460000228,798.5626843000064,795.0976710000541,795.0976710000541,795.0976710000541,795.0976710000541,old_sceneOut_8.png,212,5.0,2.4446938999462873,,005,0,2024-09-18_14h06.12.333,Surprise recog test,2023.1.3,59.87697677476022,
212,0,212,0,,,,,,,,,,,,,,,,,,,,,,,,,,,,,,,,,,800.5695768999867,801.5919022000162,798.5626843000064,798.5626843000064,798.5626843000064,798.5626843000064,old_stationery_47.png,213,1.0,2.0092751000775024,,005,0,2024-09-18_14h06.12.333,Surprise recog test,2023.1.3,59.87697677476022,
213,0,213,0,,,,,,,,,,,,,,,,,,,,,,,,,,,,,,,,,,803.396257000044,804.4167202999815,801.5919022000162,801.5919022000162,801.5919022000162,801.5919022000162,old_sceneOut_44.png,214,3.0,1.8067424000473693,,005,0,2024-09-18_14h06.12.333,Surprise recog test,2023.1.3,59.87697677476022,
214,0,214,0,,,,,,,,,,,,,,,,,,,,,,,,,,,,,,,,,,806.7920815000543,807.8213076000102,804.4167202999815,804.4167202999815,804.4167202999815,804.4167202999815,new_sceneOut_13.png,215,3.0,2.375829100026749,,005,0,2024-09-18_14h06.12.333,Surprise recog test,2023.1.3,59.87697677476022,
215,0,215,0,,,,,,,,,,,,,,,,,,,,,,,,,,,,,,,,,,809.5049510999816,810.5359513000585,807.8213076000102,807.8213076000102,807.8213076000102,807.8213076000102,old_stationery_35.png,216,1.0,1.687558300094679,,005,0,2024-09-18_14h06.12.333,Surprise recog test,2023.1.3,59.87697677476022,
216,0,216,0,,,,,,,,,,,,,,,,,,,,,,,,,,,,,,,,,,812.8028506999835,813.8242973999586,810.5359513000585,810.5359513000585,810.5359513000585,810.5359513000585,new_stationery_39.png,217,4.0,2.2618154999800026,,005,0,2024-09-18_14h06.12.333,Surprise recog test,2023.1.3,59.87697677476022,
217,0,217,0,,,,,,,,,,,,,,,,,,,,,,,,,,,,,,,,,,816.4944884000579,817.5277450999711,813.8242973999586,813.8242973999586,813.8242973999586,813.8242973999586,old_sceneOut_43.png,218,5.0,2.6725966000230983,,005,0,2024-09-18_14h06.12.333,Surprise recog test,2023.1.3,59.87697677476022,
218,0,218,0,,,,,,,,,,,,,,,,,,,,,,,,,,,,,,,,,,819.0580377000151,820.0741120000603,817.5277450999711,817.5277450999711,817.5277450999711,817.5277450999711,new_fruit_9.png,219,2.0,1.5262464000843465,,005,0,2024-09-18_14h06.12.333,Surprise recog test,2023.1.3,59.87697677476022,
219,0,219,0,,,,,,,,,,,,,,,,,,,,,,,,,,,,,,,,,,822.3558419999899,823.3809384000488,820.0741120000603,820.0741120000603,820.0741120000603,820.0741120000603,new_sceneOut_17.png,220,5.0,2.282948900014162,,005,0,2024-09-18_14h06.12.333,Surprise recog test,2023.1.3,59.87697677476022,
220,0,220,0,,,,,,,,,,,,,,,,,,,,,,,,,,,,,,,,,,825.9408009999897,826.9682801000308,823.3809384000488,823.3809384000488,823.3809384000488,823.3809384000488,new_sceneIn_44.png,221,5.0,2.559863099944778,,005,0,2024-09-18_14h06.12.333,Surprise recog test,2023.1.3,59.87697677476022,
221,0,221,0,,,,,,,,,,,,,,,,,,,,,,,,,,,,,,,,,,828.0012430000352,,826.9682801000308,826.9682801000308,826.9682801000308,826.9682801000308,new_sceneIn_20.png,222,5.0,1.035738099948503,,005,0,2024-09-18_14h06.12.333,Surprise recog test,2023.1.3,59.87697677476022,
222,0,222,0,,,,,,,,,,,,,,,,,,,,,,,,,,,,,,,,,,831.18408060004,832.2027269999962,829.0349794999929,829.0349794999929,829.0349794999929,829.0349794999929,new_sceneOut_3.png,223,3.0,2.150410100002773,,005,0,2024-09-18_14h06.12.333,Surprise recog test,2023.1.3,59.87697677476022,
223,0,223,0,,,,,,,,,,,,,,,,,,,,,,,,,,,,,,,,,,834.8470832000021,835.8776051000459,832.2027269999962,832.2027269999962,832.2027269999962,832.2027269999962,old_stationery_44.png,224,3.0,2.6482343000825495,,005,0,2024-09-18_14h06.12.333,Surprise recog test,2023.1.3,59.87697677476022,
224,0,224,0,,,,,,,,,,,,,,,,,,,,,,,,,,,,,,,,,,838.5685714000138,839.5806401000591,835.8776051000459,835.8776051000459,835.8776051000459,835.8776051000459,new_fruit_29.png,225,2.0,2.692829299950972,,005,0,2024-09-18_14h06.12.333,Surprise recog test,2023.1.3,59.87697677476022,
225,0,225,0,,,,,,,,,,,,,,,,,,,,,,,,,,,,,,,,,,841.3954057999654,,839.5806401000591,839.5806401000591,839.5806401000591,839.5806401000591,old_fruit_45.png,226,4.0,1.8121115999529138,,005,0,2024-09-18_14h06.12.333,Surprise recog test,2023.1.3,59.87697677476022,
226,0,226,0,,,,,,,,,,,,,,,,,,,,,,,,,,,,,,,,,,843.9853934000712,845.010100100073,842.4180889000418,842.4180889000418,842.4180889000418,842.4180889000418,old_stationery_49.png,227,1.0,1.5633598000276834,,005,0,2024-09-18_14h06.12.333,Surprise recog test,2023.1.3,59.87697677476022,
227,0,227,0,,,,,,,,,,,,,,,,,,,,,,,,,,,,,,,,,,846.722611800069,847.7553985000122,845.010100100073,845.010100100073,845.010100100073,845.010100100073,old_sceneIn_14.png,228,1.0,1.7133553999010473,,005,0,2024-09-18_14h06.12.333,Surprise recog test,2023.1.3,59.87697677476022,
228,0,228,0,,,,,,,,,,,,,,,,,,,,,,,,,,,,,,,,,,850.5134885000298,851.5250011000317,847.7553985000122,847.7553985000122,847.7553985000122,847.7553985000122,new_sceneIn_37.png,229,3.0,2.756567499949597,,005,0,2024-09-18_14h06.12.333,Surprise recog test,2023.1.3,59.87697677476022,
229,0,229,0,,,,,,,,,,,,,,,,,,,,,,,,,,,,,,,,,,853.4491760999663,854.4756800000323,851.5250011000317,851.5250011000317,851.5250011000317,851.5250011000317,old_sceneIn_16.png,230,5.0,1.918002099962905,,005,0,2024-09-18_14h06.12.333,Surprise recog test,2023.1.3,59.87697677476022,
230,0,230,0,,,,,,,,,,,,,,,,,,,,,,,,,,,,,,,,,,856.1262760000536,,854.4756800000323,854.4756800000323,854.4756800000323,854.4756800000323,old_stationery_24.png,231,1.0,1.654741600039415,,005,0,2024-09-18_14h06.12.333,Surprise recog test,2023.1.3,59.87697677476022,
231,0,231,0,,,,,,,,,,,,,,,,,,,,,,,,,,,,,,,,,,859.4847013000399,860.4961394000566,857.1579932000022,857.1579932000022,857.1579932000022,857.1579932000022,new_sceneOut_31.png,232,3.0,2.328748300089501,,005,0,2024-09-18_14h06.12.333,Surprise recog test,2023.1.3,59.87697677476022,
232,0,232,0,,,,,,,,,,,,,,,,,,,,,,,,,,,,,,,,,,863.5887277000584,864.6052172000054,860.4961394000566,860.4961394000566,860.4961394000566,860.4961394000566,old_sceneIn_34.png,233,3.0,3.0878822000231594,,005,0,2024-09-18_14h06.12.333,Surprise recog test,2023.1.3,59.87697677476022,
233,0,233,0,,,,,,,,,,,,,,,,,,,,,,,,,,,,,,,,,,866.6308335000649,867.650211900007,864.6052172000054,864.6052172000054,864.6052172000054,864.6052172000054,old_fruit_5.png,234,2.0,2.016441500047222,,005,0,2024-09-18_14h06.12.333,Surprise recog test,2023.1.3,59.87697677476022,
234,0,234,0,,,,,,,,,,,,,,,,,,,,,,,,,,,,,,,,,,869.3926759000169,870.4084792999784,867.650211900007,867.650211900007,867.650211900007,867.650211900007,new_fruit_20.png,235,2.0,1.7434572998899966,,005,0,2024-09-18_14h06.12.333,Surprise recog test,2023.1.3,59.87697677476022,
235,0,235,0,,,,,,,,,,,,,,,,,,,,,,,,,,,,,,,,,,872.226050300058,873.2484038000694,870.4084792999784,870.4084792999784,870.4084792999784,870.4084792999784,old_sceneIn_10.png,236,1.0,1.8136846999404952,,005,0,2024-09-18_14h06.12.333,Surprise recog test,2023.1.3,59.87697677476022,
236,0,236,0,,,,,,,,,,,,,,,,,,,,,,,,,,,,,,,,,,874.4898751999717,,873.2484038000694,873.2484038000694,873.2484038000694,873.2484038000694,new_fruit_37.png,237,3.0,1.2419654000550508,,005,0,2024-09-18_14h06.12.333,Surprise recog test,2023.1.3,59.87697677476022,
237,0,237,0,,,,,,,,,,,,,,,,,,,,,,,,,,,,,,,,,,876.8610462000361,877.9011791000376,875.5236239000224,875.5236239000224,875.5236239000224,875.5236239000224,old_stationery_20.png,238,1.0,1.3387776999734342,,005,0,2024-09-18_14h06.12.333,Surprise recog test,2023.1.3,59.87697677476022,
238,0,238,0,,,,,,,,,,,,,,,,,,,,,,,,,,,,,,,,,,879.5567969999975,880.5782174000051,877.9011791000376,877.9011791000376,877.9011791000376,877.9011791000376,new_sceneOut_25.png,239,4.0,1.6614659999031574,,005,0,2024-09-18_14h06.12.333,Surprise recog test,2023.1.3,59.87697677476022,
239,0,239,0,,,,,,,,,,,,,,,,,,,,,,,,,,,,,,,,,,882.1818462000228,883.2132554000709,880.5782174000051,880.5782174000051,880.5782174000051,880.5782174000051,new_stationery_33.png,240,1.0,1.6056067999452353,,005,0,2024-09-18_14h06.12.333,Surprise recog test,2023.1.3,59.87697677476022,
240,0,240,0,,,,,,,,,,,,,,,,,,,,,,,,,,,,,,,,,,885.2862305999734,886.3158732999582,883.2132554000709,883.2132554000709,883.2132554000709,883.2132554000709,old_stationery_10.png,241,1.0,2.0749809000408277,,005,0,2024-09-18_14h06.12.333,Surprise recog test,2023.1.3,59.87697677476022,
241,0,241,0,,,,,,,,,,,,,,,,,,,,,,,,,,,,,,,,,,887.7906145000597,888.8188003000105,886.3158732999582,886.3158732999582,886.3158732999582,886.3158732999582,old_stationery_21.png,242,1.0,1.4752420000731945,,005,0,2024-09-18_14h06.12.333,Surprise recog test,2023.1.3,59.87697677476022,
242,0,242,0,,,,,,,,,,,,,,,,,,,,,,,,,,,,,,,,,,890.4120981000597,891.4264775000047,888.8188003000105,888.8188003000105,888.8188003000105,888.8188003000105,old_sceneOut_16.png,243,5.0,1.5947836000705138,,005,0,2024-09-18_14h06.12.333,Surprise recog test,2023.1.3,59.87697677476022,
243,0,243,0,,,,,,,,,,,,,,,,,,,,,,,,,,,,,,,,,,893.0055806000018,,891.4264775000047,891.4264775000047,891.4264775000047,891.4264775000047,old_stationery_40.png,244,1.0,1.5768112998921424,,005,0,2024-09-18_14h06.12.333,Surprise recog test,2023.1.3,59.87697677476022,
244,0,244,0,,,,,,,,,,,,,,,,,,,,,,,,,,,,,,,,,,895.6978601999581,896.7246221000096,894.0317298000446,894.0317298000446,894.0317298000446,894.0317298000446,new_sceneOut_6.png,245,4.0,1.6666499000275508,,005,0,2024-09-18_14h06.12.333,Surprise recog test,2023.1.3,59.87697677476022,
245,0,245,0,,,,,,,,,,,,,,,,,,,,,,,,,,,,,,,,,,898.3330974000273,899.3489821000258,896.7246221000096,896.7246221000096,896.7246221000096,896.7246221000096,old_stationery_27.png,246,1.0,1.610796399996616,,005,0,2024-09-18_14h06.12.333,Surprise recog test,2023.1.3,59.87697677476022,
246,0,246,0,,,,,,,,,,,,,,,,,,,,,,,,,,,,,,,,,,901.6816381000681,902.7115477999905,899.3489821000258,899.3489821000258,899.3489821000258,899.3489821000258,old_sceneOut_29.png,247,4.0,2.328819700051099,,005,0,2024-09-18_14h06.12.333,Surprise recog test,2023.1.3,59.87697677476022,
247,0,247,0,,,,,,,,,,,,,,,,,,,,,,,,,,,,,,,,,,904.8482949000318,,902.7115477999905,902.7115477999905,902.7115477999905,902.7115477999905,old_sceneIn_22.png,248,5.0,2.13911210000515,,005,0,2024-09-18_14h06.12.333,Surprise recog test,2023.1.3,59.87697677476022,
248,0,248,0,,,,,,,,,,,,,,,,,,,,,,,,,,,,,,,,,,907.7400054000318,908.7568583000684,905.882025100058,905.882025100058,905.882025100058,905.882025100058,new_sceneOut_23.png,249,5.0,1.8593318000202999,,005,0,2024-09-18_14h06.12.333,Surprise recog test,2023.1.3,59.87697677476022,
249,0,249,0,,,,,,,,,,,,,,,,,,,,,,,,,,,,,,,,,,910.0685307000531,911.08438200003,908.7568583000684,908.7568583000684,908.7568583000684,908.7568583000684,new_sceneOut_11.png,250,5.0,1.3104104999219999,,005,0,2024-09-18_14h06.12.333,Surprise recog test,2023.1.3,59.87697677476022,
250,0,250,0,,,,,,,,,,,,,,,,,,,,,,,,,,,,,,,,,,912.604386299965,,911.08438200003,911.08438200003,911.08438200003,911.08438200003,old_sceneOut_45.png,251,5.0,1.5237602000124753,,005,0,2024-09-18_14h06.12.333,Surprise recog test,2023.1.3,59.87697677476022,
251,0,251,0,,,,,,,,,,,,,,,,,,,,,,,,,,,,,,,,,,916.0620599000249,917.0986219999613,913.6267323000357,913.6267323000357,913.6267323000357,913.6267323000357,new_sceneIn_21.png,252,4.0,2.4315210999920964,,005,0,2024-09-18_14h06.12.333,Surprise recog test,2023.1.3,59.87697677476022,
252,0,252,0,,,,,,,,,,,,,,,,,,,,,,,,,,,,,,,,,,918.5415586000308,919.56468890002,917.0986219999613,917.0986219999613,917.0986219999613,917.0986219999613,old_sceneIn_26.png,253,5.0,1.447400699951686,,005,0,2024-09-18_14h06.12.333,Surprise recog test,2023.1.3,59.87697677476022,
253,0,253,0,,,,,,,,,,,,,,,,,,,,,,,,,,,,,,,,,,921.4659916000674,922.4834340000525,919.56468890002,919.56468890002,919.56468890002,919.56468890002,old_sceneIn_6.png,254,5.0,1.902499399962835,,005,0,2024-09-18_14h06.12.333,Surprise recog test,2023.1.3,59.87697677476022,
254,0,254,0,,,,,,,,,,,,,,,,,,,,,,,,,,,,,,,,,,923.7201943000546,924.7365488000214,922.4834340000525,922.4834340000525,922.4834340000525,922.4834340000525,new_stationery_27.png,255,3.0,1.2313764001009986,,005,0,2024-09-18_14h06.12.333,Surprise recog test,2023.1.3,59.87697677476022,
255,0,255,0,,,,,,,,,,,,,,,,,,,,,,,,,,,,,,,,,,926.4604759999784,927.4848241000436,924.7365488000214,924.7365488000214,924.7365488000214,924.7365488000214,new_stationery_50.png,256,1.0,1.7185418999288231,,005,0,2024-09-18_14h06.12.333,Surprise recog test,2023.1.3,59.87697677476022,
256,0,256,0,,,,,,,,,,,,,,,,,,,,,,,,,,,,,,,,,,928.8800680000568,929.8875884000445,927.4848241000436,927.4848241000436,927.4848241000436,927.4848241000436,old_stationery_7.png,257,1.0,1.397749700001441,,005,0,2024-09-18_14h06.12.333,Surprise recog test,2023.1.3,59.87697677476022,
257,0,257,0,,,,,,,,,,,,,,,,,,,,,,,,,,,,,,,,,,931.8664728000294,932.8850977000548,929.8875884000445,929.8875884000445,929.8875884000445,929.8875884000445,old_sceneOut_49.png,258,3.0,1.9735132999485359,,005,0,2024-09-18_14h06.12.333,Surprise recog test,2023.1.3,59.87697677476022,
258,0,258,0,,,,,,,,,,,,,,,,,,,,,,,,,,,,,,,,,,934.0721426999662,,932.8850977000548,932.8850977000548,932.8850977000548,932.8850977000548,new_sceneOut_40.png,259,3.0,1.188148200046271,,005,0,2024-09-18_14h06.12.333,Surprise recog test,2023.1.3,59.87697677476022,
259,0,259,0,,,,,,,,,,,,,,,,,,,,,,,,,,,,,,,,,,937.2410358999623,938.2461237000534,935.1067398999585,935.1067398999585,935.1067398999585,935.1067398999585,old_sceneOut_48.png,260,3.0,2.1342221000231802,,005,0,2024-09-18_14h06.12.333,Surprise recog test,2023.1.3,59.87697677476022,
260,0,260,0,,,,,,,,,,,,,,,,,,,,,,,,,,,,,,,,,,939.7468351999996,940.7810955999885,938.2461237000534,938.2461237000534,938.2461237000534,938.2461237000534,old_stationery_8.png,261,1.0,1.4982335000531748,,005,0,2024-09-18_14h06.12.333,Surprise recog test,2023.1.3,59.87697677476022,
261,0,261,0,,,,,,,,,,,,,,,,,,,,,,,,,,,,,,,,,,942.3798181000166,,940.7810955999885,940.7810955999885,940.7810955999885,940.7810955999885,new_sceneIn_27.png,262,1.0,1.6028766999952495,,005,0,2024-09-18_14h06.12.333,Surprise recog test,2023.1.3,59.87697677476022,
262,0,262,0,,,,,,,,,,,,,,,,,,,,,,,,,,,,,,,,,,946.2389395000646,947.2599390000105,943.4015274000121,943.4015274000121,943.4015274000121,943.4015274000121,old_sceneOut_30.png,263,3.0,2.8323345000389963,,005,0,2024-09-18_14h06.12.333,Surprise recog test,2023.1.3,59.87697677476022,
263,0,263,0,,,,,,,,,,,,,,,,,,,,,,,,,,,,,,,,,,950.0710888999747,,947.2599390000105,947.2599390000105,947.2599390000105,947.2599390000105,old_fruit_40.png,264,2.0,2.809612500015646,,005,0,2024-09-18_14h06.12.333,Surprise recog test,2023.1.3,59.87697677476022,
264,0,264,0,,,,,,,,,,,,,,,,,,,,,,,,,,,,,,,,,,953.0054009000305,,951.1027617000509,951.1027617000509,951.1027617000509,951.1027617000509,old_sceneIn_40.png,265,3.0,1.9033282999880612,,005,0,2024-09-18_14h06.12.333,Surprise recog test,2023.1.3,59.87697677476022,
265,0,265,0,,,,,,,,,,,,,,,,,,,,,,,,,,,,,,,,,,956.0363029000582,957.0560040000128,954.0261118999915,954.0261118999915,954.0261118999915,954.0261118999915,new_stationery_8.png,266,5.0,2.0053722000448033,,005,0,2024-09-18_14h06.12.333,Surprise recog test,2023.1.3,59.87697677476022,
266,0,266,0,,,,,,,,,,,,,,,,,,,,,,,,,,,,,,,,,,959.7607867000625,,957.0560040000128,957.0560040000128,957.0560040000128,957.0560040000128,new_sceneIn_42.png,267,4.0,2.7042415000032634,,005,0,2024-09-18_14h06.12.333,Surprise recog test,2023.1.3,59.87697677476022,
267,0,267,0,,,,,,,,,,,,,,,,,,,,,,,,,,,,,,,,,,962.8329408999998,963.853037300054,960.7883158000186,960.7883158000186,960.7883158000186,960.7883158000186,old_sceneIn_45.png,268,3.0,2.0460038000019267,,005,0,2024-09-18_14h06.12.333,Surprise recog test,2023.1.3,59.87697677476022,
268,0,268,0,,,,,,,,,,,,,,,,,,,,,,,,,,,,,,,,,,965.7145934000146,966.7347765000304,963.853037300054,963.853037300054,963.853037300054,963.853037300054,new_sceneIn_39.png,269,4.0,1.855094900005497,,005,0,2024-09-18_14h06.12.333,Surprise recog test,2023.1.3,59.87697677476022,
269,0,269,0,,,,,,,,,,,,,,,,,,,,,,,,,,,,,,,,,,968.1817979000043,969.1866204000544,966.7347765000304,966.7347765000304,966.7347765000304,966.7347765000304,old_stationery_25.png,270,1.0,1.4482111000688747,,005,0,2024-09-18_14h06.12.333,Surprise recog test,2023.1.3,59.87697677476022,
270,0,270,0,,,,,,,,,,,,,,,,,,,,,,,,,,,,,,,,,,970.3939388999715,971.4143328999635,969.1866204000544,969.1866204000544,969.1866204000544,969.1866204000544,old_sceneIn_9.png,271,1.0,1.2003412999911234,,005,0,2024-09-18_14h06.12.333,Surprise recog test,2023.1.3,59.87697677476022,
271,0,271,0,,,,,,,,,,,,,,,,,,,,,,,,,,,,,,,,,,972.9365487999748,973.9451566999778,971.4143328999635,971.4143328999635,971.4143328999635,971.4143328999635,old_fruit_31.png,272,2.0,1.521673700073734,,005,0,2024-09-18_14h06.12.333,Surprise recog test,2023.1.3,59.87697677476022,
272,0,272,0,,,,,,,,,,,,,,,,,,,,,,,,,,,,,,,,,,974.7119418999646,975.7422325999942,973.9451566999778,973.9451566999778,973.9451566999778,973.9451566999778,old_fruit_27.png,273,2.0,0.7631304999813437,,005,0,2024-09-18_14h06.12.333,Surprise recog test,2023.1.3,59.87697677476022,
273,0,273,0,,,,,,,,,,,,,,,,,,,,,,,,,,,,,,,,,,978.01923049998,979.044104999979,975.7422325999942,975.7422325999942,975.7422325999942,975.7422325999942,old_sceneIn_8.png,274,4.0,2.2795659999828786,,005,0,2024-09-18_14h06.12.333,Surprise recog test,2023.1.3,59.87697677476022,
274,0,274,0,,,,,,,,,,,,,,,,,,,,,,,,,,,,,,,,,,981.2178448999766,982.245297000045,979.044104999979,979.044104999979,979.044104999979,979.044104999979,old_sceneIn_29.png,275,5.0,2.176507299998775,,005,0,2024-09-18_14h06.12.333,Surprise recog test,2023.1.3,59.87697677476022,
275,0,275,0,,,,,,,,,,,,,,,,,,,,,,,,,,,,,,,,,,983.9407058999641,984.9651078999741,982.245297000045,982.245297000045,982.245297000045,982.245297000045,old_stationery_22.png,276,5.0,1.6948549998924136,,005,0,2024-09-18_14h06.12.333,Surprise recog test,2023.1.3,59.87697677476022,
276,0,276,0,,,,,,,,,,,,,,,,,,,,,,,,,,,,,,,,,,987.3570925999666,988.384287300054,984.9651078999741,984.9651078999741,984.9651078999741,984.9651078999741,new_stationery_41.png,277,5.0,2.3932999999960884,,005,0,2024-09-18_14h06.12.333,Surprise recog test,2023.1.3,59.87697677476022,
277,0,277,0,,,,,,,,,,,,,,,,,,,,,,,,,,,,,,,,,,989.1778866000241,990.2041761999717,988.384287300054,988.384287300054,988.384287300054,988.384287300054,old_sceneOut_17.png,278,5.0,0.7935714999912307,,005,0,2024-09-18_14h06.12.333,Surprise recog test,2023.1.3,59.87697677476022,
278,0,278,0,,,,,,,,,,,,,,,,,,,,,,,,,,,,,,,,,,991.6114162000595,992.6267069999594,990.2041761999717,990.2041761999717,990.2041761999717,990.2041761999717,old_sceneOut_6.png,279,4.0,1.407942899968475,,005,0,2024-09-18_14h06.12.333,Surprise recog test,2023.1.3,59.87697677476022,
279,0,279,0,,,,,,,,,,,,,,,,,,,,,,,,,,,,,,,,,,994.1424775000196,995.1618108999683,992.6267069999594,992.6267069999594,992.6267069999594,992.6267069999594,old_sceneOut_5.png,280,4.0,1.5116526000201702,,005,0,2024-09-18_14h06.12.333,Surprise recog test,2023.1.3,59.87697677476022,
280,0,280,0,,,,,,,,,,,,,,,,,,,,,,,,,,,,,,,,,,997.2282441999996,998.2543211999582,995.1618108999683,995.1618108999683,995.1618108999683,995.1618108999683,new_fruit_7.png,281,2.0,2.061493600020185,,005,0,2024-09-18_14h06.12.333,Surprise recog test,2023.1.3,59.87697677476022,
281,0,281,0,,,,,,,,,,,,,,,,,,,,,,,,,,,,,,,,,,1000.2998251999961,1001.3290317000356,998.2543211999582,998.2543211999582,998.2543211999582,998.2543211999582,old_fruit_47.png,282,4.0,2.0448572000022978,,005,0,2024-09-18_14h06.12.333,Surprise recog test,2023.1.3,59.87697677476022,
282,0,282,0,,,,,,,,,,,,,,,,,,,,,,,,,,,,,,,,,,1002.9622045999859,1003.9741650000215,1001.3290317000356,1001.3290317000356,1001.3290317000356,1001.3290317000356,new_sceneIn_14.png,283,4.0,1.6337734999833629,,005,0,2024-09-18_14h06.12.333,Surprise recog test,2023.1.3,59.87697677476022,
283,0,283,0,,,,,,,,,,,,,,,,,,,,,,,,,,,,,,,,,,1005.7171664000489,,1003.9741650000215,1003.9741650000215,1003.9741650000215,1003.9741650000215,new_stationery_6.png,284,3.0,1.7438629000680521,,005,0,2024-09-18_14h06.12.333,Surprise recog test,2023.1.3,59.87697677476022,
284,0,284,0,,,,,,,,,,,,,,,,,,,,,,,,,,,,,,,,,,1008.0982022000244,1009.1140091000125,1006.7582907000324,1006.7582907000324,1006.7582907000324,1006.7582907000324,new_fruit_26.png,285,2.0,1.338163800071925,,005,0,2024-09-18_14h06.12.333,Surprise recog test,2023.1.3,59.87697677476022,
285,0,285,0,,,,,,,,,,,,,,,,,,,,,,,,,,,,,,,,,,1010.0918860000093,1011.1207852000371,1009.1140091000125,1009.1140091000125,1009.1140091000125,1009.1140091000125,old_fruit_33.png,286,2.0,0.9799981000833213,,005,0,2024-09-18_14h06.12.333,Surprise recog test,2023.1.3,59.87697677476022,
286,0,286,0,,,,,,,,,,,,,,,,,,,,,,,,,,,,,,,,,,1012.8635951000033,1013.8845800000709,1011.1207852000371,1011.1207852000371,1011.1207852000371,1011.1207852000371,old_sceneIn_24.png,287,1.0,1.7412372999824584,,005,0,2024-09-18_14h06.12.333,Surprise recog test,2023.1.3,59.87697677476022,
287,0,287,0,,,,,,,,,,,,,,,,,,,,,,,,,,,,,,,,,,1015.1052724999608,1016.1203288000543,1013.8845800000709,1013.8845800000709,1013.8845800000709,1013.8845800000709,new_sceneIn_5.png,288,1.0,1.2221457000123337,,005,0,2024-09-18_14h06.12.333,Surprise recog test,2023.1.3,59.87697677476022,
288,0,288,0,,,,,,,,,,,,,,,,,,,,,,,,,,,,,,,,,,1016.8212925000116,1017.8435167999705,1016.1203288000543,1016.1203288000543,1016.1203288000543,1016.1203288000543,new_fruit_17.png,289,1.0,0.7028136000735685,,005,0,2024-09-18_14h06.12.333,Surprise recog test,2023.1.3,59.87697677476022,
289,0,289,0,,,,,,,,,,,,,,,,,,,,,,,,,,,,,,,,,,1020.4924663000274,1021.4977367999963,1017.8435167999705,1017.8435167999705,1017.8435167999705,1017.8435167999705,new_sceneOut_38.png,290,5.0,2.651681000017561,,005,0,2024-09-18_14h06.12.333,Surprise recog test,2023.1.3,59.87697677476022,
290,0,290,0,,,,,,,,,,,,,,,,,,,,,,,,,,,,,,,,,,1023.010589200072,1024.0194454999873,1021.4977367999963,1021.4977367999963,1021.4977367999963,1021.4977367999963,old_fruit_42.png,291,2.0,1.5032525999704376,,005,0,2024-09-18_14h06.12.333,Surprise recog test,2023.1.3,59.87697677476022,
291,0,291,0,,,,,,,,,,,,,,,,,,,,,,,,,,,,,,,,,,1025.6546731999842,1026.6824085999979,1024.0194454999873,1024.0194454999873,1024.0194454999873,1024.0194454999873,old_sceneIn_25.png,292,5.0,1.6305419999407604,,005,0,2024-09-18_14h06.12.333,Surprise recog test,2023.1.3,59.87697677476022,
292,0,292,0,,,,,,,,,,,,,,,,,,,,,,,,,,,,,,,,,,1028.708417100017,1029.7340950999642,1026.6824085999979,1026.6824085999979,1026.6824085999979,1026.6824085999979,new_stationery_38.png,293,1.0,2.0252545999828726,,005,0,2024-09-18_14h06.12.333,Surprise recog test,2023.1.3,59.87697677476022,
293,0,293,0,,,,,,,,,,,,,,,,,,,,,,,,,,,,,,,,,,1031.9046943000285,,1029.7340950999642,1029.7340950999642,1029.7340950999642,1029.7340950999642,old_sceneIn_49.png,294,3.0,2.172960299998522,,005,0,2024-09-18_14h06.12.333,Surprise recog test,2023.1.3,59.87697677476022,
294,0,294,0,,,,,,,,,,,,,,,,,,,,,,,,,,,,,,,,,,1035.0645595999667,1036.0881567000179,1032.9396584000206,1032.9396584000206,1032.9396584000206,1032.9396584000206,new_sceneOut_14.png,295,3.0,2.1278615000192076,,005,0,2024-09-18_14h06.12.333,Surprise recog test,2023.1.3,59.87697677476022,
295,0,295,0,,,,,,,,,,,,,,,,,,,,,,,,,,,,,,,,,,1037.564544999972,1038.5887409000425,1036.0881567000179,1036.0881567000179,1036.0881567000179,1036.0881567000179,new_sceneIn_2.png,296,5.0,1.4793745999922976,,005,0,2024-09-18_14h06.12.333,Surprise recog test,2023.1.3,59.87697677476022,
296,0,296,0,,,,,,,,,,,,,,,,,,,,,,,,,,,,,,,,,,1040.484550400055,1041.5108008000534,1038.5887409000425,1038.5887409000425,1038.5887409000425,1038.5887409000425,new_fruit_50.png,297,5.0,1.8976784000406042,,005,0,2024-09-18_14h06.12.333,Surprise recog test,2023.1.3,59.87697677476022,
297,0,297,0,,,,,,,,,,,,,,,,,,,,,,,,,,,,,,,,,,1043.8781606999692,1044.8974983000662,1041.5108008000534,1041.5108008000534,1041.5108008000534,1041.5108008000534,old_sceneOut_15.png,298,4.0,2.3691919000120834,,005,0,2024-09-18_14h06.12.333,Surprise recog test,2023.1.3,59.87697677476022,
298,0,298,0,,,,,,,,,,,,,,,,,,,,,,,,,,,,,,,,,,1047.7007710000034,,1044.8974983000662,1044.8974983000662,1044.8974983000662,1044.8974983000662,new_sceneIn_40.png,299,3.0,2.805603099986911,,005,0,2024-09-18_14h06.12.333,Surprise recog test,2023.1.3,59.87697677476022,
299,0,299,0,,,,,,,,,,,,,,,,,,,,,,,,,,,,,,,,,,1050.2337548000505,1051.2567098999862,1048.7356704999693,1048.7356704999693,1048.7356704999693,1048.7356704999693,old_sceneOut_25.png,300,3.0,1.5000774000072852,,005,0,2024-09-18_14h06.12.333,Surprise recog test,2023.1.3,59.87697677476022,
300,0,300,0,,,,,,,,,,,,,,,,,,,,,,,,,,,,,,,,,,1052.9101280999603,1053.9412011000095,1051.2567098999862,1051.2567098999862,1051.2567098999862,1051.2567098999862,old_sceneOut_18.png,301,5.0,1.6586668000090867,,005,0,2024-09-18_14h06.12.333,Surprise recog test,2023.1.3,59.87697677476022,
301,0,301,0,,,,,,,,,,,,,,,,,,,,,,,,,,,,,,,,,,1056.2984178999905,1057.3095040000044,1053.9412011000095,1053.9412011000095,1053.9412011000095,1053.9412011000095,new_stationery_48.png,302,2.0,2.3599752000300214,,005,0,2024-09-18_14h06.12.333,Surprise recog test,2023.1.3,59.87697677476022,
302,0,302,0,,,,,,,,,,,,,,,,,,,,,,,,,,,,,,,,,,1059.0798475999618,1060.1102229000535,1057.3095040000044,1057.3095040000044,1057.3095040000044,1057.3095040000044,new_sceneIn_9.png,303,5.0,1.7641873999964446,,005,0,2024-09-18_14h06.12.333,Surprise recog test,2023.1.3,59.87697677476022,
303,0,303,0,,,,,,,,,,,,,,,,,,,,,,,,,,,,,,,,,,1061.185259400052,1062.2025270999875,1060.1102229000535,1060.1102229000535,1060.1102229000535,1060.1102229000535,old_sceneIn_17.png,304,5.0,1.0754725999431685,,005,0,2024-09-18_14h06.12.333,Surprise recog test,2023.1.3,59.87697677476022,
304,0,304,0,,,,,,,,,,,,,,,,,,,,,,,,,,,,,,,,,,1064.8475539999781,,1062.2025270999875,1062.2025270999875,1062.2025270999875,1062.2025270999875,new_stationery_25.png,305,4.0,2.6399259000318125,,005,0,2024-09-18_14h06.12.333,Surprise recog test,2023.1.3,59.87697677476022,
305,0,305,0,,,,,,,,,,,,,,,,,,,,,,,,,,,,,,,,,,1068.2705870000646,1069.302025299985,1065.8859871999593,1065.8859871999593,1065.8859871999593,1065.8859871999593,old_sceneIn_42.png,306,2.0,2.387749799992889,,005,0,2024-09-18_14h06.12.333,Surprise recog test,2023.1.3,59.87697677476022,
306,0,306,0,,,,,,,,,,,,,,,,,,,,,,,,,,,,,,,,,,1071.3578772000037,1072.383706600056,1069.302025299985,1069.302025299985,1069.302025299985,1069.302025299985,new_sceneIn_32.png,307,5.0,2.0546013999264687,,005,0,2024-09-18_14h06.12.333,Surprise recog test,2023.1.3,59.87697677476022,
307,0,307,0,,,,,,,,,,,,,,,,,,,,,,,,,,,,,,,,,,1073.3023107000627,1074.3252912999596,1072.383706600056,1072.383706600056,1072.383706600056,1072.383706600056,new_sceneOut_4.png,308,5.0,0.9166020000120625,,005,0,2024-09-18_14h06.12.333,Surprise recog test,2023.1.3,59.87697677476022,
308,0,308,0,,,,,,,,,,,,,,,,,,,,,,,,,,,,,,,,,,1075.0341270000208,1076.0489867000142,1074.3252912999596,1074.3252912999596,1074.3252912999596,1074.3252912999596,old_sceneOut_13.png,309,5.0,0.7117394999368116,,005,0,2024-09-18_14h06.12.333,Surprise recog test,2023.1.3,59.87697677476022,
309,0,309,0,,,,,,,,,,,,,,,,,,,,,,,,,,,,,,,,,,1078.0016727000475,1079.0195709000109,1076.0489867000142,1076.0489867000142,1076.0489867000142,1076.0489867000142,old_fruit_50.png,310,3.0,1.9483208000892773,,005,0,2024-09-18_14h06.12.333,Surprise recog test,2023.1.3,59.87697677476022,
310,0,310,0,,,,,,,,,,,,,,,,,,,,,,,,,,,,,,,,,,1080.733196999994,1081.7561115999706,1079.0195709000109,1079.0195709000109,1079.0195709000109,1079.0195709000109,old_stationery_12.png,311,4.0,1.7140237001003698,,005,0,2024-09-18_14h06.12.333,Surprise recog test,2023.1.3,59.87697677476022,
311,0,311,0,,,,,,,,,,,,,,,,,,,,,,,,,,,,,,,,,,1083.7021368000424,1084.7198591000633,1081.7561115999706,1081.7561115999706,1081.7561115999706,1081.7561115999706,new_stationery_16.png,312,2.0,1.9475254999706522,,005,0,2024-09-18_14h06.12.333,Surprise recog test,2023.1.3,59.87697677476022,
312,0,312,0,,,,,,,,,,,,,,,,,,,,,,,,,,,,,,,,,,1086.491931000026,1087.5161337000318,1084.7198591000633,1084.7198591000633,1084.7198591000633,1084.7198591000633,new_stationery_4.png,313,1.0,1.7665123000042513,,005,0,2024-09-18_14h06.12.333,Surprise recog test,2023.1.3,59.87697677476022,
313,0,313,0,,,,,,,,,,,,,,,,,,,,,,,,,,,,,,,,,,1088.281219700002,1089.2917718000244,1087.5161337000318,1087.5161337000318,1087.5161337000318,1087.5161337000318,new_stationery_24.png,314,1.0,0.7604572999989614,,005,0,2024-09-18_14h06.12.333,Surprise recog test,2023.1.3,59.87697677476022,
314,0,314,0,,,,,,,,,,,,,,,,,,,,,,,,,,,,,,,,,,1091.6840673000552,1092.7035421000328,1089.2917718000244,1089.2917718000244,1089.2917718000244,1089.2917718000244,new_sceneOut_34.png,315,3.0,2.3848822000436485,,005,0,2024-09-18_14h06.12.333,Surprise recog test,2023.1.3,59.87697677476022,
315,0,315,0,,,,,,,,,,,,,,,,,,,,,,,,,,,,,,,,,,1093.7552289000014,,1092.7035421000328,1092.7035421000328,1092.7035421000328,1092.7035421000328,new_sceneOut_45.png,316,3.0,1.0536863000597805,,005,0,2024-09-18_14h06.12.333,Surprise recog test,2023.1.3,59.87697677476022,
316,0,316,0,,,,,,,,,,,,,,,,,,,,,,,,,,,,,,,,,,1096.8298577000387,1097.864785599988,1094.773982499959,1094.773982499959,1094.773982499959,1094.773982499959,old_sceneIn_50.png,317,5.0,2.0524449000367895,,005,0,2024-09-18_14h06.12.333,Surprise recog test,2023.1.3,59.87697677476022,
317,0,317,0,,,,,,,,,,,,,,,,,,,,,,,,,,,,,,,,,,1099.7115921999793,,1097.864785599988,1097.864785599988,1097.864785599988,1097.864785599988,new_sceneOut_30.png,318,3.0,1.8470175999682397,,005,0,2024-09-18_14h06.12.333,Surprise recog test,2023.1.3,59.87697677476022,
318,0,318,0,,,,,,,,,,,,,,,,,,,,,,,,,,,,,,,,,,1102.654902099981,1103.6858292999677,1100.7324405000545,1100.7324405000545,1100.7324405000545,1100.7324405000545,new_fruit_18.png,319,2.0,1.91678700002376,,005,0,2024-09-18_14h06.12.333,Surprise recog test,2023.1.3,59.87697677476022,
319,0,319,0,,,,,,,,,,,,,,,,,,,,,,,,,,,,,,,,,,1105.4414499000413,1106.4687104000477,1103.6858292999677,1103.6858292999677,1103.6858292999677,1103.6858292999677,new_sceneIn_6.png,320,5.0,1.759262999985367,,005,0,2024-09-18_14h06.12.333,Surprise recog test,2023.1.3,59.87697677476022,
320,0,320,0,,,,,,,,,,,,,,,,,,,,,,,,,,,,,,,,,,1107.2820937000215,1108.3032344999956,1106.4687104000477,1106.4687104000477,1106.4687104000477,1106.4687104000477,old_sceneOut_37.png,321,5.0,0.816291099996306,,005,0,2024-09-18_14h06.12.333,Surprise recog test,2023.1.3,59.87697677476022,
321,0,321,0,,,,,,,,,,,,,,,,,,,,,,,,,,,,,,,,,,1109.8073191000149,1110.8373969000531,1108.3032344999956,1108.3032344999956,1108.3032344999956,1108.3032344999956,new_sceneIn_33.png,322,5.0,1.5080454999115318,,005,0,2024-09-18_14h06.12.333,Surprise recog test,2023.1.3,59.87697677476022,
322,0,322,0,,,,,,,,,,,,,,,,,,,,,,,,,,,,,,,,,,1112.5796491999645,1113.5931907000486,1110.8373969000531,1110.8373969000531,1110.8373969000531,1110.8373969000531,old_fruit_3.png,323,2.0,1.7438465999439359,,005,0,2024-09-18_14h06.12.333,Surprise recog test,2023.1.3,59.87697677476022,
323,0,323,0,,,,,,,,,,,,,,,,,,,,,,,,,,,,,,,,,,1115.9795985000674,1117.005782000022,1113.5931907000486,1113.5931907000486,1113.5931907000486,1113.5931907000486,old_fruit_23.png,324,3.0,2.381922700093128,,005,0,2024-09-18_14h06.12.333,Surprise recog test,2023.1.3,59.87697677476022,
324,0,324,0,,,,,,,,,,,,,,,,,,,,,,,,,,,,,,,,,,1119.3339426000603,1120.3500662000151,1117.005782000022,1117.005782000022,1117.005782000022,1117.005782000022,new_fruit_12.png,325,5.0,2.328825999982655,,005,0,2024-09-18_14h06.12.333,Surprise recog test,2023.1.3,59.87697677476022,
325,0,325,0,,,,,,,,,,,,,,,,,,,,,,,,,,,,,,,,,,1122.461347799981,1123.4673591000028,1120.3500662000151,1120.3500662000151,1120.3500662000151,1120.3500662000151,new_fruit_36.png,326,4.0,2.1050422000698745,,005,0,2024-09-18_14h06.12.333,Surprise recog test,2023.1.3,59.87697677476022,
326,0,326,0,,,,,,,,,,,,,,,,,,,,,,,,,,,,,,,,,,1126.5129915999714,1127.5282301000552,1123.4673591000028,1123.4673591000028,1123.4673591000028,1123.4673591000028,old_stationery_15.png,327,3.0,3.0349808000028133,,005,0,2024-09-18_14h06.12.333,Surprise recog test,2023.1.3,59.87697677476022,
327,0,327,0,,,,,,,,,,,,,,,,,,,,,,,,,,,,,,,,,,1129.1560506999958,1130.1712143999757,1127.5282301000552,1127.5282301000552,1127.5282301000552,1127.5282301000552,new_stationery_43.png,328,3.0,1.6307275000726804,,005,0,2024-09-18_14h06.12.333,Surprise recog test,2023.1.3,59.87697677476022,
328,0,328,0,,,,,,,,,,,,,,,,,,,,,,,,,,,,,,,,,,1131.795534600038,1132.809231000021,1130.1712143999757,1130.1712143999757,1130.1712143999757,1130.1712143999757,new_fruit_15.png,329,4.0,1.6210379999829456,,005,0,2024-09-18_14h06.12.333,Surprise recog test,2023.1.3,59.87697677476022,
329,0,329,0,,,,,,,,,,,,,,,,,,,,,,,,,,,,,,,,,,1134.4196648000507,1135.4341881000437,1132.809231000021,1132.809231000021,1132.809231000021,1132.809231000021,old_stationery_16.png,330,5.0,1.59981709998101,,005,0,2024-09-18_14h06.12.333,Surprise recog test,2023.1.3,59.87697677476022,
330,0,330,0,,,,,,,,,,,,,,,,,,,,,,,,,,,,,,,,,,1136.573399899993,1137.5929278000258,1135.4341881000437,1135.4341881000437,1135.4341881000437,1135.4341881000437,new_sceneIn_23.png,331,5.0,1.137384899891913,,005,0,2024-09-18_14h06.12.333,Surprise recog test,2023.1.3,59.87697677476022,
331,0,331,0,,,,,,,,,,,,,,,,,,,,,,,,,,,,,,,,,,1139.6638610999798,1140.6965623999713,1137.5929278000258,1137.5929278000258,1137.5929278000258,1137.5929278000258,new_sceneIn_31.png,332,4.0,2.0729396999813616,,005,0,2024-09-18_14h06.12.333,Surprise recog test,2023.1.3,59.87697677476022,
332,0,332,0,,,,,,,,,,,,,,,,,,,,,,,,,,,,,,,,,,1142.5082891000202,1143.5336749000708,1140.6965623999713,1140.6965623999713,1140.6965623999713,1140.6965623999713,new_sceneIn_13.png,333,5.0,1.8147319999989122,,005,0,2024-09-18_14h06.12.333,Surprise recog test,2023.1.3,59.87697677476022,
333,0,333,0,,,,,,,,,,,,,,,,,,,,,,,,,,,,,,,,,,1145.7957091999706,1146.8185992999934,1143.5336749000708,1143.5336749000708,1143.5336749000708,1143.5336749000708,old_sceneOut_12.png,334,4.0,2.2632363999728113,,005,0,2024-09-18_14h06.12.333,Surprise recog test,2023.1.3,59.87697677476022,
334,0,334,0,,,,,,,,,,,,,,,,,,,,,,,,,,,,,,,,,,1148.3634803000605,1149.3781612999737,1146.8185992999934,1146.8185992999934,1146.8185992999934,1146.8185992999934,old_sceneIn_28.png,335,5.0,1.5462244000518695,,005,0,2024-09-18_14h06.12.333,Surprise recog test,2023.1.3,59.87697677476022,
335,0,335,0,,,,,,,,,,,,,,,,,,,,,,,,,,,,,,,,,,1150.9761362000136,1151.9923175000586,1149.3781612999737,1149.3781612999737,1149.3781612999737,1149.3781612999737,old_stationery_48.png,336,1.0,1.5985098000383005,,005,0,2024-09-18_14h06.12.333,Surprise recog test,2023.1.3,59.87697677476022,
336,0,336,0,,,,,,,,,,,,,,,,,,,,,,,,,,,,,,,,,,1153.922611100017,,1151.9923175000586,1151.9923175000586,1151.9923175000586,1151.9923175000586,old_sceneIn_35.png,337,5.0,1.92375479999464,,005,0,2024-09-18_14h06.12.333,Surprise recog test,2023.1.3,59.87697677476022,
337,0,337,0,,,,,,,,,,,,,,,,,,,,,,,,,,,,,,,,,,1156.671394300065,1157.6921848000493,1154.9437934999587,1154.9437934999587,1154.9437934999587,1154.9437934999587,new_sceneIn_46.png,338,5.0,1.7170491999713704,,005,0,2024-09-18_14h06.12.333,Surprise recog test,2023.1.3,59.87697677476022,
338,0,338,0,,,,,,,,,,,,,,,,,,,,,,,,,,,,,,,,,,1159.7077317000367,1160.7273503000615,1157.6921848000493,1157.6921848000493,1157.6921848000493,1157.6921848000493,old_stationery_2.png,339,3.0,2.0173861000221223,,005,0,2024-09-18_14h06.12.333,Surprise recog test,2023.1.3,59.87697677476022,
339,0,339,0,,,,,,,,,,,,,,,,,,,,,,,,,,,,,,,,,,1162.507532299962,1163.5299019999802,1160.7273503000615,1160.7273503000615,1160.7273503000615,1160.7273503000615,old_sceneIn_7.png,340,4.0,1.7820322999032214,,005,0,2024-09-18_14h06.12.333,Surprise recog test,2023.1.3,59.87697677476022,
340,0,340,0,,,,,,,,,,,,,,,,,,,,,,,,,,,,,,,,,,1164.3225154000102,1165.3332174000097,1163.5299019999802,1163.5299019999802,1163.5299019999802,1163.5299019999802,old_fruit_11.png,341,4.0,0.7949403000529855,,005,0,2024-09-18_14h06.12.333,Surprise recog test,2023.1.3,59.87697677476022,
341,0,341,0,,,,,,,,,,,,,,,,,,,,,,,,,,,,,,,,,,1167.0496159000322,,1165.3332174000097,1165.3332174000097,1165.3332174000097,1165.3332174000097,old_stationery_31.png,342,1.0,1.7127583998953924,,005,0,2024-09-18_14h06.12.333,Surprise recog test,2023.1.3,59.87697677476022,
342,0,342,0,,,,,,,,,,,,,,,,,,,,,,,,,,,,,,,,,,1169.9072084999643,1170.9248267000075,1168.0830437999684,1168.0830437999684,1168.0830437999684,1168.0830437999684,new_stationery_5.png,343,5.0,1.8257112000137568,,005,0,2024-09-18_14h06.12.333,Surprise recog test,2023.1.3,59.87697677476022,
343,0,343,0,,,,,,,,,,,,,,,,,,,,,,,,,,,,,,,,,,1173.0448971000733,1174.0596806000685,1170.9248267000075,1170.9248267000075,1170.9248267000075,1170.9248267000075,old_sceneIn_19.png,344,2.0,2.114661000086926,,005,0,2024-09-18_14h06.12.333,Surprise recog test,2023.1.3,59.87697677476022,
344,0,344,0,,,,,,,,,,,,,,,,,,,,,,,,,,,,,,,,,,1175.6436128000496,1176.677178599988,1174.0596806000685,1174.0596806000685,1174.0596806000685,1174.0596806000685,old_fruit_17.png,345,3.0,1.5800735999364406,,005,0,2024-09-18_14h06.12.333,Surprise recog test,2023.1.3,59.87697677476022,
345,0,345,0,,,,,,,,,,,,,,,,,,,,,,,,,,,,,,,,,,1178.6235661000246,1179.6321916000452,1176.677178599988,1176.677178599988,1176.677178599988,1176.677178599988,new_fruit_38.png,346,5.0,1.9500853000208735,,005,0,2024-09-18_14h06.12.333,Surprise recog test,2023.1.3,59.87697677476022,
346,0,346,0,,,,,,,,,,,,,,,,,,,,,,,,,,,,,,,,,,1182.8987870999845,1183.9304640999762,1179.6321916000452,1179.6321916000452,1179.6321916000452,1179.6321916000452,new_fruit_44.png,347,4.0,3.262333699967712,,005,0,2024-09-18_14h06.12.333,Surprise recog test,2023.1.3,59.87697677476022,
347,0,347,0,,,,,,,,,,,,,,,,,,,,,,,,,,,,,,,,,,1186.3630148000084,1187.384677199996,1183.9304640999762,1183.9304640999762,1183.9304640999762,1183.9304640999762,new_fruit_47.png,348,4.0,2.4348569000139832,,005,0,2024-09-18_14h06.12.333,Surprise recog test,2023.1.3,59.87697677476022,
348,0,348,0,,,,,,,,,,,,,,,,,,,,,,,,,,,,,,,,,,1189.24111860001,1190.2582604000345,1187.384677199996,1187.384677199996,1187.384677199996,1187.384677199996,old_sceneIn_48.png,349,5.0,1.859510499984026,,005,0,2024-09-18_14h06.12.333,Surprise recog test,2023.1.3,59.87697677476022,
349,0,349,0,,,,,,,,,,,,,,,,,,,,,,,,,,,,,,,,,,1192.4817852000706,1193.5019434000133,1190.2582604000345,1190.2582604000345,1190.2582604000345,1190.2582604000345,old_fruit_25.png,350,2.0,2.218335199984722,,005,0,2024-09-18_14h06.12.333,Surprise recog test,2023.1.3,59.87697677476022,
350,0,350,0,,,,,,,,,,,,,,,,,,,,,,,,,,,,,,,,,,1195.2585275999736,1196.2917897000443,1193.5019434000133,1193.5019434000133,1193.5019434000133,1193.5019434000133,new_sceneOut_5.png,351,4.0,1.7586327000753954,,005,0,2024-09-18_14h06.12.333,Surprise recog test,2023.1.3,59.87697677476022,
351,0,351,0,,,,,,,,,,,,,,,,,,,,,,,,,,,,,,,,,,1199.1828580000438,1200.2101421999978,1196.2917897000443,1196.2917897000443,1196.2917897000443,1196.2917897000443,new_stationery_14.png,352,5.0,2.892955799936317,,005,0,2024-09-18_14h06.12.333,Surprise recog test,2023.1.3,59.87697677476022,
352,0,352,0,,,,,,,,,,,,,,,,,,,,,,,,,,,,,,,,,,1204.6439006000292,1205.6499803999905,1200.2101421999978,1200.2101421999978,1200.2101421999978,1200.2101421999978,old_stationery_39.png,353,2.0,4.433502299943939,,005,0,2024-09-18_14h06.12.333,Surprise recog test,2023.1.3,59.87697677476022,
353,0,353,0,,,,,,,,,,,,,,,,,,,,,,,,,,,,,,,,,,1207.3189217000036,1208.3358004000038,1205.6499803999905,1205.6499803999905,1205.6499803999905,1205.6499803999905,old_stationery_30.png,354,2.0,1.6661671999609098,,005,0,2024-09-18_14h06.12.333,Surprise recog test,2023.1.3,59.87697677476022,
354,0,354,0,,,,,,,,,,,,,,,,,,,,,,,,,,,,,,,,,,1211.1117814000463,1212.1402934000362,1208.3358004000038,1208.3358004000038,1208.3358004000038,1208.3358004000038,new_sceneIn_29.png,355,4.0,2.772346500074491,,005,0,2024-09-18_14h06.12.333,Surprise recog test,2023.1.3,59.87697677476022,
