trial_loop.thisRepN,trial_loop.thisTrialN,trial_loop.thisN,trial_loop.thisIndex,VAS_slider.started,VAS_text.started,VAS_notstressed_text.started,VAS_stressed_text.started,continue_input.started,continue_text.started,label0.started,label10.started,label20.started,label30.started,label40.started,label50.started,label60.started,label70.started,label80.started,label90.started,label100.started,VAS_slider.response,VAS_slider.rt,VAS_slider.history,Answer_VAS,continue_input.keys,instruction_text.started,continue_text_2.started,continue_input_2.started,continue_input_2.keys,continue_input_2.rt,continue_input_2.duration,example_text.started,example_slider_2.started,example_image.started,example_slider_2.response,example_slider_2.rt,fixcross.started,fixcross.stopped,front_square.started,stim_images.started,trial_inst_images.started,slider_images.started,thisImg,trial_count,slider_images.response,slider_images.rt,outro.started,participant,condition,date,expName,psychopyVersion,frameRate,
,,,,238.4110367000103,238.4110367000103,238.4110367000103,238.4110367000103,238.4110367000103,238.4110367000103,238.4110367000103,238.4110367000103,238.4110367000103,238.4110367000103,238.4110367000103,238.4110367000103,238.4110367000103,238.4110367000103,238.4110367000103,238.4110367000103,238.4110367000103,1.5000000000000002,8.39741690014489,"[(1.5000000000000002, 8.39741690014489)]",1.5000000000000002,None,,,,,,,,,,,,,,,,,,,,,,,006,0,2024-09-19_14h01.28.508,Surprise recog test,2023.1.3,59.95858066005746,
,,,,,,,,,,,,,,,,,,,,,,,,,,246.87499809986912,246.87499809986912,246.87499809986912,space,34.724805700127035,None,,,,,,,,,,,,,,,,,006,0,2024-09-19_14h01.28.508,Surprise recog test,2023.1.3,59.95858066005746,
0,0,0,0,,,,,,,,,,,,,,,,,,,,,,,,,,,,,281.72256479994394,281.72256479994394,281.72256479994394,5.0,12.81893049995415,297.97637560009025,298.9928001998924,295.50153620005585,295.50153620005585,295.50153620005585,295.50153620005585,new_fruit_11.png,1,3.0,2.4788524000905454,,006,0,2024-09-19_14h01.28.508,Surprise recog test,2023.1.3,59.95858066005746,
1,0,1,0,,,,,,,,,,,,,,,,,,,,,,,,,,,,,,,,,,302.1610816998873,303.18846279988065,298.9928001998924,298.9928001998924,298.9928001998924,298.9928001998924,new_fruit_1.png,2,4.0,3.1636048001237214,,006,0,2024-09-19_14h01.28.508,Surprise recog test,2023.1.3,59.95858066005746,
2,0,2,0,,,,,,,,,,,,,,,,,,,,,,,,,,,,,,,,,,304.99917289987206,306.0126348999329,303.18846279988065,303.18846279988065,303.18846279988065,303.18846279988065,old_sceneOut_35.png,3,1.0,1.8136018000077456,,006,0,2024-09-19_14h01.28.508,Surprise recog test,2023.1.3,59.95858066005746,
3,0,3,0,,,,,,,,,,,,,,,,,,,,,,,,,,,,,,,,,,308.93882869998924,309.96167699992657,306.0126348999329,306.0126348999329,306.0126348999329,306.0126348999329,new_fruit_12.png,4,3.0,2.9228672001045197,,006,0,2024-09-19_14h01.28.508,Surprise recog test,2023.1.3,59.95858066005746,
4,0,4,0,,,,,,,,,,,,,,,,,,,,,,,,,,,,,,,,,,311.7434447000269,312.75574929988943,309.96167699992657,309.96167699992657,309.96167699992657,309.96167699992657,old_sceneOut_28.png,5,5.0,1.7818046999163926,,006,0,2024-09-19_14h01.28.508,Surprise recog test,2023.1.3,59.95858066005746,
5,0,5,0,,,,,,,,,,,,,,,,,,,,,,,,,,,,,,,,,,314.8514127000235,,312.75574929988943,312.75574929988943,312.75574929988943,312.75574929988943,old_fruit_34.png,6,5.0,2.0914259001147,,006,0,2024-09-19_14h01.28.508,Surprise recog test,2023.1.3,59.95858066005746,
6,0,6,0,,,,,,,,,,,,,,,,,,,,,,,,,,,,,,,,,,318.31608300004154,319.34309630002826,315.8878470999189,315.8878470999189,315.8878470999189,315.8878470999189,old_stationery_23.png,7,2.0,2.4288540000561625,,006,0,2024-09-19_14h01.28.508,Surprise recog test,2023.1.3,59.95858066005746,
7,0,7,0,,,,,,,,,,,,,,,,,,,,,,,,,,,,,,,,,,321.2736508999951,,319.34309630002826,319.34309630002826,319.34309630002826,319.34309630002826,old_sceneOut_46.png,8,5.0,1.93487189989537,,006,0,2024-09-19_14h01.28.508,Surprise recog test,2023.1.3,59.95858066005746,
8,0,8,0,,,,,,,,,,,,,,,,,,,,,,,,,,,,,,,,,,324.76637979992665,325.7941044000909,322.29638070007786,322.29638070007786,322.29638070007786,322.29638070007786,old_sceneIn_14.png,9,1.0,2.466265599941835,,006,0,2024-09-19_14h01.28.508,Surprise recog test,2023.1.3,59.95858066005746,
9,0,9,0,,,,,,,,,,,,,,,,,,,,,,,,,,,,,,,,,,327.7404738999903,328.7621315000579,325.7941044000909,325.7941044000909,325.7941044000909,325.7941044000909,old_stationery_10.png,10,1.0,1.9466428000014275,,006,0,2024-09-19_14h01.28.508,Surprise recog test,2023.1.3,59.95858066005746,
10,0,10,0,,,,,,,,,,,,,,,,,,,,,,,,,,,,,,,,,,331.3795097998809,332.3992991000414,328.7621315000579,328.7621315000579,328.7621315000579,328.7621315000579,old_sceneIn_9.png,11,3.0,2.6128444999922067,,006,0,2024-09-19_14h01.28.508,Surprise recog test,2023.1.3,59.95858066005746,
11,0,11,0,,,,,,,,,,,,,,,,,,,,,,,,,,,,,,,,,,334.41150899999775,335.4293478000909,332.3992991000414,332.3992991000414,332.3992991000414,332.3992991000414,new_stationery_7.png,12,5.0,2.012241199845448,,006,0,2024-09-19_14h01.28.508,Surprise recog test,2023.1.3,59.95858066005746,
12,0,12,0,,,,,,,,,,,,,,,,,,,,,,,,,,,,,,,,,,337.1638827000279,338.1812350999098,335.4293478000909,335.4293478000909,335.4293478000909,335.4293478000909,new_sceneIn_30.png,13,5.0,1.7338310999330133,,006,0,2024-09-19_14h01.28.508,Surprise recog test,2023.1.3,59.95858066005746,
13,0,13,0,,,,,,,,,,,,,,,,,,,,,,,,,,,,,,,,,,340.6111641000025,341.6413906000089,338.1812350999098,338.1812350999098,338.1812350999098,338.1812350999098,old_sceneOut_7.png,14,4.0,2.4245325000956655,,006,0,2024-09-19_14h01.28.508,Surprise recog test,2023.1.3,59.95858066005746,
14,0,14,0,,,,,,,,,,,,,,,,,,,,,,,,,,,,,,,,,,344.26049880008213,,341.6413906000089,341.6413906000089,341.6413906000089,341.6413906000089,new_fruit_13.png,15,4.0,2.621090899920091,,006,0,2024-09-19_14h01.28.508,Surprise recog test,2023.1.3,59.95858066005746,
15,0,15,0,,,,,,,,,,,,,,,,,,,,,,,,,,,,,,,,,,347.0883295000531,348.1101466000546,345.292767399922,345.292767399922,345.292767399922,345.292767399922,old_fruit_8.png,16,1.0,1.7939104000106454,,006,0,2024-09-19_14h01.28.508,Surprise recog test,2023.1.3,59.95858066005746,
16,0,16,0,,,,,,,,,,,,,,,,,,,,,,,,,,,,,,,,,,350.6154779000208,,348.1101466000546,348.1101466000546,348.1101466000546,348.1101466000546,old_fruit_30.png,17,5.0,2.5044226001482457,,006,0,2024-09-19_14h01.28.508,Surprise recog test,2023.1.3,59.95858066005746,
17,0,17,0,,,,,,,,,,,,,,,,,,,,,,,,,,,,,,,,,,353.05783710000105,354.0685693998821,351.6474619999062,351.6474619999062,351.6474619999062,351.6474619999062,old_stationery_18.png,18,1.0,1.4109910998959094,,006,0,2024-09-19_14h01.28.508,Surprise recog test,2023.1.3,59.95858066005746,
18,0,18,0,,,,,,,,,,,,,,,,,,,,,,,,,,,,,,,,,,356.73994569992647,357.7719914999325,354.0685693998821,354.0685693998821,354.0685693998821,354.0685693998821,new_fruit_50.png,19,3.0,2.6672372000757605,,006,0,2024-09-19_14h01.28.508,Surprise recog test,2023.1.3,59.95858066005746,
19,0,19,0,,,,,,,,,,,,,,,,,,,,,,,,,,,,,,,,,,359.2309671000112,360.2440112999175,357.7719914999325,357.7719914999325,357.7719914999325,357.7719914999325,new_stationery_32.png,20,5.0,1.4600833000149578,,006,0,2024-09-19_14h01.28.508,Surprise recog test,2023.1.3,59.95858066005746,
20,0,20,0,,,,,,,,,,,,,,,,,,,,,,,,,,,,,,,,,,362.58376200008206,363.60210329992697,360.2440112999175,360.2440112999175,360.2440112999175,360.2440112999175,new_stationery_46.png,21,5.0,2.3364983999636024,,006,0,2024-09-19_14h01.28.508,Surprise recog test,2023.1.3,59.95858066005746,
21,0,21,0,,,,,,,,,,,,,,,,,,,,,,,,,,,,,,,,,,366.26400469988585,367.2834693000186,363.60210329992697,363.60210329992697,363.60210329992697,363.60210329992697,new_sceneOut_7.png,22,2.0,2.662640199996531,,006,0,2024-09-19_14h01.28.508,Surprise recog test,2023.1.3,59.95858066005746,
22,0,22,0,,,,,,,,,,,,,,,,,,,,,,,,,,,,,,,,,,369.75156309991144,370.78061960008927,367.2834693000186,367.2834693000186,367.2834693000186,367.2834693000186,new_sceneIn_21.png,23,5.0,2.462925300002098,,006,0,2024-09-19_14h01.28.508,Surprise recog test,2023.1.3,59.95858066005746,
23,0,23,0,,,,,,,,,,,,,,,,,,,,,,,,,,,,,,,,,,372.89071960002184,373.9022142998874,370.78061960008927,370.78061960008927,370.78061960008927,370.78061960008927,old_stationery_41.png,24,5.0,2.111812900053337,,006,0,2024-09-19_14h01.28.508,Surprise recog test,2023.1.3,59.95858066005746,
24,0,24,0,,,,,,,,,,,,,,,,,,,,,,,,,,,,,,,,,,375.7970978000667,376.82209079992026,373.9022142998874,373.9022142998874,373.9022142998874,373.9022142998874,new_sceneOut_6.png,25,5.0,1.891012700041756,,006,0,2024-09-19_14h01.28.508,Surprise recog test,2023.1.3,59.95858066005746,
25,0,25,0,,,,,,,,,,,,,,,,,,,,,,,,,,,,,,,,,,378.2310448999051,379.2497264998965,376.82209079992026,376.82209079992026,376.82209079992026,376.82209079992026,new_sceneIn_29.png,26,5.0,1.4110231001395732,,006,0,2024-09-19_14h01.28.508,Surprise recog test,2023.1.3,59.95858066005746,
26,0,26,0,,,,,,,,,,,,,,,,,,,,,,,,,,,,,,,,,,380.74536009994335,381.77536670002155,379.2497264998965,379.2497264998965,379.2497264998965,379.2497264998965,old_sceneIn_28.png,27,5.0,1.4893804001621902,,006,0,2024-09-19_14h01.28.508,Surprise recog test,2023.1.3,59.95858066005746,
27,0,27,0,,,,,,,,,,,,,,,,,,,,,,,,,,,,,,,,,,382.99601550004445,384.02745410008356,381.77536670002155,381.77536670002155,381.77536670002155,381.77536670002155,old_sceneOut_21.png,28,5.0,1.2235449999570847,,006,0,2024-09-19_14h01.28.508,Surprise recog test,2023.1.3,59.95858066005746,
28,0,28,0,,,,,,,,,,,,,,,,,,,,,,,,,,,,,,,,,,386.6756060998887,387.69490509992465,384.02745410008356,384.02745410008356,384.02745410008356,384.02745410008356,new_sceneOut_2.png,29,5.0,2.649920399999246,,006,0,2024-09-19_14h01.28.508,Surprise recog test,2023.1.3,59.95858066005746,
29,0,29,0,,,,,,,,,,,,,,,,,,,,,,,,,,,,,,,,,,389.1283493998926,390.14785649999976,387.69490509992465,387.69490509992465,387.69490509992465,387.69490509992465,old_sceneOut_18.png,30,5.0,1.4357160998042673,,006,0,2024-09-19_14h01.28.508,Surprise recog test,2023.1.3,59.95858066005746,
30,0,30,0,,,,,,,,,,,,,,,,,,,,,,,,,,,,,,,,,,392.7683737000916,393.79975560004823,390.14785649999976,390.14785649999976,390.14785649999976,390.14785649999976,old_fruit_48.png,31,4.0,2.6204983999487013,,006,0,2024-09-19_14h01.28.508,Surprise recog test,2023.1.3,59.95858066005746,
31,0,31,0,,,,,,,,,,,,,,,,,,,,,,,,,,,,,,,,,,396.478786499938,397.5028512000572,393.79975560004823,393.79975560004823,393.79975560004823,393.79975560004823,new_fruit_9.png,32,3.0,2.67997289984487,,006,0,2024-09-19_14h01.28.508,Surprise recog test,2023.1.3,59.95858066005746,
32,0,32,0,,,,,,,,,,,,,,,,,,,,,,,,,,,,,,,,,,400.5443935999647,401.5747269000858,397.5028512000572,397.5028512000572,397.5028512000572,397.5028512000572,old_stationery_31.png,33,5.0,3.043703299947083,,006,0,2024-09-19_14h01.28.508,Surprise recog test,2023.1.3,59.95858066005746,
33,0,33,0,,,,,,,,,,,,,,,,,,,,,,,,,,,,,,,,,,404.4169969998766,405.4459214999806,401.5747269000858,401.5747269000858,401.5747269000858,401.5747269000858,new_stationery_4.png,34,5.0,2.8427690002135932,,006,0,2024-09-19_14h01.28.508,Surprise recog test,2023.1.3,59.95858066005746,
34,0,34,0,,,,,,,,,,,,,,,,,,,,,,,,,,,,,,,,,,406.88435619999655,407.91510169999674,405.4459214999806,405.4459214999806,405.4459214999806,405.4459214999806,old_sceneIn_36.png,35,5.0,1.442167199915275,,006,0,2024-09-19_14h01.28.508,Surprise recog test,2023.1.3,59.95858066005746,
35,0,35,0,,,,,,,,,,,,,,,,,,,,,,,,,,,,,,,,,,409.20838119997643,410.231220100075,407.91510169999674,407.91510169999674,407.91510169999674,407.91510169999674,new_sceneIn_1.png,36,5.0,1.2948443000204861,,006,0,2024-09-19_14h01.28.508,Surprise recog test,2023.1.3,59.95858066005746,
36,0,36,0,,,,,,,,,,,,,,,,,,,,,,,,,,,,,,,,,,412.16322169988416,413.1847188998945,410.231220100075,410.231220100075,410.231220100075,410.231220100075,new_stationery_29.png,37,5.0,1.9328983000013977,,006,0,2024-09-19_14h01.28.508,Surprise recog test,2023.1.3,59.95858066005746,
37,0,37,0,,,,,,,,,,,,,,,,,,,,,,,,,,,,,,,,,,414.4151212000288,415.4390424999874,413.1847188998945,413.1847188998945,413.1847188998945,413.1847188998945,new_fruit_43.png,38,5.0,1.2313309002202004,,006,0,2024-09-19_14h01.28.508,Surprise recog test,2023.1.3,59.95858066005746,
38,0,38,0,,,,,,,,,,,,,,,,,,,,,,,,,,,,,,,,,,417.12246960005723,418.15787329990417,415.4390424999874,415.4390424999874,415.4390424999874,415.4390424999874,old_fruit_12.png,39,1.0,1.6859619000460953,,006,0,2024-09-19_14h01.28.508,Surprise recog test,2023.1.3,59.95858066005746,
39,0,39,0,,,,,,,,,,,,,,,,,,,,,,,,,,,,,,,,,,420.53223789995536,421.55637690005824,418.15787329990417,418.15787329990417,418.15787329990417,418.15787329990417,old_stationery_37.png,40,2.0,2.3767377000767738,,006,0,2024-09-19_14h01.28.508,Surprise recog test,2023.1.3,59.95858066005746,
40,0,40,0,,,,,,,,,,,,,,,,,,,,,,,,,,,,,,,,,,423.8782937999349,424.8952440000139,421.55637690005824,421.55637690005824,421.55637690005824,421.55637690005824,old_sceneIn_26.png,41,5.0,2.3237142998259515,,006,0,2024-09-19_14h01.28.508,Surprise recog test,2023.1.3,59.95858066005746,
41,0,41,0,,,,,,,,,,,,,,,,,,,,,,,,,,,,,,,,,,427.30935969995335,428.3172738000285,424.8952440000139,424.8952440000139,424.8952440000139,424.8952440000139,old_fruit_25.png,42,4.0,2.4093685001134872,,006,0,2024-09-19_14h01.28.508,Surprise recog test,2023.1.3,59.95858066005746,
42,0,42,0,,,,,,,,,,,,,,,,,,,,,,,,,,,,,,,,,,429.6330855998676,430.6648426000029,428.3172738000285,428.3172738000285,428.3172738000285,428.3172738000285,old_stationery_2.png,43,1.0,1.3108808998949826,,006,0,2024-09-19_14h01.28.508,Surprise recog test,2023.1.3,59.95858066005746,
43,0,43,0,,,,,,,,,,,,,,,,,,,,,,,,,,,,,,,,,,432.01028449996375,433.0180589999072,430.6648426000029,430.6648426000029,430.6648426000029,430.6648426000029,new_sceneIn_22.png,44,5.0,1.3475385000929236,,006,0,2024-09-19_14h01.28.508,Surprise recog test,2023.1.3,59.95858066005746,
44,0,44,0,,,,,,,,,,,,,,,,,,,,,,,,,,,,,,,,,,434.6681309998967,,433.0180589999072,433.0180589999072,433.0180589999072,433.0180589999072,old_stationery_17.png,45,5.0,1.6443656999617815,,006,0,2024-09-19_14h01.28.508,Surprise recog test,2023.1.3,59.95858066005746,
45,0,45,0,,,,,,,,,,,,,,,,,,,,,,,,,,,,,,,,,,437.35696020000614,438.3754328000359,435.7008821000345,435.7008821000345,435.7008821000345,435.7008821000345,old_sceneIn_18.png,46,5.0,1.65792870009318,,006,0,2024-09-19_14h01.28.508,Surprise recog test,2023.1.3,59.95858066005746,
46,0,46,0,,,,,,,,,,,,,,,,,,,,,,,,,,,,,,,,,,441.75435369997285,442.77155869989656,438.3754328000359,438.3754328000359,438.3754328000359,438.3754328000359,new_fruit_30.png,47,4.0,3.3727551999036223,,006,0,2024-09-19_14h01.28.508,Surprise recog test,2023.1.3,59.95858066005746,
47,0,47,0,,,,,,,,,,,,,,,,,,,,,,,,,,,,,,,,,,445.57416120008565,446.5952550000511,442.77155869989656,442.77155869989656,442.77155869989656,442.77155869989656,new_fruit_23.png,48,2.0,2.796921700006351,,006,0,2024-09-19_14h01.28.508,Surprise recog test,2023.1.3,59.95858066005746,
48,0,48,0,,,,,,,,,,,,,,,,,,,,,,,,,,,,,,,,,,448.54668390005827,,446.5952550000511,446.5952550000511,446.5952550000511,446.5952550000511,old_fruit_29.png,49,4.0,1.9547158998902887,,006,0,2024-09-19_14h01.28.508,Surprise recog test,2023.1.3,59.95858066005746,
49,0,49,0,,,,,,,,,,,,,,,,,,,,,,,,,,,,,,,,,,452.24637200008146,453.26765850000083,449.583034100011,449.583034100011,449.583034100011,449.583034100011,new_sceneIn_47.png,50,5.0,2.6662693999242038,,006,0,2024-09-19_14h01.28.508,Surprise recog test,2023.1.3,59.95858066005746,
50,0,50,0,,,,,,,,,,,,,,,,,,,,,,,,,,,,,,,,,,455.32325799996033,456.3464629999362,453.26765850000083,453.26765850000083,453.26765850000083,453.26765850000083,old_stationery_42.png,51,1.0,2.0567387000191957,,006,0,2024-09-19_14h01.28.508,Surprise recog test,2023.1.3,59.95858066005746,
51,0,51,0,,,,,,,,,,,,,,,,,,,,,,,,,,,,,,,,,,459.05641130008735,,456.3464629999362,456.3464629999362,456.3464629999362,456.3464629999362,new_fruit_22.png,52,5.0,2.7095930001232773,,006,0,2024-09-19_14h01.28.508,Surprise recog test,2023.1.3,59.95858066005746,
52,0,52,0,,,,,,,,,,,,,,,,,,,,,,,,,,,,,,,,,,461.76292919996195,462.7852920999285,460.0885983000044,460.0885983000044,460.0885983000044,460.0885983000044,new_fruit_35.png,53,5.0,1.6748680998571217,,006,0,2024-09-19_14h01.28.508,Surprise recog test,2023.1.3,59.95858066005746,
53,0,53,0,,,,,,,,,,,,,,,,,,,,,,,,,,,,,,,,,,464.1256643999368,,462.7852920999285,462.7852920999285,462.7852920999285,462.7852920999285,new_fruit_29.png,54,5.0,1.3404415999539196,,006,0,2024-09-19_14h01.28.508,Surprise recog test,2023.1.3,59.95858066005746,
54,0,54,0,,,,,,,,,,,,,,,,,,,,,,,,,,,,,,,,,,467.7419020999223,468.7492237999104,465.1595644999761,465.1595644999761,465.1595644999761,465.1595644999761,new_fruit_15.png,55,4.0,2.582323099952191,,006,0,2024-09-19_14h01.28.508,Surprise recog test,2023.1.3,59.95858066005746,
55,0,55,0,,,,,,,,,,,,,,,,,,,,,,,,,,,,,,,,,,470.7495961000677,,468.7492237999104,468.7492237999104,468.7492237999104,468.7492237999104,new_stationery_50.png,56,5.0,1.9977728000376374,,006,0,2024-09-19_14h01.28.508,Surprise recog test,2023.1.3,59.95858066005746,
56,0,56,0,,,,,,,,,,,,,,,,,,,,,,,,,,,,,,,,,,473.31894090003334,474.3459129000548,471.781323999865,471.781323999865,471.781323999865,471.781323999865,new_stationery_8.png,57,5.0,1.5386284999549389,,006,0,2024-09-19_14h01.28.508,Surprise recog test,2023.1.3,59.95858066005746,
57,0,57,0,,,,,,,,,,,,,,,,,,,,,,,,,,,,,,,,,,475.62918499996886,476.641941400012,474.3459129000548,474.3459129000548,474.3459129000548,474.3459129000548,new_sceneOut_11.png,58,5.0,1.2843029000796378,,006,0,2024-09-19_14h01.28.508,Surprise recog test,2023.1.3,59.95858066005746,
58,0,58,0,,,,,,,,,,,,,,,,,,,,,,,,,,,,,,,,,,477.88301340001635,478.89303470007144,476.641941400012,476.641941400012,476.641941400012,476.641941400012,old_sceneOut_8.png,59,5.0,1.239764800062403,,006,0,2024-09-19_14h01.28.508,Surprise recog test,2023.1.3,59.95858066005746,
59,0,59,0,,,,,,,,,,,,,,,,,,,,,,,,,,,,,,,,,,480.6412261000369,481.67808889993466,478.89303470007144,478.89303470007144,478.89303470007144,478.89303470007144,new_sceneOut_31.png,60,5.0,1.7431332999840379,,006,0,2024-09-19_14h01.28.508,Surprise recog test,2023.1.3,59.95858066005746,
60,0,60,0,,,,,,,,,,,,,,,,,,,,,,,,,,,,,,,,,,483.6899387999438,484.7098199999891,481.67808889993466,481.67808889993466,481.67808889993466,481.67808889993466,new_stationery_42.png,61,5.0,2.0142441999632865,,006,0,2024-09-19_14h01.28.508,Surprise recog test,2023.1.3,59.95858066005746,
61,0,61,0,,,,,,,,,,,,,,,,,,,,,,,,,,,,,,,,,,486.35798879992217,487.3664368998725,484.7098199999891,484.7098199999891,484.7098199999891,484.7098199999891,new_stationery_9.png,62,5.0,1.6468156001064926,,006,0,2024-09-19_14h01.28.508,Surprise recog test,2023.1.3,59.95858066005746,
62,0,62,0,,,,,,,,,,,,,,,,,,,,,,,,,,,,,,,,,,489.464681699872,,487.3664368998725,487.3664368998725,487.3664368998725,487.3664368998725,new_fruit_6.png,63,5.0,2.0905756999272853,,006,0,2024-09-19_14h01.28.508,Surprise recog test,2023.1.3,59.95858066005746,
63,0,63,0,,,,,,,,,,,,,,,,,,,,,,,,,,,,,,,,,,493.51690909988247,,490.49502360005863,490.49502360005863,490.49502360005863,490.49502360005863,old_sceneOut_31.png,64,5.0,3.02348620002158,,006,0,2024-09-19_14h01.28.508,Surprise recog test,2023.1.3,59.95858066005746,
64,0,64,0,,,,,,,,,,,,,,,,,,,,,,,,,,,,,,,,,,496.20370159996673,,494.54990400001407,494.54990400001407,494.54990400001407,494.54990400001407,old_fruit_39.png,65,5.0,1.6531993001699448,,006,0,2024-09-19_14h01.28.508,Surprise recog test,2023.1.3,59.95858066005746,
65,0,65,0,,,,,,,,,,,,,,,,,,,,,,,,,,,,,,,,,,498.4536365000531,,497.2310699999798,497.2310699999798,497.2310699999798,497.2310699999798,new_sceneIn_43.png,66,5.0,1.223184600006789,,006,0,2024-09-19_14h01.28.508,Surprise recog test,2023.1.3,59.95858066005746,
66,0,66,0,,,,,,,,,,,,,,,,,,,,,,,,,,,,,,,,,,501.91538790008053,502.93951330007985,499.4878060000483,499.4878060000483,499.4878060000483,499.4878060000483,new_stationery_2.png,67,1.0,2.4294078000821173,,006,0,2024-09-19_14h01.28.508,Surprise recog test,2023.1.3,59.95858066005746,
67,0,67,0,,,,,,,,,,,,,,,,,,,,,,,,,,,,,,,,,,504.7066889000125,505.7150997999124,502.93951330007985,502.93951330007985,502.93951330007985,502.93951330007985,old_stationery_25.png,68,1.0,1.7690141999628395,,006,0,2024-09-19_14h01.28.508,Surprise recog test,2023.1.3,59.95858066005746,
68,0,68,0,,,,,,,,,,,,,,,,,,,,,,,,,,,,,,,,,,507.56680759997107,508.58496659994125,505.7150997999124,505.7150997999124,505.7150997999124,505.7150997999124,new_sceneOut_12.png,69,5.0,1.8458440001122653,,006,0,2024-09-19_14h01.28.508,Surprise recog test,2023.1.3,59.95858066005746,
69,0,69,0,,,,,,,,,,,,,,,,,,,,,,,,,,,,,,,,,,511.7264902999159,512.7463380000554,508.58496659994125,508.58496659994125,508.58496659994125,508.58496659994125,old_fruit_4.png,70,4.0,3.1374519001692533,,006,0,2024-09-19_14h01.28.508,Surprise recog test,2023.1.3,59.95858066005746,
70,0,70,0,,,,,,,,,,,,,,,,,,,,,,,,,,,,,,,,,,514.529828599887,515.5393880000338,512.7463380000554,512.7463380000554,512.7463380000554,512.7463380000554,old_stationery_49.png,71,1.0,1.7840323001146317,,006,0,2024-09-19_14h01.28.508,Surprise recog test,2023.1.3,59.95858066005746,
71,0,71,0,,,,,,,,,,,,,,,,,,,,,,,,,,,,,,,,,,517.9039874998853,,515.5393880000338,515.5393880000338,515.5393880000338,515.5393880000338,old_sceneIn_8.png,72,5.0,2.360855400096625,,006,0,2024-09-19_14h01.28.508,Surprise recog test,2023.1.3,59.95858066005746,
72,0,72,0,,,,,,,,,,,,,,,,,,,,,,,,,,,,,,,,,,520.4346644000616,521.4514482000377,518.9319074999075,518.9319074999075,518.9319074999075,518.9319074999075,old_stationery_38.png,73,1.0,1.503456800011918,,006,0,2024-09-19_14h01.28.508,Surprise recog test,2023.1.3,59.95858066005746,
73,0,73,0,,,,,,,,,,,,,,,,,,,,,,,,,,,,,,,,,,523.0910257999785,,521.4514482000377,521.4514482000377,521.4514482000377,521.4514482000377,old_sceneIn_10.png,74,5.0,1.6411109000910074,,006,0,2024-09-19_14h01.28.508,Surprise recog test,2023.1.3,59.95858066005746,
74,0,74,0,,,,,,,,,,,,,,,,,,,,,,,,,,,,,,,,,,525.379742299905,526.4141058998648,524.1262459000573,524.1262459000573,524.1262459000573,524.1262459000573,new_sceneIn_13.png,75,5.0,1.2534119000192732,,006,0,2024-09-19_14h01.28.508,Surprise recog test,2023.1.3,59.95858066005746,
75,0,75,0,,,,,,,,,,,,,,,,,,,,,,,,,,,,,,,,,,527.5985000999644,528.6281512998976,526.4141058998648,526.4141058998648,526.4141058998648,526.4141058998648,old_stationery_40.png,76,1.0,1.1891067998949438,,006,0,2024-09-19_14h01.28.508,Surprise recog test,2023.1.3,59.95858066005746,
76,0,76,0,,,,,,,,,,,,,,,,,,,,,,,,,,,,,,,,,,531.7223046000581,532.7378650999162,528.6281512998976,528.6281512998976,528.6281512998976,528.6281512998976,new_fruit_41.png,77,4.0,3.0962274000048637,,006,0,2024-09-19_14h01.28.508,Surprise recog test,2023.1.3,59.95858066005746,
77,0,77,0,,,,,,,,,,,,,,,,,,,,,,,,,,,,,,,,,,534.314361399971,535.3277358999476,532.7378650999162,532.7378650999162,532.7378650999162,532.7378650999162,new_sceneIn_16.png,78,5.0,1.5722429000306875,,006,0,2024-09-19_14h01.28.508,Surprise recog test,2023.1.3,59.95858066005746,
78,0,78,0,,,,,,,,,,,,,,,,,,,,,,,,,,,,,,,,,,536.8739006000105,537.9033055999316,535.3277358999476,535.3277358999476,535.3277358999476,535.3277358999476,old_sceneOut_17.png,79,5.0,1.5457037000451237,,006,0,2024-09-19_14h01.28.508,Surprise recog test,2023.1.3,59.95858066005746,
79,0,79,0,,,,,,,,,,,,,,,,,,,,,,,,,,,,,,,,,,539.9540866999887,540.972072500037,537.9033055999316,537.9033055999316,537.9033055999316,537.9033055999316,new_stationery_27.png,80,5.0,2.0506282998248935,,006,0,2024-09-19_14h01.28.508,Surprise recog test,2023.1.3,59.95858066005746,
80,0,80,0,,,,,,,,,,,,,,,,,,,,,,,,,,,,,,,,,,542.3728018000256,543.3936677998863,540.972072500037,540.972072500037,540.972072500037,540.972072500037,new_sceneOut_23.png,81,5.0,1.401143099879846,,006,0,2024-09-19_14h01.28.508,Surprise recog test,2023.1.3,59.95858066005746,
81,0,81,0,,,,,,,,,,,,,,,,,,,,,,,,,,,,,,,,,,544.9414639000315,545.9551098998636,543.3936677998863,543.3936677998863,543.3936677998863,543.3936677998863,new_sceneOut_9.png,82,5.0,1.5507688000798225,,006,0,2024-09-19_14h01.28.508,Surprise recog test,2023.1.3,59.95858066005746,
82,0,82,0,,,,,,,,,,,,,,,,,,,,,,,,,,,,,,,,,,547.3092898000032,548.329455900006,545.9551098998636,545.9551098998636,545.9551098998636,545.9551098998636,new_sceneIn_8.png,83,5.0,1.352970799896866,,006,0,2024-09-19_14h01.28.508,Surprise recog test,2023.1.3,59.95858066005746,
83,0,83,0,,,,,,,,,,,,,,,,,,,,,,,,,,,,,,,,,,551.1401138999499,552.1734660000075,548.329455900006,548.329455900006,548.329455900006,548.329455900006,new_fruit_33.png,84,5.0,2.8124949999619275,,006,0,2024-09-19_14h01.28.508,Surprise recog test,2023.1.3,59.95858066005746,
84,0,84,0,,,,,,,,,,,,,,,,,,,,,,,,,,,,,,,,,,555.4258113999385,556.4532916999888,552.1734660000075,552.1734660000075,552.1734660000075,552.1734660000075,new_stationery_3.png,85,3.0,3.2569244999904186,,006,0,2024-09-19_14h01.28.508,Surprise recog test,2023.1.3,59.95858066005746,
85,0,85,0,,,,,,,,,,,,,,,,,,,,,,,,,,,,,,,,,,558.4679330999497,559.4754776998889,556.4532916999888,556.4532916999888,556.4532916999888,556.4532916999888,old_sceneOut_48.png,86,5.0,2.012251100037247,,006,0,2024-09-19_14h01.28.508,Surprise recog test,2023.1.3,59.95858066005746,
86,0,86,0,,,,,,,,,,,,,,,,,,,,,,,,,,,,,,,,,,561.6432648999617,562.6736393000465,559.4754776998889,559.4754776998889,559.4754776998889,559.4754776998889,new_fruit_40.png,87,5.0,2.1595560999121517,,006,0,2024-09-19_14h01.28.508,Surprise recog test,2023.1.3,59.95858066005746,
87,0,87,0,,,,,,,,,,,,,,,,,,,,,,,,,,,,,,,,,,564.3298337999731,565.3497520999517,562.6736393000465,562.6736393000465,562.6736393000465,562.6736393000465,new_sceneIn_31.png,88,5.0,1.655924600083381,,006,0,2024-09-19_14h01.28.508,Surprise recog test,2023.1.3,59.95858066005746,
88,0,88,0,,,,,,,,,,,,,,,,,,,,,,,,,,,,,,,,,,566.7908834000118,567.8086852000561,565.3497520999517,565.3497520999517,565.3497520999517,565.3497520999517,old_sceneOut_9.png,89,5.0,1.4363067999947816,,006,0,2024-09-19_14h01.28.508,Surprise recog test,2023.1.3,59.95858066005746,
89,0,89,0,,,,,,,,,,,,,,,,,,,,,,,,,,,,,,,,,,570.2371614999138,571.2591198000591,567.8086852000561,567.8086852000561,567.8086852000561,567.8086852000561,new_sceneIn_33.png,90,5.0,2.4272787999361753,,006,0,2024-09-19_14h01.28.508,Surprise recog test,2023.1.3,59.95858066005746,
90,0,90,0,,,,,,,,,,,,,,,,,,,,,,,,,,,,,,,,,,572.5128770999145,573.5341066999827,571.2591198000591,571.2591198000591,571.2591198000591,571.2591198000591,old_sceneIn_20.png,91,5.0,1.2489569999743253,,006,0,2024-09-19_14h01.28.508,Surprise recog test,2023.1.3,59.95858066005746,
91,0,91,0,,,,,,,,,,,,,,,,,,,,,,,,,,,,,,,,,,574.374613400083,575.3979750999715,573.5341066999827,573.5341066999827,573.5341066999827,573.5341066999827,new_sceneOut_35.png,92,5.0,0.8430540000554174,,006,0,2024-09-19_14h01.28.508,Surprise recog test,2023.1.3,59.95858066005746,
92,0,92,0,,,,,,,,,,,,,,,,,,,,,,,,,,,,,,,,,,576.347188899992,577.3652446998749,575.3979750999715,575.3979750999715,575.3979750999715,575.3979750999715,new_sceneIn_25.png,93,5.0,0.950239900033921,,006,0,2024-09-19_14h01.28.508,Surprise recog test,2023.1.3,59.95858066005746,
93,0,93,0,,,,,,,,,,,,,,,,,,,,,,,,,,,,,,,,,,578.3405031999573,579.3657072000206,577.3652446998749,577.3652446998749,577.3652446998749,577.3652446998749,old_sceneIn_38.png,94,5.0,0.9776975999120623,,006,0,2024-09-19_14h01.28.508,Surprise recog test,2023.1.3,59.95858066005746,
94,0,94,0,,,,,,,,,,,,,,,,,,,,,,,,,,,,,,,,,,581.0618753999006,582.0777157000266,579.3657072000206,579.3657072000206,579.3657072000206,579.3657072000206,new_sceneIn_28.png,95,5.0,1.6951019000262022,,006,0,2024-09-19_14h01.28.508,Surprise recog test,2023.1.3,59.95858066005746,
95,0,95,0,,,,,,,,,,,,,,,,,,,,,,,,,,,,,,,,,,583.0420695999637,,582.0777157000266,582.0777157000266,582.0777157000266,582.0777157000266,new_sceneIn_2.png,96,5.0,0.9636148000136018,,006,0,2024-09-19_14h01.28.508,Surprise recog test,2023.1.3,59.95858066005746,
96,0,96,0,,,,,,,,,,,,,,,,,,,,,,,,,,,,,,,,,,587.2771618000697,588.2990625000093,584.0765931999777,584.0765931999777,584.0765931999777,584.0765931999777,old_fruit_35.png,97,3.0,3.202151999808848,,006,0,2024-09-19_14h01.28.508,Surprise recog test,2023.1.3,59.95858066005746,
97,0,97,0,,,,,,,,,,,,,,,,,,,,,,,,,,,,,,,,,,591.6235958000179,592.633575099986,588.2990625000093,588.2990625000093,588.2990625000093,588.2990625000093,new_stationery_30.png,98,2.0,3.328274100087583,,006,0,2024-09-19_14h01.28.508,Surprise recog test,2023.1.3,59.95858066005746,
98,0,98,0,,,,,,,,,,,,,,,,,,,,,,,,,,,,,,,,,,594.1036745000165,595.1232153999154,592.633575099986,592.633575099986,592.633575099986,592.633575099986,old_stationery_39.png,99,1.0,1.464541600085795,,006,0,2024-09-19_14h01.28.508,Surprise recog test,2023.1.3,59.95858066005746,
99,0,99,0,,,,,,,,,,,,,,,,,,,,,,,,,,,,,,,,,,596.8559721000493,597.8716901000589,595.1232153999154,595.1232153999154,595.1232153999154,595.1232153999154,old_sceneOut_14.png,100,5.0,1.7282571999821812,,006,0,2024-09-19_14h01.28.508,Surprise recog test,2023.1.3,59.95858066005746,
100,0,100,0,,,,,,,,,,,,,,,,,,,,,,,,,,,,,,,,,,601.1241254000925,,597.8716901000589,597.8716901000589,597.8716901000589,597.8716901000589,new_fruit_32.png,101,4.0,3.2496066000312567,,006,0,2024-09-19_14h01.28.508,Surprise recog test,2023.1.3,59.95858066005746,
101,0,101,0,,,,,,,,,,,,,,,,,,,,,,,,,,,,,,,,,,604.4969573998824,605.5106454000343,602.1584391999058,602.1584391999058,602.1584391999058,602.1584391999058,new_sceneIn_11.png,102,5.0,2.3415671999100596,,006,0,2024-09-19_14h01.28.508,Surprise recog test,2023.1.3,59.95858066005746,
102,0,102,0,,,,,,,,,,,,,,,,,,,,,,,,,,,,,,,,,,608.4996487998869,609.5141884998884,605.5106454000343,605.5106454000343,605.5106454000343,605.5106454000343,new_fruit_21.png,103,4.0,2.9850667000282556,,006,0,2024-09-19_14h01.28.508,Surprise recog test,2023.1.3,59.95858066005746,
103,0,103,0,,,,,,,,,,,,,,,,,,,,,,,,,,,,,,,,,,612.3875172999687,613.4068543000612,609.5141884998884,609.5141884998884,609.5141884998884,609.5141884998884,old_sceneIn_34.png,104,5.0,2.867783399997279,,006,0,2024-09-19_14h01.28.508,Surprise recog test,2023.1.3,59.95858066005746,
104,0,104,0,,,,,,,,,,,,,,,,,,,,,,,,,,,,,,,,,,614.704524199944,615.7339149999898,613.4068543000612,613.4068543000612,613.4068543000612,613.4068543000612,old_stationery_34.png,105,1.0,1.2927017000038177,,006,0,2024-09-19_14h01.28.508,Surprise recog test,2023.1.3,59.95858066005746,
105,0,105,0,,,,,,,,,,,,,,,,,,,,,,,,,,,,,,,,,,618.1464879999403,619.1716070999391,615.7339149999898,615.7339149999898,615.7339149999898,615.7339149999898,old_sceneOut_5.png,106,5.0,2.4148244000971317,,006,0,2024-09-19_14h01.28.508,Surprise recog test,2023.1.3,59.95858066005746,
106,0,106,0,,,,,,,,,,,,,,,,,,,,,,,,,,,,,,,,,,621.271444400074,622.2894943999127,619.1716070999391,619.1716070999391,619.1716070999391,619.1716070999391,old_fruit_11.png,107,1.0,2.102423000149429,,006,0,2024-09-19_14h01.28.508,Surprise recog test,2023.1.3,59.95858066005746,
107,0,107,0,,,,,,,,,,,,,,,,,,,,,,,,,,,,,,,,,,624.2856127999257,625.3112880000845,622.2894943999127,622.2894943999127,622.2894943999127,622.2894943999127,old_sceneOut_2.png,108,5.0,1.9958191001787782,,006,0,2024-09-19_14h01.28.508,Surprise recog test,2023.1.3,59.95858066005746,
108,0,108,0,,,,,,,,,,,,,,,,,,,,,,,,,,,,,,,,,,626.9323628998827,627.9628550999332,625.3112880000845,625.3112880000845,625.3112880000845,625.3112880000845,old_fruit_50.png,109,1.0,1.6232249999884516,,006,0,2024-09-19_14h01.28.508,Surprise recog test,2023.1.3,59.95858066005746,
109,0,109,0,,,,,,,,,,,,,,,,,,,,,,,,,,,,,,,,,,629.1070499999914,630.1326617000159,627.9628550999332,627.9628550999332,627.9628550999332,627.9628550999332,new_sceneIn_38.png,110,5.0,1.1465980999637395,,006,0,2024-09-19_14h01.28.508,Surprise recog test,2023.1.3,59.95858066005746,
110,0,110,0,,,,,,,,,,,,,,,,,,,,,,,,,,,,,,,,,,633.1553342000116,634.1821486998815,630.1326617000159,630.1326617000159,630.1326617000159,630.1326617000159,old_fruit_10.png,111,4.0,3.0263501000590622,,006,0,2024-09-19_14h01.28.508,Surprise recog test,2023.1.3,59.95858066005746,
111,0,111,0,,,,,,,,,,,,,,,,,,,,,,,,,,,,,,,,,,636.2372922999784,637.2690353998914,634.1821486998815,634.1821486998815,634.1821486998815,634.1821486998815,old_fruit_18.png,112,5.0,2.056386499898508,,006,0,2024-09-19_14h01.28.508,Surprise recog test,2023.1.3,59.95858066005746,
112,0,112,0,,,,,,,,,,,,,,,,,,,,,,,,,,,,,,,,,,637.9973079999909,639.0052622999065,637.2690353998914,637.2690353998914,637.2690353998914,637.2690353998914,new_sceneIn_27.png,113,5.0,0.7301511000841856,,006,0,2024-09-19_14h01.28.508,Surprise recog test,2023.1.3,59.95858066005746,
113,0,113,0,,,,,,,,,,,,,,,,,,,,,,,,,,,,,,,,,,639.7033688998781,640.7149696999695,639.0052622999065,639.0052622999065,639.0052622999065,639.0052622999065,old_sceneOut_44.png,114,5.0,0.6917371000163257,,006,0,2024-09-19_14h01.28.508,Surprise recog test,2023.1.3,59.95858066005746,
114,0,114,0,,,,,,,,,,,,,,,,,,,,,,,,,,,,,,,,,,642.6346857000608,643.6422492999118,640.7149696999695,640.7149696999695,640.7149696999695,640.7149696999695,old_sceneIn_7.png,115,5.0,1.918230399955064,,006,0,2024-09-19_14h01.28.508,Surprise recog test,2023.1.3,59.95858066005746,
115,0,115,0,,,,,,,,,,,,,,,,,,,,,,,,,,,,,,,,,,646.5617255999241,,643.6422492999118,643.6422492999118,643.6422492999118,643.6422492999118,new_sceneOut_43.png,116,5.0,2.9154352000914514,,006,0,2024-09-19_14h01.28.508,Surprise recog test,2023.1.3,59.95858066005746,
116,0,116,0,,,,,,,,,,,,,,,,,,,,,,,,,,,,,,,,,,648.768957399996,649.7980476000812,647.5951499000657,647.5951499000657,647.5951499000657,647.5951499000657,old_fruit_9.png,117,5.0,1.1756311000790447,,006,0,2024-09-19_14h01.28.508,Surprise recog test,2023.1.3,59.95858066005746,
117,0,117,0,,,,,,,,,,,,,,,,,,,,,,,,,,,,,,,,,,653.2623149000574,654.2910791998729,649.7980476000812,649.7980476000812,649.7980476000812,649.7980476000812,new_stationery_13.png,118,3.0,3.4667591999750584,,006,0,2024-09-19_14h01.28.508,Surprise recog test,2023.1.3,59.95858066005746,
118,0,118,0,,,,,,,,,,,,,,,,,,,,,,,,,,,,,,,,,,657.3041753999423,658.3236475000158,654.2910791998729,654.2910791998729,654.2910791998729,654.2910791998729,new_stationery_1.png,119,4.0,3.0133899999782443,,006,0,2024-09-19_14h01.28.508,Surprise recog test,2023.1.3,59.95858066005746,
119,0,119,0,,,,,,,,,,,,,,,,,,,,,,,,,,,,,,,,,,659.7861251998693,660.8038703000639,658.3236475000158,658.3236475000158,658.3236475000158,658.3236475000158,new_sceneOut_28.png,120,5.0,1.4583711999002844,,006,0,2024-09-19_14h01.28.508,Surprise recog test,2023.1.3,59.95858066005746,
120,0,120,0,,,,,,,,,,,,,,,,,,,,,,,,,,,,,,,,,,661.6927485999186,662.7239502000157,660.8038703000639,660.8038703000639,660.8038703000639,660.8038703000639,old_sceneOut_42.png,121,5.0,0.8907701999414712,,006,0,2024-09-19_14h01.28.508,Surprise recog test,2023.1.3,59.95858066005746,
121,0,121,0,,,,,,,,,,,,,,,,,,,,,,,,,,,,,,,,,,664.5996210000012,665.612572300015,662.7239502000157,662.7239502000157,662.7239502000157,662.7239502000157,new_stationery_49.png,122,5.0,1.8780652000568807,,006,0,2024-09-19_14h01.28.508,Surprise recog test,2023.1.3,59.95858066005746,
122,0,122,0,,,,,,,,,,,,,,,,,,,,,,,,,,,,,,,,,,666.3691270998679,667.3924835999496,665.612572300015,665.612572300015,665.612572300015,665.612572300015,old_sceneOut_38.png,123,5.0,0.7530569001100957,,006,0,2024-09-19_14h01.28.508,Surprise recog test,2023.1.3,59.95858066005746,
123,0,123,0,,,,,,,,,,,,,,,,,,,,,,,,,,,,,,,,,,668.8925954999868,669.910932000028,667.3924835999496,667.3924835999496,667.3924835999496,667.3924835999496,new_sceneIn_46.png,124,5.0,1.5011078999377787,,006,0,2024-09-19_14h01.28.508,Surprise recog test,2023.1.3,59.95858066005746,
124,0,124,0,,,,,,,,,,,,,,,,,,,,,,,,,,,,,,,,,,670.7443434998859,671.7659503000323,669.910932000028,669.910932000028,669.910932000028,669.910932000028,old_sceneIn_49.png,125,5.0,0.8340690000914037,,006,0,2024-09-19_14h01.28.508,Surprise recog test,2023.1.3,59.95858066005746,
125,0,125,0,,,,,,,,,,,,,,,,,,,,,,,,,,,,,,,,,,673.7956858999096,674.8209643000737,671.7659503000323,671.7659503000323,671.7659503000323,671.7659503000323,new_sceneIn_35.png,126,5.0,2.0322160001378506,,006,0,2024-09-19_14h01.28.508,Surprise recog test,2023.1.3,59.95858066005746,
126,0,126,0,,,,,,,,,,,,,,,,,,,,,,,,,,,,,,,,,,675.7818481998984,676.8009802999441,674.8209643000737,674.8209643000737,674.8209643000737,674.8209643000737,old_sceneOut_1.png,127,5.0,0.9593964000232518,,006,0,2024-09-19_14h01.28.508,Surprise recog test,2023.1.3,59.95858066005746,
127,0,127,0,,,,,,,,,,,,,,,,,,,,,,,,,,,,,,,,,,679.5931738000363,680.6175345999654,676.8009802999441,676.8009802999441,676.8009802999441,676.8009802999441,new_sceneIn_7.png,128,5.0,2.793915699934587,,006,0,2024-09-19_14h01.28.508,Surprise recog test,2023.1.3,59.95858066005746,
128,0,128,0,,,,,,,,,,,,,,,,,,,,,,,,,,,,,,,,,,682.4124674999621,683.4375857000705,680.6175345999654,680.6175345999654,680.6175345999654,680.6175345999654,new_sceneIn_3.png,129,5.0,1.7952590000350028,,006,0,2024-09-19_14h01.28.508,Surprise recog test,2023.1.3,59.95858066005746,
129,0,129,0,,,,,,,,,,,,,,,,,,,,,,,,,,,,,,,,,,685.3876704000868,686.4022246999666,683.4375857000705,683.4375857000705,683.4375857000705,683.4375857000705,old_sceneOut_41.png,130,5.0,1.9523235999513417,,006,0,2024-09-19_14h01.28.508,Surprise recog test,2023.1.3,59.95858066005746,
130,0,130,0,,,,,,,,,,,,,,,,,,,,,,,,,,,,,,,,,,689.3964434999507,,686.4022246999666,686.4022246999666,686.4022246999666,686.4022246999666,new_stationery_26.png,131,5.0,2.9919863999821246,,006,0,2024-09-19_14h01.28.508,Surprise recog test,2023.1.3,59.95858066005746,
131,0,131,0,,,,,,,,,,,,,,,,,,,,,,,,,,,,,,,,,,691.7404873999767,692.7541676000692,690.4362909998745,690.4362909998745,690.4362909998745,690.4362909998745,new_sceneOut_30.png,132,5.0,1.3057687000837177,,006,0,2024-09-19_14h01.28.508,Surprise recog test,2023.1.3,59.95858066005746,
132,0,132,0,,,,,,,,,,,,,,,,,,,,,,,,,,,,,,,,,,694.0609426000156,695.0722521999851,692.7541676000692,692.7541676000692,692.7541676000692,692.7541676000692,new_sceneIn_20.png,133,5.0,1.3005003000143915,,006,0,2024-09-19_14h01.28.508,Surprise recog test,2023.1.3,59.95858066005746,
133,0,133,0,,,,,,,,,,,,,,,,,,,,,,,,,,,,,,,,,,696.7691466000397,,695.0722521999851,695.0722521999851,695.0722521999851,695.0722521999851,old_sceneOut_39.png,134,5.0,1.6889979001134634,,006,0,2024-09-19_14h01.28.508,Surprise recog test,2023.1.3,59.95858066005746,
134,0,134,0,,,,,,,,,,,,,,,,,,,,,,,,,,,,,,,,,,701.1840864000842,702.2058117999695,697.8043792999815,697.8043792999815,697.8043792999815,697.8043792999815,new_stationery_48.png,135,3.0,3.383026299998164,,006,0,2024-09-19_14h01.28.508,Surprise recog test,2023.1.3,59.95858066005746,
135,0,135,0,,,,,,,,,,,,,,,,,,,,,,,,,,,,,,,,,,703.6939050999936,704.727210199926,702.2058117999695,702.2058117999695,702.2058117999695,702.2058117999695,old_stationery_27.png,136,1.0,1.4909014999866486,,006,0,2024-09-19_14h01.28.508,Surprise recog test,2023.1.3,59.95858066005746,
136,0,136,0,,,,,,,,,,,,,,,,,,,,,,,,,,,,,,,,,,706.8818995999172,707.9129848999437,704.727210199926,704.727210199926,704.727210199926,704.727210199926,new_fruit_38.png,137,4.0,2.1572104999795556,,006,0,2024-09-19_14h01.28.508,Surprise recog test,2023.1.3,59.95858066005746,
137,0,137,0,,,,,,,,,,,,,,,,,,,,,,,,,,,,,,,,,,709.4280081999023,710.4352998000104,707.9129848999437,707.9129848999437,707.9129848999437,707.9129848999437,new_fruit_47.png,138,5.0,1.5176323000341654,,006,0,2024-09-19_14h01.28.508,Surprise recog test,2023.1.3,59.95858066005746,
138,0,138,0,,,,,,,,,,,,,,,,,,,,,,,,,,,,,,,,,,711.6917985999025,712.7043178000022,710.4352998000104,710.4352998000104,710.4352998000104,710.4352998000104,old_sceneIn_39.png,139,5.0,1.2503430999349803,,006,0,2024-09-19_14h01.28.508,Surprise recog test,2023.1.3,59.95858066005746,
139,0,139,0,,,,,,,,,,,,,,,,,,,,,,,,,,,,,,,,,,716.1004099999554,717.1177071998827,712.7043178000022,712.7043178000022,712.7043178000022,712.7043178000022,new_stationery_12.png,140,3.0,3.387828800128773,,006,0,2024-09-19_14h01.28.508,Surprise recog test,2023.1.3,59.95858066005746,
140,0,140,0,,,,,,,,,,,,,,,,,,,,,,,,,,,,,,,,,,720.2005338000599,721.2221565998625,717.1177071998827,717.1177071998827,717.1177071998827,717.1177071998827,new_stationery_38.png,141,3.0,3.0843450999818742,,006,0,2024-09-19_14h01.28.508,Surprise recog test,2023.1.3,59.95858066005746,
141,0,141,0,,,,,,,,,,,,,,,,,,,,,,,,,,,,,,,,,,723.411141499877,724.4263571999036,721.2221565998625,721.2221565998625,721.2221565998625,721.2221565998625,new_sceneOut_36.png,142,5.0,2.190269600134343,,006,0,2024-09-19_14h01.28.508,Surprise recog test,2023.1.3,59.95858066005746,
142,0,142,0,,,,,,,,,,,,,,,,,,,,,,,,,,,,,,,,,,725.7903207999188,726.7992217000574,724.4263571999036,724.4263571999036,724.4263571999036,724.4263571999036,new_sceneIn_14.png,143,5.0,1.3596298000775278,,006,0,2024-09-19_14h01.28.508,Surprise recog test,2023.1.3,59.95858066005746,
143,0,143,0,,,,,,,,,,,,,,,,,,,,,,,,,,,,,,,,,,728.0204886998981,729.0332231998909,726.7992217000574,726.7992217000574,726.7992217000574,726.7992217000574,new_sceneIn_19.png,144,5.0,1.217841199832037,,006,0,2024-09-19_14h01.28.508,Surprise recog test,2023.1.3,59.95858066005746,
144,0,144,0,,,,,,,,,,,,,,,,,,,,,,,,,,,,,,,,,,729.767268900061,730.7983218000736,729.0332231998909,729.0332231998909,729.0332231998909,729.0332231998909,old_sceneOut_47.png,145,5.0,0.732522200094536,,006,0,2024-09-19_14h01.28.508,Surprise recog test,2023.1.3,59.95858066005746,
145,0,145,0,,,,,,,,,,,,,,,,,,,,,,,,,,,,,,,,,,732.9353249000851,733.9686169000342,730.7983218000736,730.7983218000736,730.7983218000736,730.7983218000736,old_sceneOut_40.png,146,5.0,2.139558999799192,,006,0,2024-09-19_14h01.28.508,Surprise recog test,2023.1.3,59.95858066005746,
146,0,146,0,,,,,,,,,,,,,,,,,,,,,,,,,,,,,,,,,,736.5319701000117,737.554100099951,733.9686169000342,733.9686169000342,733.9686169000342,733.9686169000342,new_stationery_22.png,147,1.0,2.5650810000952333,,006,0,2024-09-19_14h01.28.508,Surprise recog test,2023.1.3,59.95858066005746,
147,0,147,0,,,,,,,,,,,,,,,,,,,,,,,,,,,,,,,,,,739.6490229999181,740.6690354999155,737.554100099951,737.554100099951,737.554100099951,737.554100099951,new_stationery_5.png,148,4.0,2.09717069985345,,006,0,2024-09-19_14h01.28.508,Surprise recog test,2023.1.3,59.95858066005746,
148,0,148,0,,,,,,,,,,,,,,,,,,,,,,,,,,,,,,,,,,741.8455862998962,742.8737341000233,740.6690354999155,740.6690354999155,740.6690354999155,740.6690354999155,new_sceneIn_36.png,149,5.0,1.1757696999702603,,006,0,2024-09-19_14h01.28.508,Surprise recog test,2023.1.3,59.95858066005746,
149,0,149,0,,,,,,,,,,,,,,,,,,,,,,,,,,,,,,,,,,743.8429958999623,744.8755763999652,742.8737341000233,742.8737341000233,742.8737341000233,742.8737341000233,old_sceneOut_33.png,150,5.0,0.9680997999384999,,006,0,2024-09-19_14h01.28.508,Surprise recog test,2023.1.3,59.95858066005746,
150,0,150,0,,,,,,,,,,,,,,,,,,,,,,,,,,,,,,,,,,747.7581575000659,748.7625887999311,744.8755763999652,744.8755763999652,744.8755763999652,744.8755763999652,old_fruit_5.png,151,5.0,2.882702600210905,,006,0,2024-09-19_14h01.28.508,Surprise recog test,2023.1.3,59.95858066005746,
151,0,151,0,,,,,,,,,,,,,,,,,,,,,,,,,,,,,,,,,,750.427093599923,751.4493175998796,748.7625887999311,748.7625887999311,748.7625887999311,748.7625887999311,new_sceneIn_44.png,152,5.0,1.657926700077951,,006,0,2024-09-19_14h01.28.508,Surprise recog test,2023.1.3,59.95858066005746,
152,0,152,0,,,,,,,,,,,,,,,,,,,,,,,,,,,,,,,,,,752.287740000058,753.3146188999526,751.4493175998796,751.4493175998796,751.4493175998796,751.4493175998796,old_sceneIn_41.png,153,5.0,0.8406438999809325,,006,0,2024-09-19_14h01.28.508,Surprise recog test,2023.1.3,59.95858066005746,
153,0,153,0,,,,,,,,,,,,,,,,,,,,,,,,,,,,,,,,,,755.7787206000648,756.8013363000937,753.3146188999526,753.3146188999526,753.3146188999526,753.3146188999526,old_fruit_44.png,154,5.0,2.463828600011766,,006,0,2024-09-19_14h01.28.508,Surprise recog test,2023.1.3,59.95858066005746,
154,0,154,0,,,,,,,,,,,,,,,,,,,,,,,,,,,,,,,,,,759.5346623000223,760.5530487000942,756.8013363000937,756.8013363000937,756.8013363000937,756.8013363000937,new_fruit_10.png,155,5.0,2.7299862999934703,,006,0,2024-09-19_14h01.28.508,Surprise recog test,2023.1.3,59.95858066005746,
155,0,155,0,,,,,,,,,,,,,,,,,,,,,,,,,,,,,,,,,,762.5197316000704,763.5257530000526,760.5530487000942,760.5530487000942,760.5530487000942,760.5530487000942,old_sceneIn_46.png,156,5.0,1.968305699992925,,006,0,2024-09-19_14h01.28.508,Surprise recog test,2023.1.3,59.95858066005746,
156,0,156,0,,,,,,,,,,,,,,,,,,,,,,,,,,,,,,,,,,765.1191531000659,766.1439183999319,763.5257530000526,763.5257530000526,763.5257530000526,763.5257530000526,old_stationery_43.png,157,1.0,1.5895622000098228,,006,0,2024-09-19_14h01.28.508,Surprise recog test,2023.1.3,59.95858066005746,
157,0,157,0,,,,,,,,,,,,,,,,,,,,,,,,,,,,,,,,,,767.504923600005,768.5280776000582,766.1439183999319,766.1439183999319,766.1439183999319,766.1439183999319,old_sceneIn_1.png,158,5.0,1.364030399825424,,006,0,2024-09-19_14h01.28.508,Surprise recog test,2023.1.3,59.95858066005746,
158,0,158,0,,,,,,,,,,,,,,,,,,,,,,,,,,,,,,,,,,769.6308869998902,,768.5280776000582,768.5280776000582,768.5280776000582,768.5280776000582,new_sceneIn_10.png,159,5.0,1.1062890000175685,,006,0,2024-09-19_14h01.28.508,Surprise recog test,2023.1.3,59.95858066005746,
159,0,159,0,,,,,,,,,,,,,,,,,,,,,,,,,,,,,,,,,,771.5156725998968,,770.6658324000891,770.6658324000891,770.6658324000891,770.6658324000891,new_sceneIn_40.png,160,5.0,0.8527880997862667,,006,0,2024-09-19_14h01.28.508,Surprise recog test,2023.1.3,59.95858066005746,
160,0,160,0,,,,,,,,,,,,,,,,,,,,,,,,,,,,,,,,,,775.3465670000296,776.3575693999883,772.5361649000552,772.5361649000552,772.5361649000552,772.5361649000552,old_fruit_46.png,161,5.0,2.804947700118646,,006,0,2024-09-19_14h01.28.508,Surprise recog test,2023.1.3,59.95858066005746,
161,0,161,0,,,,,,,,,,,,,,,,,,,,,,,,,,,,,,,,,,777.437583199935,,776.3575693999883,776.3575693999883,776.3575693999883,776.3575693999883,new_sceneIn_49.png,162,5.0,1.0761828001122922,,006,0,2024-09-19_14h01.28.508,Surprise recog test,2023.1.3,59.95858066005746,
162,0,162,0,,,,,,,,,,,,,,,,,,,,,,,,,,,,,,,,,,780.027075599879,781.0520367999561,778.4696718999185,778.4696718999185,778.4696718999185,778.4696718999185,old_sceneIn_33.png,163,5.0,1.558732399949804,,006,0,2024-09-19_14h01.28.508,Surprise recog test,2023.1.3,59.95858066005746,
163,0,163,0,,,,,,,,,,,,,,,,,,,,,,,,,,,,,,,,,,782.3992033000104,783.4184608000796,781.0520367999561,781.0520367999561,781.0520367999561,781.0520367999561,new_sceneOut_17.png,164,5.0,1.3480670000426471,,006,0,2024-09-19_14h01.28.508,Surprise recog test,2023.1.3,59.95858066005746,
164,0,164,0,,,,,,,,,,,,,,,,,,,,,,,,,,,,,,,,,,785.8284456999972,786.8485538999084,783.4184608000796,783.4184608000796,783.4184608000796,783.4184608000796,old_stationery_22.png,165,5.0,2.411020499886945,,006,0,2024-09-19_14h01.28.508,Surprise recog test,2023.1.3,59.95858066005746,
165,0,165,0,,,,,,,,,,,,,,,,,,,,,,,,,,,,,,,,,,788.6781699999701,,786.8485538999084,786.8485538999084,786.8485538999084,786.8485538999084,new_fruit_24.png,166,5.0,1.8261825998779386,,006,0,2024-09-19_14h01.28.508,Surprise recog test,2023.1.3,59.95858066005746,
166,0,166,0,,,,,,,,,,,,,,,,,,,,,,,,,,,,,,,,,,792.8784938000608,793.8880771000404,789.7129875000101,789.7129875000101,789.7129875000101,789.7129875000101,new_fruit_8.png,167,3.0,3.1682295000646263,,006,0,2024-09-19_14h01.28.508,Surprise recog test,2023.1.3,59.95858066005746,
167,0,167,0,,,,,,,,,,,,,,,,,,,,,,,,,,,,,,,,,,795.6233927998692,796.6525304000825,793.8880771000404,793.8880771000404,793.8880771000404,793.8880771000404,new_fruit_46.png,168,5.0,1.73169059981592,,006,0,2024-09-19_14h01.28.508,Surprise recog test,2023.1.3,59.95858066005746,
168,0,168,0,,,,,,,,,,,,,,,,,,,,,,,,,,,,,,,,,,799.0229686000384,800.0548896999098,796.6525304000825,796.6525304000825,796.6525304000825,796.6525304000825,old_stationery_35.png,169,1.0,2.3731357001233846,,006,0,2024-09-19_14h01.28.508,Surprise recog test,2023.1.3,59.95858066005746,
169,0,169,0,,,,,,,,,,,,,,,,,,,,,,,,,,,,,,,,,,802.5891207999084,,800.0548896999098,800.0548896999098,800.0548896999098,800.0548896999098,new_stationery_28.png,170,2.0,2.5370249999687076,,006,0,2024-09-19_14h01.28.508,Surprise recog test,2023.1.3,59.95858066005746,
170,0,170,0,,,,,,,,,,,,,,,,,,,,,,,,,,,,,,,,,,806.9013429998886,807.9249831999186,803.6157015000936,803.6157015000936,803.6157015000936,803.6157015000936,old_stationery_1.png,171,1.0,3.2834207999985665,,006,0,2024-09-19_14h01.28.508,Surprise recog test,2023.1.3,59.95858066005746,
171,0,171,0,,,,,,,,,,,,,,,,,,,,,,,,,,,,,,,,,,810.576976899989,811.5819572999608,807.9249831999186,807.9249831999186,807.9249831999186,807.9249831999186,old_fruit_6.png,172,3.0,2.6470083000604063,,006,0,2024-09-19_14h01.28.508,Surprise recog test,2023.1.3,59.95858066005746,
172,0,172,0,,,,,,,,,,,,,,,,,,,,,,,,,,,,,,,,,,813.2587856000755,814.284201100003,811.5819572999608,811.5819572999608,811.5819572999608,811.5819572999608,new_fruit_16.png,173,5.0,1.6731004999019206,,006,0,2024-09-19_14h01.28.508,Surprise recog test,2023.1.3,59.95858066005746,
173,0,173,0,,,,,,,,,,,,,,,,,,,,,,,,,,,,,,,,,,815.5427151999902,816.5657647999469,814.284201100003,814.284201100003,814.284201100003,814.284201100003,new_fruit_19.png,174,5.0,1.2612600999418646,,006,0,2024-09-19_14h01.28.508,Surprise recog test,2023.1.3,59.95858066005746,
174,0,174,0,,,,,,,,,,,,,,,,,,,,,,,,,,,,,,,,,,819.4675433998927,820.474093100056,816.5657647999469,816.5657647999469,816.5657647999469,816.5657647999469,old_stationery_5.png,175,4.0,2.8972964000422508,,006,0,2024-09-19_14h01.28.508,Surprise recog test,2023.1.3,59.95858066005746,
175,0,175,0,,,,,,,,,,,,,,,,,,,,,,,,,,,,,,,,,,822.2883148998953,,820.474093100056,820.474093100056,820.474093100056,820.474093100056,old_sceneOut_6.png,176,5.0,1.8100831999909133,,006,0,2024-09-19_14h01.28.508,Surprise recog test,2023.1.3,59.95858066005746,
176,0,176,0,,,,,,,,,,,,,,,,,,,,,,,,,,,,,,,,,,824.8220617999323,825.8270075998735,823.3078316999599,823.3078316999599,823.3078316999599,823.3078316999599,new_fruit_36.png,177,5.0,1.5044593999627978,,006,0,2024-09-19_14h01.28.508,Surprise recog test,2023.1.3,59.95858066005746,
177,0,177,0,,,,,,,,,,,,,,,,,,,,,,,,,,,,,,,,,,828.0580418999307,829.063451499911,825.8270075998735,825.8270075998735,825.8270075998735,825.8270075998735,new_sceneOut_19.png,178,5.0,2.2214862001128495,,006,0,2024-09-19_14h01.28.508,Surprise recog test,2023.1.3,59.95858066005746,
178,0,178,0,,,,,,,,,,,,,,,,,,,,,,,,,,,,,,,,,,830.5768098998815,831.5818906999193,829.063451499911,829.063451499911,829.063451499911,829.063451499911,old_sceneIn_15.png,179,5.0,1.5047756999265403,,006,0,2024-09-19_14h01.28.508,Surprise recog test,2023.1.3,59.95858066005746,
179,0,179,0,,,,,,,,,,,,,,,,,,,,,,,,,,,,,,,,,,834.6308456000406,835.6348234999459,831.5818906999193,831.5818906999193,831.5818906999193,831.5818906999193,new_fruit_37.png,180,5.0,3.0419387998990715,,006,0,2024-09-19_14h01.28.508,Surprise recog test,2023.1.3,59.95858066005746,
180,0,180,0,,,,,,,,,,,,,,,,,,,,,,,,,,,,,,,,,,837.5493186998647,838.5539190000854,835.6348234999459,835.6348234999459,835.6348234999459,835.6348234999459,old_stationery_7.png,181,5.0,1.9040484998840839,,006,0,2024-09-19_14h01.28.508,Surprise recog test,2023.1.3,59.95858066005746,
181,0,181,0,,,,,,,,,,,,,,,,,,,,,,,,,,,,,,,,,,839.3680984999519,840.3723937999457,838.5539190000854,838.5539190000854,838.5539190000854,838.5539190000854,new_sceneOut_5.png,182,5.0,0.8101254999637604,,006,0,2024-09-19_14h01.28.508,Surprise recog test,2023.1.3,59.95858066005746,
182,0,182,0,,,,,,,,,,,,,,,,,,,,,,,,,,,,,,,,,,841.6192757000681,842.6246589999646,840.3723937999457,840.3723937999457,840.3723937999457,840.3723937999457,old_sceneOut_24.png,183,5.0,1.2369619999080896,,006,0,2024-09-19_14h01.28.508,Surprise recog test,2023.1.3,59.95858066005746,
183,0,183,0,,,,,,,,,,,,,,,,,,,,,,,,,,,,,,,,,,843.5375679999124,844.5424309999216,842.6246589999646,842.6246589999646,842.6246589999646,842.6246589999646,old_sceneIn_6.png,184,5.0,0.9035436001140624,,006,0,2024-09-19_14h01.28.508,Surprise recog test,2023.1.3,59.95858066005746,
184,0,184,0,,,,,,,,,,,,,,,,,,,,,,,,,,,,,,,,,,846.4233416998759,847.4280199999921,844.5424309999216,844.5424309999216,844.5424309999216,844.5424309999216,new_sceneIn_24.png,185,5.0,1.8716810001060367,,006,0,2024-09-19_14h01.28.508,Surprise recog test,2023.1.3,59.95858066005746,
185,0,185,0,,,,,,,,,,,,,,,,,,,,,,,,,,,,,,,,,,849.4591490000021,850.4648796999827,847.4280199999921,847.4280199999921,847.4280199999921,847.4280199999921,old_stationery_21.png,186,1.0,2.021152899833396,,006,0,2024-09-19_14h01.28.508,Surprise recog test,2023.1.3,59.95858066005746,
186,0,186,0,,,,,,,,,,,,,,,,,,,,,,,,,,,,,,,,,,853.062090799911,854.0674797000829,850.4648796999827,850.4648796999827,850.4648796999827,850.4648796999827,old_sceneIn_50.png,187,5.0,2.5877936999313533,,006,0,2024-09-19_14h01.28.508,Surprise recog test,2023.1.3,59.95858066005746,
187,0,187,0,,,,,,,,,,,,,,,,,,,,,,,,,,,,,,,,,,856.3482085999567,857.3533451000694,854.0674797000829,854.0674797000829,854.0674797000829,854.0674797000829,new_sceneIn_26.png,188,5.0,2.2743842999916524,,006,0,2024-09-19_14h01.28.508,Surprise recog test,2023.1.3,59.95858066005746,
188,0,188,0,,,,,,,,,,,,,,,,,,,,,,,,,,,,,,,,,,859.759501399938,860.7832859000191,857.3533451000694,857.3533451000694,857.3533451000694,857.3533451000694,new_stationery_6.png,189,5.0,2.4018703000620008,,006,0,2024-09-19_14h01.28.508,Surprise recog test,2023.1.3,59.95858066005746,
189,0,189,0,,,,,,,,,,,,,,,,,,,,,,,,,,,,,,,,,,862.1465354000684,863.1751407999545,860.7832859000191,860.7832859000191,860.7832859000191,860.7832859000191,old_fruit_37.png,190,5.0,1.3650565999560058,,006,0,2024-09-19_14h01.28.508,Surprise recog test,2023.1.3,59.95858066005746,
190,0,190,0,,,,,,,,,,,,,,,,,,,,,,,,,,,,,,,,,,865.024730999954,,863.1751407999545,863.1751407999545,863.1751407999545,863.1751407999545,old_sceneIn_31.png,191,5.0,1.851538100047037,,006,0,2024-09-19_14h01.28.508,Surprise recog test,2023.1.3,59.95858066005746,
191,0,191,0,,,,,,,,,,,,,,,,,,,,,,,,,,,,,,,,,,868.1865536000114,869.2113816998899,866.0592726999894,866.0592726999894,866.0592726999894,866.0592726999894,old_fruit_43.png,192,5.0,2.129578100051731,,006,0,2024-09-19_14h01.28.508,Surprise recog test,2023.1.3,59.95858066005746,
192,0,192,0,,,,,,,,,,,,,,,,,,,,,,,,,,,,,,,,,,870.8153611000162,871.8458382000681,869.2113816998899,869.2113816998899,869.2113816998899,869.2113816998899,new_fruit_20.png,193,5.0,1.6054189999122173,,006,0,2024-09-19_14h01.28.508,Surprise recog test,2023.1.3,59.95858066005746,
193,0,193,0,,,,,,,,,,,,,,,,,,,,,,,,,,,,,,,,,,873.742432900006,874.7656618999317,871.8458382000681,871.8458382000681,871.8458382000681,871.8458382000681,old_stationery_14.png,194,1.0,1.9005053001455963,,006,0,2024-09-19_14h01.28.508,Surprise recog test,2023.1.3,59.95858066005746,
194,0,194,0,,,,,,,,,,,,,,,,,,,,,,,,,,,,,,,,,,876.2660022000782,877.2697793000843,874.7656618999317,874.7656618999317,874.7656618999317,874.7656618999317,old_stationery_12.png,195,1.0,1.500488700112328,,006,0,2024-09-19_14h01.28.508,Surprise recog test,2023.1.3,59.95858066005746,
195,0,195,0,,,,,,,,,,,,,,,,,,,,,,,,,,,,,,,,,,879.3225692999549,880.3537190998904,877.2697793000843,877.2697793000843,877.2697793000843,877.2697793000843,old_stationery_11.png,196,1.0,2.0487710998859257,,006,0,2024-09-19_14h01.28.508,Surprise recog test,2023.1.3,59.95858066005746,
196,0,196,0,,,,,,,,,,,,,,,,,,,,,,,,,,,,,,,,,,881.9526809998788,882.957536800066,880.3537190998904,880.3537190998904,880.3537190998904,880.3537190998904,old_stationery_26.png,197,1.0,1.5954291000962257,,006,0,2024-09-19_14h01.28.508,Surprise recog test,2023.1.3,59.95858066005746,
197,0,197,0,,,,,,,,,,,,,,,,,,,,,,,,,,,,,,,,,,885.4626567000523,886.4796897999477,882.957536800066,882.957536800066,882.957536800066,882.957536800066,new_fruit_5.png,198,5.0,2.4999202999752015,,006,0,2024-09-19_14h01.28.508,Surprise recog test,2023.1.3,59.95858066005746,
198,0,198,0,,,,,,,,,,,,,,,,,,,,,,,,,,,,,,,,,,888.7568286999594,889.781160299899,886.4796897999477,886.4796897999477,886.4796897999477,886.4796897999477,new_fruit_44.png,199,5.0,2.2705832000356168,,006,0,2024-09-19_14h01.28.508,Surprise recog test,2023.1.3,59.95858066005746,
199,0,199,0,,,,,,,,,,,,,,,,,,,,,,,,,,,,,,,,,,893.1263757999986,894.1347908000462,889.781160299899,889.781160299899,889.781160299899,889.781160299899,new_stationery_40.png,200,5.0,3.3487230001483113,,006,0,2024-09-19_14h01.28.508,Surprise recog test,2023.1.3,59.95858066005746,
200,0,200,0,,,,,,,,,,,,,,,,,,,,,,,,,,,,,,,,,,896.1590364000294,897.1869723999407,894.1347908000462,894.1347908000462,894.1347908000462,894.1347908000462,old_sceneIn_42.png,201,5.0,2.020631500054151,,006,0,2024-09-19_14h01.28.508,Surprise recog test,2023.1.3,59.95858066005746,
201,0,201,0,,,,,,,,,,,,,,,,,,,,,,,,,,,,,,,,,,898.6755840000696,899.6889613000676,897.1869723999407,897.1869723999407,897.1869723999407,897.1869723999407,old_sceneOut_20.png,202,5.0,1.4914337999653071,,006,0,2024-09-19_14h01.28.508,Surprise recog test,2023.1.3,59.95858066005746,
202,0,202,0,,,,,,,,,,,,,,,,,,,,,,,,,,,,,,,,,,901.3258441998623,902.3545796999242,899.6889613000676,899.6889613000676,899.6889613000676,899.6889613000676,new_stationery_39.png,203,5.0,1.6319009000435472,,006,0,2024-09-19_14h01.28.508,Surprise recog test,2023.1.3,59.95858066005746,
203,0,203,0,,,,,,,,,,,,,,,,,,,,,,,,,,,,,,,,,,904.4647967000492,905.476523600053,902.3545796999242,902.3545796999242,902.3545796999242,902.3545796999242,new_stationery_10.png,204,2.0,2.112472499953583,,006,0,2024-09-19_14h01.28.508,Surprise recog test,2023.1.3,59.95858066005746,
204,0,204,0,,,,,,,,,,,,,,,,,,,,,,,,,,,,,,,,,,908.04268459999,909.0507684000768,905.476523600053,905.476523600053,905.476523600053,905.476523600053,new_fruit_45.png,205,5.0,2.5631093999836594,,006,0,2024-09-19_14h01.28.508,Surprise recog test,2023.1.3,59.95858066005746,
205,0,205,0,,,,,,,,,,,,,,,,,,,,,,,,,,,,,,,,,,912.1034705999773,913.1297673999798,909.0507684000768,909.0507684000768,909.0507684000768,909.0507684000768,new_stationery_17.png,206,5.0,3.0505409999750555,,006,0,2024-09-19_14h01.28.508,Surprise recog test,2023.1.3,59.95858066005746,
206,0,206,0,,,,,,,,,,,,,,,,,,,,,,,,,,,,,,,,,,914.3388145999052,915.3645999000873,913.1297673999798,913.1297673999798,913.1297673999798,913.1297673999798,old_sceneIn_23.png,207,5.0,1.2087387000210583,,006,0,2024-09-19_14h01.28.508,Surprise recog test,2023.1.3,59.95858066005746,
207,0,207,0,,,,,,,,,,,,,,,,,,,,,,,,,,,,,,,,,,917.2154345000163,918.2392170999665,915.3645999000873,915.3645999000873,915.3645999000873,915.3645999000873,old_sceneIn_5.png,208,5.0,1.8512118998914957,,006,0,2024-09-19_14h01.28.508,Surprise recog test,2023.1.3,59.95858066005746,
208,0,208,0,,,,,,,,,,,,,,,,,,,,,,,,,,,,,,,,,,919.2729972999077,920.2925684999209,918.2392170999665,918.2392170999665,918.2392170999665,918.2392170999665,new_fruit_27.png,209,5.0,1.0374511999543756,,006,0,2024-09-19_14h01.28.508,Surprise recog test,2023.1.3,59.95858066005746,
209,0,209,0,,,,,,,,,,,,,,,,,,,,,,,,,,,,,,,,,,922.9034454999492,923.9080145999324,920.2925684999209,920.2925684999209,920.2925684999209,920.2925684999209,old_sceneIn_44.png,210,5.0,2.600227699847892,,006,0,2024-09-19_14h01.28.508,Surprise recog test,2023.1.3,59.95858066005746,
210,0,210,0,,,,,,,,,,,,,,,,,,,,,,,,,,,,,,,,,,924.9885312998667,925.9930376000702,923.9080145999324,923.9080145999324,923.9080145999324,923.9080145999324,new_sceneIn_41.png,211,5.0,1.070650399895385,,006,0,2024-09-19_14h01.28.508,Surprise recog test,2023.1.3,59.95858066005746,
211,0,211,0,,,,,,,,,,,,,,,,,,,,,,,,,,,,,,,,,,927.5480641000904,928.5659095998853,925.9930376000702,925.9930376000702,925.9930376000702,925.9930376000702,new_sceneIn_6.png,212,5.0,1.550887299934402,,006,0,2024-09-19_14h01.28.508,Surprise recog test,2023.1.3,59.95858066005746,
212,0,212,0,,,,,,,,,,,,,,,,,,,,,,,,,,,,,,,,,,929.9106506998651,930.9281391000841,928.5659095998853,928.5659095998853,928.5659095998853,928.5659095998853,new_sceneOut_46.png,213,5.0,1.33991579990834,,006,0,2024-09-19_14h01.28.508,Surprise recog test,2023.1.3,59.95858066005746,
213,0,213,0,,,,,,,,,,,,,,,,,,,,,,,,,,,,,,,,,,932.6146487998776,,930.9281391000841,930.9281391000841,930.9281391000841,930.9281391000841,old_sceneIn_19.png,214,5.0,1.687633499968797,,006,0,2024-09-19_14h01.28.508,Surprise recog test,2023.1.3,59.95858066005746,
214,0,214,0,,,,,,,,,,,,,,,,,,,,,,,,,,,,,,,,,,935.5810209999327,936.6058624999132,933.6498896998819,933.6498896998819,933.6498896998819,933.6498896998819,old_sceneIn_47.png,215,5.0,1.932280900189653,,006,0,2024-09-19_14h01.28.508,Surprise recog test,2023.1.3,59.95858066005746,
215,0,215,0,,,,,,,,,,,,,,,,,,,,,,,,,,,,,,,,,,937.6357966999058,,936.6058624999132,936.6058624999132,936.6058624999132,936.6058624999132,old_sceneOut_30.png,216,5.0,1.0332409001421183,,006,0,2024-09-19_14h01.28.508,Surprise recog test,2023.1.3,59.95858066005746,
216,0,216,0,,,,,,,,,,,,,,,,,,,,,,,,,,,,,,,,,,940.367920299992,941.387375799939,938.665809799917,938.665809799917,938.665809799917,938.665809799917,old_stationery_13.png,217,1.0,1.7009425000287592,,006,0,2024-09-19_14h01.28.508,Surprise recog test,2023.1.3,59.95858066005746,
217,0,217,0,,,,,,,,,,,,,,,,,,,,,,,,,,,,,,,,,,942.6416150999721,943.6725146998651,941.387375799939,941.387375799939,941.387375799939,941.387375799939,old_sceneIn_22.png,218,5.0,1.2541797999292612,,006,0,2024-09-19_14h01.28.508,Surprise recog test,2023.1.3,59.95858066005746,
218,0,218,0,,,,,,,,,,,,,,,,,,,,,,,,,,,,,,,,,,945.3582736998796,,943.6725146998651,943.6725146998651,943.6725146998651,943.6725146998651,new_sceneOut_27.png,219,5.0,1.6875698000658303,,006,0,2024-09-19_14h01.28.508,Surprise recog test,2023.1.3,59.95858066005746,
219,0,219,0,,,,,,,,,,,,,,,,,,,,,,,,,,,,,,,,,,949.6191040999256,950.6348379000556,946.3866606999654,946.3866606999654,946.3866606999654,946.3866606999654,new_stationery_24.png,220,4.0,3.2265043000224978,,006,0,2024-09-19_14h01.28.508,Surprise recog test,2023.1.3,59.95858066005746,
220,0,220,0,,,,,,,,,,,,,,,,,,,,,,,,,,,,,,,,,,951.7862088000402,952.8021891000681,950.6348379000556,950.6348379000556,950.6348379000556,950.6348379000556,new_stationery_35.png,221,1.0,1.1442462000995874,,006,0,2024-09-19_14h01.28.508,Surprise recog test,2023.1.3,59.95858066005746,
221,0,221,0,,,,,,,,,,,,,,,,,,,,,,,,,,,,,,,,,,955.3207060000859,956.3520138999447,952.8021891000681,952.8021891000681,952.8021891000681,952.8021891000681,new_sceneOut_34.png,222,4.0,2.5137404000852257,,006,0,2024-09-19_14h01.28.508,Surprise recog test,2023.1.3,59.95858066005746,
222,0,222,0,,,,,,,,,,,,,,,,,,,,,,,,,,,,,,,,,,957.4839204999153,958.493750799913,956.3520138999447,956.3520138999447,956.3520138999447,956.3520138999447,new_fruit_4.png,223,5.0,1.133977600140497,,006,0,2024-09-19_14h01.28.508,Surprise recog test,2023.1.3,59.95858066005746,
223,0,223,0,,,,,,,,,,,,,,,,,,,,,,,,,,,,,,,,,,962.1359591998626,963.156313000014,958.493750799913,958.493750799913,958.493750799913,958.493750799913,old_stationery_48.png,224,4.0,3.632907200139016,,006,0,2024-09-19_14h01.28.508,Surprise recog test,2023.1.3,59.95858066005746,
224,0,224,0,,,,,,,,,,,,,,,,,,,,,,,,,,,,,,,,,,965.4143133000471,966.4348788000643,963.156313000014,963.156313000014,963.156313000014,963.156313000014,old_sceneIn_16.png,225,1.0,2.260606300085783,,006,0,2024-09-19_14h01.28.508,Surprise recog test,2023.1.3,59.95858066005746,
225,0,225,0,,,,,,,,,,,,,,,,,,,,,,,,,,,,,,,,,,967.8655248000287,968.8960613000672,966.4348788000643,966.4348788000643,966.4348788000643,966.4348788000643,new_fruit_28.png,226,5.0,1.4311863998882473,,006,0,2024-09-19_14h01.28.508,Surprise recog test,2023.1.3,59.95858066005746,
226,0,226,0,,,,,,,,,,,,,,,,,,,,,,,,,,,,,,,,,,969.9852537000552,971.0008026000578,968.8960613000672,968.8960613000672,968.8960613000672,968.8960613000672,old_fruit_20.png,227,5.0,1.0882420998532325,,006,0,2024-09-19_14h01.28.508,Surprise recog test,2023.1.3,59.95858066005746,
227,0,227,0,,,,,,,,,,,,,,,,,,,,,,,,,,,,,,,,,,971.9841487999074,973.0116345998831,971.0008026000578,971.0008026000578,971.0008026000578,971.0008026000578,new_sceneOut_8.png,228,5.0,0.9775467999279499,,006,0,2024-09-19_14h01.28.508,Surprise recog test,2023.1.3,59.95858066005746,
228,0,228,0,,,,,,,,,,,,,,,,,,,,,,,,,,,,,,,,,,974.565262600081,,973.0116345998831,973.0116345998831,973.0116345998831,973.0116345998831,new_stationery_36.png,229,5.0,1.5557796000503004,,006,0,2024-09-19_14h01.28.508,Surprise recog test,2023.1.3,59.95858066005746,
229,0,229,0,,,,,,,,,,,,,,,,,,,,,,,,,,,,,,,,,,977.9724751000758,978.9899828000925,975.5950944998767,975.5950944998767,975.5950944998767,975.5950944998767,old_fruit_27.png,230,3.0,2.380535800009966,,006,0,2024-09-19_14h01.28.508,Surprise recog test,2023.1.3,59.95858066005746,
230,0,230,0,,,,,,,,,,,,,,,,,,,,,,,,,,,,,,,,,,980.6567617000546,981.6851486000232,978.9899828000925,978.9899828000925,978.9899828000925,978.9899828000925,new_sceneIn_18.png,231,5.0,1.661860599881038,,006,0,2024-09-19_14h01.28.508,Surprise recog test,2023.1.3,59.95858066005746,
231,0,231,0,,,,,,,,,,,,,,,,,,,,,,,,,,,,,,,,,,983.6080163998995,,981.6851486000232,981.6851486000232,981.6851486000232,981.6851486000232,new_fruit_18.png,232,5.0,1.9250461000483483,,006,0,2024-09-19_14h01.28.508,Surprise recog test,2023.1.3,59.95858066005746,
232,0,232,0,,,,,,,,,,,,,,,,,,,,,,,,,,,,,,,,,,988.3648445000872,989.3998445000034,984.6324737998657,984.6324737998657,984.6324737998657,984.6324737998657,new_fruit_2.png,233,3.0,3.7301700999960303,,006,0,2024-09-19_14h01.28.508,Surprise recog test,2023.1.3,59.95858066005746,
233,0,233,0,,,,,,,,,,,,,,,,,,,,,,,,,,,,,,,,,,991.0676440000534,992.0852322999854,989.3998445000034,989.3998445000034,989.3998445000034,989.3998445000034,old_fruit_2.png,234,5.0,1.6722997000906616,,006,0,2024-09-19_14h01.28.508,Surprise recog test,2023.1.3,59.95858066005746,
234,0,234,0,,,,,,,,,,,,,,,,,,,,,,,,,,,,,,,,,,993.5316053999122,,992.0852322999854,992.0852322999854,992.0852322999854,992.0852322999854,old_sceneIn_3.png,235,5.0,1.4422402998898178,,006,0,2024-09-19_14h01.28.508,Surprise recog test,2023.1.3,59.95858066005746,
235,0,235,0,,,,,,,,,,,,,,,,,,,,,,,,,,,,,,,,,,997.5766646000557,998.609341399977,994.5635265999008,994.5635265999008,994.5635265999008,994.5635265999008,old_stationery_20.png,236,5.0,3.0149755999445915,,006,0,2024-09-19_14h01.28.508,Surprise recog test,2023.1.3,59.95858066005746,
236,0,236,0,,,,,,,,,,,,,,,,,,,,,,,,,,,,,,,,,,1000.0173523998819,1001.0385932999197,998.609341399977,998.609341399977,998.609341399977,998.609341399977,old_fruit_23.png,237,5.0,1.4130792999640107,,006,0,2024-09-19_14h01.28.508,Surprise recog test,2023.1.3,59.95858066005746,
237,0,237,0,,,,,,,,,,,,,,,,,,,,,,,,,,,,,,,,,,1002.5233138999902,,1001.0385932999197,1001.0385932999197,1001.0385932999197,1001.0385932999197,old_sceneOut_23.png,238,5.0,1.4867747998796403,,006,0,2024-09-19_14h01.28.508,Surprise recog test,2023.1.3,59.95858066005746,
238,0,238,0,,,,,,,,,,,,,,,,,,,,,,,,,,,,,,,,,,1006.6267478000373,,1003.5560441000853,1003.5560441000853,1003.5560441000853,1003.5560441000853,old_fruit_13.png,239,3.0,3.0721095998305827,,006,0,2024-09-19_14h01.28.508,Surprise recog test,2023.1.3,59.95858066005746,
239,0,239,0,,,,,,,,,,,,,,,,,,,,,,,,,,,,,,,,,,1008.760922800051,,1007.6538358998951,1007.6538358998951,1007.6538358998951,1007.6538358998951,old_sceneOut_16.png,240,5.0,1.1072762000840157,,006,0,2024-09-19_14h01.28.508,Surprise recog test,2023.1.3,59.95858066005746,
240,0,240,0,,,,,,,,,,,,,,,,,,,,,,,,,,,,,,,,,,1010.5544036999345,1011.5641183999833,1009.7995438999496,1009.7995438999496,1009.7995438999496,1009.7995438999496,old_sceneOut_34.png,241,5.0,0.7558798999525607,,006,0,2024-09-19_14h01.28.508,Surprise recog test,2023.1.3,59.95858066005746,
241,0,241,0,,,,,,,,,,,,,,,,,,,,,,,,,,,,,,,,,,1013.4140760998707,,1011.5641183999833,1011.5641183999833,1011.5641183999833,1011.5641183999833,old_stationery_50.png,242,1.0,1.846220799954608,,006,0,2024-09-19_14h01.28.508,Surprise recog test,2023.1.3,59.95858066005746,
242,0,242,0,,,,,,,,,,,,,,,,,,,,,,,,,,,,,,,,,,1015.7000130000524,,1014.436288600089,1014.436288600089,1014.436288600089,1014.436288600089,old_stationery_32.png,243,1.0,1.2589148001279682,,006,0,2024-09-19_14h01.28.508,Surprise recog test,2023.1.3,59.95858066005746,
243,0,243,0,,,,,,,,,,,,,,,,,,,,,,,,,,,,,,,,,,1018.0324329000432,1019.0500300000422,1016.7213806000073,1016.7213806000073,1016.7213806000073,1016.7213806000073,new_fruit_42.png,244,5.0,1.3002439001575112,,006,0,2024-09-19_14h01.28.508,Surprise recog test,2023.1.3,59.95858066005746,
244,0,244,0,,,,,,,,,,,,,,,,,,,,,,,,,,,,,,,,,,1020.5226868998725,1021.5422954999376,1019.0500300000422,1019.0500300000422,1019.0500300000422,1019.0500300000422,new_sceneIn_42.png,245,5.0,1.4750163001008332,,006,0,2024-09-19_14h01.28.508,Surprise recog test,2023.1.3,59.95858066005746,
245,0,245,0,,,,,,,,,,,,,,,,,,,,,,,,,,,,,,,,,,1025.1232410999946,1026.1324815000407,1021.5422954999376,1021.5422954999376,1021.5422954999376,1021.5422954999376,new_stationery_14.png,246,4.0,3.574434299953282,,006,0,2024-09-19_14h01.28.508,Surprise recog test,2023.1.3,59.95858066005746,
246,0,246,0,,,,,,,,,,,,,,,,,,,,,,,,,,,,,,,,,,1027.2659159998875,1028.292790000094,1026.1324815000407,1026.1324815000407,1026.1324815000407,1026.1324815000407,old_sceneIn_13.png,247,5.0,1.1267225998453796,,006,0,2024-09-19_14h01.28.508,Surprise recog test,2023.1.3,59.95858066005746,
247,0,247,0,,,,,,,,,,,,,,,,,,,,,,,,,,,,,,,,,,1029.881645000074,1030.9120223000646,1028.292790000094,1028.292790000094,1028.292790000094,1028.292790000094,new_sceneOut_25.png,248,5.0,1.588460800005123,,006,0,2024-09-19_14h01.28.508,Surprise recog test,2023.1.3,59.95858066005746,
248,0,248,0,,,,,,,,,,,,,,,,,,,,,,,,,,,,,,,,,,1032.102017099969,1033.1182687000837,1030.9120223000646,1030.9120223000646,1030.9120223000646,1030.9120223000646,new_stationery_34.png,249,5.0,1.1906273001804948,,006,0,2024-09-19_14h01.28.508,Surprise recog test,2023.1.3,59.95858066005746,
249,0,249,0,,,,,,,,,,,,,,,,,,,,,,,,,,,,,,,,,,1035.4891721999738,1036.5144022998866,1033.1182687000837,1033.1182687000837,1033.1182687000837,1033.1182687000837,old_fruit_47.png,250,3.0,2.3652272999752313,,006,0,2024-09-19_14h01.28.508,Surprise recog test,2023.1.3,59.95858066005746,
250,0,250,0,,,,,,,,,,,,,,,,,,,,,,,,,,,,,,,,,,1038.7394618000835,1039.7690870000515,1036.5144022998866,1036.5144022998866,1036.5144022998866,1036.5144022998866,new_sceneIn_37.png,251,5.0,2.227394000161439,,006,0,2024-09-19_14h01.28.508,Surprise recog test,2023.1.3,59.95858066005746,
251,0,251,0,,,,,,,,,,,,,,,,,,,,,,,,,,,,,,,,,,1043.205329600023,,1039.7690870000515,1039.7690870000515,1039.7690870000515,1039.7690870000515,old_fruit_22.png,252,5.0,3.436893700156361,,006,0,2024-09-19_14h01.28.508,Surprise recog test,2023.1.3,59.95858066005746,
252,0,252,0,,,,,,,,,,,,,,,,,,,,,,,,,,,,,,,,,,1045.6745919000823,,1044.2417081999592,1044.2417081999592,1044.2417081999592,1044.2417081999592,old_fruit_41.png,253,5.0,1.4402449999470264,,006,0,2024-09-19_14h01.28.508,Surprise recog test,2023.1.3,59.95858066005746,
253,0,253,0,,,,,,,,,,,,,,,,,,,,,,,,,,,,,,,,,,1048.090712999925,1049.1157052998897,1046.704957399983,1046.704957399983,1046.704957399983,1046.704957399983,old_sceneOut_27.png,254,5.0,1.3836576000321656,,006,0,2024-09-19_14h01.28.508,Surprise recog test,2023.1.3,59.95858066005746,
254,0,254,0,,,,,,,,,,,,,,,,,,,,,,,,,,,,,,,,,,1052.19125179993,1053.2156507000327,1049.1157052998897,1049.1157052998897,1049.1157052998897,1049.1157052998897,new_stationery_11.png,255,5.0,3.0784589999821037,,006,0,2024-09-19_14h01.28.508,Surprise recog test,2023.1.3,59.95858066005746,
255,0,255,0,,,,,,,,,,,,,,,,,,,,,,,,,,,,,,,,,,1054.8280561999418,1055.8505754000507,1053.2156507000327,1053.2156507000327,1053.2156507000327,1053.2156507000327,new_sceneOut_4.png,256,5.0,1.6129779999610037,,006,0,2024-09-19_14h01.28.508,Surprise recog test,2023.1.3,59.95858066005746,
256,0,256,0,,,,,,,,,,,,,,,,,,,,,,,,,,,,,,,,,,1057.6033300999552,1058.6252230000682,1055.8505754000507,1055.8505754000507,1055.8505754000507,1055.8505754000507,new_sceneOut_1.png,257,5.0,1.7547226999886334,,006,0,2024-09-19_14h01.28.508,Surprise recog test,2023.1.3,59.95858066005746,
257,0,257,0,,,,,,,,,,,,,,,,,,,,,,,,,,,,,,,,,,1059.7153473999351,1060.738320400007,1058.6252230000682,1058.6252230000682,1058.6252230000682,1058.6252230000682,old_fruit_36.png,258,5.0,1.0867727000731975,,006,0,2024-09-19_14h01.28.508,Surprise recog test,2023.1.3,59.95858066005746,
258,0,258,0,,,,,,,,,,,,,,,,,,,,,,,,,,,,,,,,,,1063.0303157998715,1064.05699130008,1060.738320400007,1060.738320400007,1060.738320400007,1060.738320400007,new_stationery_18.png,259,1.0,2.2935587000101805,,006,0,2024-09-19_14h01.28.508,Surprise recog test,2023.1.3,59.95858066005746,
259,0,259,0,,,,,,,,,,,,,,,,,,,,,,,,,,,,,,,,,,1065.6402966999449,1066.6505779998843,1064.05699130008,1064.05699130008,1064.05699130008,1064.05699130008,old_sceneOut_25.png,260,5.0,1.5858526998199522,,006,0,2024-09-19_14h01.28.508,Surprise recog test,2023.1.3,59.95858066005746,
260,0,260,0,,,,,,,,,,,,,,,,,,,,,,,,,,,,,,,,,,1068.5827581000049,1069.5996069000103,1066.6505779998843,1066.6505779998843,1066.6505779998843,1066.6505779998843,old_sceneOut_12.png,261,5.0,1.9292551998514682,,006,0,2024-09-19_14h01.28.508,Surprise recog test,2023.1.3,59.95858066005746,
261,0,261,0,,,,,,,,,,,,,,,,,,,,,,,,,,,,,,,,,,1071.0253910999745,1072.0474920000415,1069.5996069000103,1069.5996069000103,1069.5996069000103,1069.5996069000103,old_sceneOut_19.png,262,5.0,1.4194851000793278,,006,0,2024-09-19_14h01.28.508,Surprise recog test,2023.1.3,59.95858066005746,
262,0,262,0,,,,,,,,,,,,,,,,,,,,,,,,,,,,,,,,,,1073.4425715000834,1074.4631034000777,1072.0474920000415,1072.0474920000415,1072.0474920000415,1072.0474920000415,old_stationery_4.png,263,1.0,1.3954581001307815,,006,0,2024-09-19_14h01.28.508,Surprise recog test,2023.1.3,59.95858066005746,
263,0,263,0,,,,,,,,,,,,,,,,,,,,,,,,,,,,,,,,,,1076.729514699895,1077.738010799978,1074.4631034000777,1074.4631034000777,1074.4631034000777,1074.4631034000777,new_stationery_16.png,264,4.0,2.2674203999340534,,006,0,2024-09-19_14h01.28.508,Surprise recog test,2023.1.3,59.95858066005746,
264,0,264,0,,,,,,,,,,,,,,,,,,,,,,,,,,,,,,,,,,1079.8335764999501,1080.8551570000127,1077.738010799978,1077.738010799978,1077.738010799978,1077.738010799978,new_stationery_31.png,265,5.0,2.0871772000100464,,006,0,2024-09-19_14h01.28.508,Surprise recog test,2023.1.3,59.95858066005746,
265,0,265,0,,,,,,,,,,,,,,,,,,,,,,,,,,,,,,,,,,1082.290422799997,1083.323047599988,1080.8551570000127,1080.8551570000127,1080.8551570000127,1080.8551570000127,old_stationery_46.png,266,1.0,1.4361958999652416,,006,0,2024-09-19_14h01.28.508,Surprise recog test,2023.1.3,59.95858066005746,
266,0,266,0,,,,,,,,,,,,,,,,,,,,,,,,,,,,,,,,,,1084.9530452000909,1085.9598572000396,1083.323047599988,1083.323047599988,1083.323047599988,1083.323047599988,old_sceneIn_29.png,267,5.0,1.627634699922055,,006,0,2024-09-19_14h01.28.508,Surprise recog test,2023.1.3,59.95858066005746,
267,0,267,0,,,,,,,,,,,,,,,,,,,,,,,,,,,,,,,,,,1088.424123100005,1089.432667199988,1085.9598572000396,1085.9598572000396,1085.9598572000396,1085.9598572000396,old_stationery_44.png,268,1.0,2.457573699997738,,006,0,2024-09-19_14h01.28.508,Surprise recog test,2023.1.3,59.95858066005746,
268,0,268,0,,,,,,,,,,,,,,,,,,,,,,,,,,,,,,,,,,1090.4551425999962,1091.4799726000056,1089.432667199988,1089.432667199988,1089.432667199988,1089.432667199988,old_sceneIn_35.png,269,5.0,1.0185149000026286,,006,0,2024-09-19_14h01.28.508,Surprise recog test,2023.1.3,59.95858066005746,
269,0,269,0,,,,,,,,,,,,,,,,,,,,,,,,,,,,,,,,,,1092.7844269999769,1093.8159409000073,1091.4799726000056,1091.4799726000056,1091.4799726000056,1091.4799726000056,old_sceneOut_22.png,270,5.0,1.3067530998960137,,006,0,2024-09-19_14h01.28.508,Surprise recog test,2023.1.3,59.95858066005746,
270,0,270,0,,,,,,,,,,,,,,,,,,,,,,,,,,,,,,,,,,1094.562580500031,1095.571659799898,1093.8159409000073,1093.8159409000073,1093.8159409000073,1093.8159409000073,old_sceneIn_37.png,271,5.0,0.7453699999023229,,006,0,2024-09-19_14h01.28.508,Surprise recog test,2023.1.3,59.95858066005746,
271,0,271,0,,,,,,,,,,,,,,,,,,,,,,,,,,,,,,,,,,1097.375958800083,1098.3900136998855,1095.571659799898,1095.571659799898,1095.571659799898,1095.571659799898,old_fruit_45.png,272,5.0,1.7994947999250144,,006,0,2024-09-19_14h01.28.508,Surprise recog test,2023.1.3,59.95858066005746,
272,0,272,0,,,,,,,,,,,,,,,,,,,,,,,,,,,,,,,,,,1100.257399899885,1101.291120500071,1098.3900136998855,1098.3900136998855,1098.3900136998855,1098.3900136998855,new_sceneOut_49.png,273,5.0,1.8632942000404,,006,0,2024-09-19_14h01.28.508,Surprise recog test,2023.1.3,59.95858066005746,
273,0,273,0,,,,,,,,,,,,,,,,,,,,,,,,,,,,,,,,,,1103.5861752000637,1104.6075510999653,1101.291120500071,1101.291120500071,1101.291120500071,1101.291120500071,old_fruit_28.png,274,5.0,2.2993773000780493,,006,0,2024-09-19_14h01.28.508,Surprise recog test,2023.1.3,59.95858066005746,
274,0,274,0,,,,,,,,,,,,,,,,,,,,,,,,,,,,,,,,,,1107.7260024999268,,1104.6075510999653,1104.6075510999653,1104.6075510999653,1104.6075510999653,new_fruit_14.png,275,5.0,3.1187740000896156,,006,0,2024-09-19_14h01.28.508,Surprise recog test,2023.1.3,59.95858066005746,
275,0,275,0,,,,,,,,,,,,,,,,,,,,,,,,,,,,,,,,,,1109.7810573999304,1110.8115278000478,1108.7598464000039,1108.7598464000039,1108.7598464000039,1108.7598464000039,old_fruit_3.png,276,5.0,1.0237922999076545,,006,0,2024-09-19_14h01.28.508,Surprise recog test,2023.1.3,59.95858066005746,
276,0,276,0,,,,,,,,,,,,,,,,,,,,,,,,,,,,,,,,,,1112.2653788998723,1113.2854947000742,1110.8115278000478,1110.8115278000478,1110.8115278000478,1110.8115278000478,old_stationery_28.png,277,1.0,1.4562842000741512,,006,0,2024-09-19_14h01.28.508,Surprise recog test,2023.1.3,59.95858066005746,
277,0,277,0,,,,,,,,,,,,,,,,,,,,,,,,,,,,,,,,,,1114.845920599997,1115.866760799894,1113.2854947000742,1113.2854947000742,1113.2854947000742,1113.2854947000742,new_stationery_19.png,278,5.0,1.558191099902615,,006,0,2024-09-19_14h01.28.508,Surprise recog test,2023.1.3,59.95858066005746,
278,0,278,0,,,,,,,,,,,,,,,,,,,,,,,,,,,,,,,,,,1118.963219899917,1119.9871215999592,1115.866760799894,1115.866760799894,1115.866760799894,1115.866760799894,new_stationery_47.png,279,4.0,3.0981455000583082,,006,0,2024-09-19_14h01.28.508,Surprise recog test,2023.1.3,59.95858066005746,
279,0,279,0,,,,,,,,,,,,,,,,,,,,,,,,,,,,,,,,,,1122.3470550000202,1123.3735815999098,1119.9871215999592,1119.9871215999592,1119.9871215999592,1119.9871215999592,old_sceneIn_45.png,280,3.0,2.3598607999738306,,006,0,2024-09-19_14h01.28.508,Surprise recog test,2023.1.3,59.95858066005746,
280,0,280,0,,,,,,,,,,,,,,,,,,,,,,,,,,,,,,,,,,1124.3753299999516,1125.4079908998683,1123.3735815999098,1123.3735815999098,1123.3735815999098,1123.3735815999098,old_sceneOut_43.png,281,5.0,1.0007662998978049,,006,0,2024-09-19_14h01.28.508,Surprise recog test,2023.1.3,59.95858066005746,
281,0,281,0,,,,,,,,,,,,,,,,,,,,,,,,,,,,,,,,,,1126.9438640000299,1127.980215499876,1125.4079908998683,1125.4079908998683,1125.4079908998683,1125.4079908998683,new_sceneIn_12.png,282,5.0,1.5384327000938356,,006,0,2024-09-19_14h01.28.508,Surprise recog test,2023.1.3,59.95858066005746,
282,0,282,0,,,,,,,,,,,,,,,,,,,,,,,,,,,,,,,,,,1128.9003630999941,1129.9121902000625,1127.980215499876,1127.980215499876,1127.980215499876,1127.980215499876,old_sceneIn_17.png,283,5.0,0.9235046999529004,,006,0,2024-09-19_14h01.28.508,Surprise recog test,2023.1.3,59.95858066005746,
283,0,283,0,,,,,,,,,,,,,,,,,,,,,,,,,,,,,,,,,,1130.7758981999941,1131.796509000007,1129.9121902000625,1129.9121902000625,1129.9121902000625,1129.9121902000625,old_sceneIn_43.png,284,5.0,0.8593017000239342,,006,0,2024-09-19_14h01.28.508,Surprise recog test,2023.1.3,59.95858066005746,
284,0,284,0,,,,,,,,,,,,,,,,,,,,,,,,,,,,,,,,,,1135.1143408000935,,1131.796509000007,1131.796509000007,1131.796509000007,1131.796509000007,new_stationery_15.png,285,2.0,3.3183959000743926,,006,0,2024-09-19_14h01.28.508,Surprise recog test,2023.1.3,59.95858066005746,
285,0,285,0,,,,,,,,,,,,,,,,,,,,,,,,,,,,,,,,,,1137.5740682999603,1138.6013211999089,1136.134727299912,1136.134727299912,1136.134727299912,1136.134727299912,old_sceneIn_11.png,286,5.0,1.4357463999185711,,006,0,2024-09-19_14h01.28.508,Surprise recog test,2023.1.3,59.95858066005746,
286,0,286,0,,,,,,,,,,,,,,,,,,,,,,,,,,,,,,,,,,1140.3405887999106,1141.3694132999517,1138.6013211999089,1138.6013211999089,1138.6013211999089,1138.6013211999089,new_sceneOut_47.png,287,5.0,1.7415016000159085,,006,0,2024-09-19_14h01.28.508,Surprise recog test,2023.1.3,59.95858066005746,
287,0,287,0,,,,,,,,,,,,,,,,,,,,,,,,,,,,,,,,,,1144.1825574000832,1145.2081591000315,1141.3694132999517,1141.3694132999517,1141.3694132999517,1141.3694132999517,new_stationery_43.png,288,5.0,2.8106641001068056,,006,0,2024-09-19_14h01.28.508,Surprise recog test,2023.1.3,59.95858066005746,
288,0,288,0,,,,,,,,,,,,,,,,,,,,,,,,,,,,,,,,,,1146.175530700013,,1145.2081591000315,1145.2081591000315,1145.2081591000315,1145.2081591000315,new_sceneOut_24.png,289,5.0,0.9698879001662135,,006,0,2024-09-19_14h01.28.508,Surprise recog test,2023.1.3,59.95858066005746,
289,0,289,0,,,,,,,,,,,,,,,,,,,,,,,,,,,,,,,,,,1147.879254499916,1148.9163305000402,1147.2080884999596,1147.2080884999596,1147.2080884999596,1147.2080884999596,old_sceneIn_32.png,290,5.0,0.67244470003061,,006,0,2024-09-19_14h01.28.508,Surprise recog test,2023.1.3,59.95858066005746,
290,0,290,0,,,,,,,,,,,,,,,,,,,,,,,,,,,,,,,,,,1151.2935202999506,1152.3105937999208,1148.9163305000402,1148.9163305000402,1148.9163305000402,1148.9163305000402,old_fruit_38.png,291,5.0,2.3821915998123586,,006,0,2024-09-19_14h01.28.508,Surprise recog test,2023.1.3,59.95858066005746,
291,0,291,0,,,,,,,,,,,,,,,,,,,,,,,,,,,,,,,,,,1153.3548397999257,1154.3705090000294,1152.3105937999208,1152.3105937999208,1152.3105937999208,1152.3105937999208,new_sceneOut_14.png,292,5.0,1.0464450002182275,,006,0,2024-09-19_14h01.28.508,Surprise recog test,2023.1.3,59.95858066005746,
292,0,292,0,,,,,,,,,,,,,,,,,,,,,,,,,,,,,,,,,,1155.062757199863,1156.0777718999889,1154.3705090000294,1154.3705090000294,1154.3705090000294,1154.3705090000294,old_sceneIn_4.png,293,5.0,0.6822281000204384,,006,0,2024-09-19_14h01.28.508,Surprise recog test,2023.1.3,59.95858066005746,
293,0,293,0,,,,,,,,,,,,,,,,,,,,,,,,,,,,,,,,,,1156.8933693999425,1157.9062069999054,1156.0777718999889,1156.0777718999889,1156.0777718999889,1156.0777718999889,new_sceneOut_18.png,294,5.0,0.8145766998641193,,006,0,2024-09-19_14h01.28.508,Surprise recog test,2023.1.3,59.95858066005746,
294,0,294,0,,,,,,,,,,,,,,,,,,,,,,,,,,,,,,,,,,1159.396238700021,1160.4088280000724,1157.9062069999054,1157.9062069999054,1157.9062069999054,1157.9062069999054,old_sceneIn_12.png,295,5.0,1.4829313999507576,,006,0,2024-09-19_14h01.28.508,Surprise recog test,2023.1.3,59.95858066005746,
295,0,295,0,,,,,,,,,,,,,,,,,,,,,,,,,,,,,,,,,,1161.2217470998876,,1160.4088280000724,1160.4088280000724,1160.4088280000724,1160.4088280000724,new_sceneOut_10.png,296,5.0,0.8082131000701338,,006,0,2024-09-19_14h01.28.508,Surprise recog test,2023.1.3,59.95858066005746,
296,0,296,0,,,,,,,,,,,,,,,,,,,,,,,,,,,,,,,,,,1163.608946399996,1164.6331881999504,1162.2536522999872,1162.2536522999872,1162.2536522999872,1162.2536522999872,new_sceneOut_50.png,297,5.0,1.3569824998266995,,006,0,2024-09-19_14h01.28.508,Surprise recog test,2023.1.3,59.95858066005746,
297,0,297,0,,,,,,,,,,,,,,,,,,,,,,,,,,,,,,,,,,1166.2796497000381,1167.3103302998934,1164.6331881999504,1164.6331881999504,1164.6331881999504,1164.6331881999504,new_fruit_26.png,298,5.0,1.6421303998213261,,006,0,2024-09-19_14h01.28.508,Surprise recog test,2023.1.3,59.95858066005746,
298,0,298,0,,,,,,,,,,,,,,,,,,,,,,,,,,,,,,,,,,1169.2544857000466,1170.262061999878,1167.3103302998934,1167.3103302998934,1167.3103302998934,1167.3103302998934,new_sceneOut_21.png,299,5.0,1.945231599966064,,006,0,2024-09-19_14h01.28.508,Surprise recog test,2023.1.3,59.95858066005746,
299,0,299,0,,,,,,,,,,,,,,,,,,,,,,,,,,,,,,,,,,1173.2776339000557,1174.2837598000187,1170.262061999878,1170.262061999878,1170.262061999878,1170.262061999878,old_stationery_30.png,300,2.0,3.005501699866727,,006,0,2024-09-19_14h01.28.508,Surprise recog test,2023.1.3,59.95858066005746,
300,0,300,0,,,,,,,,,,,,,,,,,,,,,,,,,,,,,,,,,,1175.5295323000755,1176.5375459000934,1174.2837598000187,1174.2837598000187,1174.2837598000187,1174.2837598000187,old_sceneOut_32.png,301,5.0,1.2405189001001418,,006,0,2024-09-19_14h01.28.508,Surprise recog test,2023.1.3,59.95858066005746,
301,0,301,0,,,,,,,,,,,,,,,,,,,,,,,,,,,,,,,,,,1177.5540096000768,1178.5693035998847,1176.5375459000934,1176.5375459000934,1176.5375459000934,1176.5375459000934,old_sceneOut_15.png,302,5.0,1.0130456001497805,,006,0,2024-09-19_14h01.28.508,Surprise recog test,2023.1.3,59.95858066005746,
302,0,302,0,,,,,,,,,,,,,,,,,,,,,,,,,,,,,,,,,,1180.122072499944,1181.1417970000766,1178.5693035998847,1178.5693035998847,1178.5693035998847,1178.5693035998847,old_stationery_16.png,303,1.0,1.5460255001671612,,006,0,2024-09-19_14h01.28.508,Surprise recog test,2023.1.3,59.95858066005746,
303,0,303,0,,,,,,,,,,,,,,,,,,,,,,,,,,,,,,,,,,1182.8540403998923,1183.8700604999904,1181.1417970000766,1181.1417970000766,1181.1417970000766,1181.1417970000766,new_fruit_39.png,304,3.0,1.7071286998689175,,006,0,2024-09-19_14h01.28.508,Surprise recog test,2023.1.3,59.95858066005746,
304,0,304,0,,,,,,,,,,,,,,,,,,,,,,,,,,,,,,,,,,1185.000472099986,1186.0230340000708,1183.8700604999904,1183.8700604999904,1183.8700604999904,1183.8700604999904,new_sceneOut_45.png,305,5.0,1.1291920999065042,,006,0,2024-09-19_14h01.28.508,Surprise recog test,2023.1.3,59.95858066005746,
305,0,305,0,,,,,,,,,,,,,,,,,,,,,,,,,,,,,,,,,,1188.4585019000806,1189.4618849998806,1186.0230340000708,1186.0230340000708,1186.0230340000708,1186.0230340000708,new_stationery_44.png,306,5.0,2.4372306000441313,,006,0,2024-09-19_14h01.28.508,Surprise recog test,2023.1.3,59.95858066005746,
306,0,306,0,,,,,,,,,,,,,,,,,,,,,,,,,,,,,,,,,,1190.6670822000597,1191.6853265999816,1189.4618849998806,1189.4618849998806,1189.4618849998806,1189.4618849998806,new_sceneOut_39.png,307,5.0,1.2010508000385016,,006,0,2024-09-19_14h01.28.508,Surprise recog test,2023.1.3,59.95858066005746,
307,0,307,0,,,,,,,,,,,,,,,,,,,,,,,,,,,,,,,,,,1192.4643973000348,,1191.6853265999816,1191.6853265999816,1191.6853265999816,1191.6853265999816,new_sceneIn_39.png,308,5.0,0.7765556999947876,,006,0,2024-09-19_14h01.28.508,Surprise recog test,2023.1.3,59.95858066005746,
308,0,308,0,,,,,,,,,,,,,,,,,,,,,,,,,,,,,,,,,,1196.5472190999426,1197.5681034999434,1193.486426099902,1193.486426099902,1193.486426099902,1193.486426099902,new_fruit_25.png,309,2.0,3.0548440001439303,,006,0,2024-09-19_14h01.28.508,Surprise recog test,2023.1.3,59.95858066005746,
309,0,309,0,,,,,,,,,,,,,,,,,,,,,,,,,,,,,,,,,,1198.5654414999299,1199.5863045000006,1197.5681034999434,1197.5681034999434,1197.5681034999434,1197.5681034999434,old_sceneOut_13.png,310,5.0,0.9961250000633299,,006,0,2024-09-19_14h01.28.508,Surprise recog test,2023.1.3,59.95858066005746,
310,0,310,0,,,,,,,,,,,,,,,,,,,,,,,,,,,,,,,,,,1203.1086323999334,1204.145947800018,1199.5863045000006,1199.5863045000006,1199.5863045000006,1199.5863045000006,old_stationery_8.png,311,5.0,3.523410800145939,,006,0,2024-09-19_14h01.28.508,Surprise recog test,2023.1.3,59.95858066005746,
311,0,311,0,,,,,,,,,,,,,,,,,,,,,,,,,,,,,,,,,,1205.8345759999938,1206.8469839999452,1204.145947800018,1204.145947800018,1204.145947800018,1204.145947800018,new_sceneOut_38.png,312,5.0,1.690488199936226,,006,0,2024-09-19_14h01.28.508,Surprise recog test,2023.1.3,59.95858066005746,
312,0,312,0,,,,,,,,,,,,,,,,,,,,,,,,,,,,,,,,,,1209.9914575999137,1210.9964262999129,1206.8469839999452,1206.8469839999452,1206.8469839999452,1206.8469839999452,old_stationery_45.png,313,2.0,3.138348399894312,,006,0,2024-09-19_14h01.28.508,Surprise recog test,2023.1.3,59.95858066005746,
313,0,313,0,,,,,,,,,,,,,,,,,,,,,,,,,,,,,,,,,,1213.4864356999751,1214.5182513999753,1210.9964262999129,1210.9964262999129,1210.9964262999129,1210.9964262999129,new_fruit_31.png,314,4.0,2.4842467000707984,,006,0,2024-09-19_14h01.28.508,Surprise recog test,2023.1.3,59.95858066005746,
314,0,314,0,,,,,,,,,,,,,,,,,,,,,,,,,,,,,,,,,,1216.9805725000333,1217.9958711999934,1214.5182513999753,1214.5182513999753,1214.5182513999753,1214.5182513999753,new_stationery_37.png,315,5.0,2.4609467999543995,,006,0,2024-09-19_14h01.28.508,Surprise recog test,2023.1.3,59.95858066005746,
315,0,315,0,,,,,,,,,,,,,,,,,,,,,,,,,,,,,,,,,,1219.754619400017,1220.7862211000174,1217.9958711999934,1217.9958711999934,1217.9958711999934,1217.9958711999934,new_stationery_23.png,316,1.0,1.7549690001178533,,006,0,2024-09-19_14h01.28.508,Surprise recog test,2023.1.3,59.95858066005746,
316,0,316,0,,,,,,,,,,,,,,,,,,,,,,,,,,,,,,,,,,1221.8709191998933,,1220.7862211000174,1220.7862211000174,1220.7862211000174,1220.7862211000174,new_sceneIn_50.png,317,5.0,1.0875403000973165,,006,0,2024-09-19_14h01.28.508,Surprise recog test,2023.1.3,59.95858066005746,
317,0,317,0,,,,,,,,,,,,,,,,,,,,,,,,,,,,,,,,,,1224.33058599988,1225.3571530000772,1222.9090807999019,1222.9090807999019,1222.9090807999019,1222.9090807999019,new_sceneOut_42.png,318,5.0,1.425436600111425,,006,0,2024-09-19_14h01.28.508,Surprise recog test,2023.1.3,59.95858066005746,
318,0,318,0,,,,,,,,,,,,,,,,,,,,,,,,,,,,,,,,,,1226.4314391000662,1227.4479038999416,1225.3571530000772,1225.3571530000772,1225.3571530000772,1225.3571530000772,new_sceneOut_32.png,319,5.0,1.076647900044918,,006,0,2024-09-19_14h01.28.508,Surprise recog test,2023.1.3,59.95858066005746,
319,0,319,0,,,,,,,,,,,,,,,,,,,,,,,,,,,,,,,,,,1228.267125699902,1229.2943027000874,1227.4479038999416,1227.4479038999416,1227.4479038999416,1227.4479038999416,old_sceneOut_10.png,320,5.0,0.8149689000565559,,006,0,2024-09-19_14h01.28.508,Surprise recog test,2023.1.3,59.95858066005746,
320,0,320,0,,,,,,,,,,,,,,,,,,,,,,,,,,,,,,,,,,1230.8088787999004,1231.8231273000129,1229.2943027000874,1229.2943027000874,1229.2943027000874,1229.2943027000874,new_sceneOut_33.png,321,5.0,1.5100008000154048,,006,0,2024-09-19_14h01.28.508,Surprise recog test,2023.1.3,59.95858066005746,
321,0,321,0,,,,,,,,,,,,,,,,,,,,,,,,,,,,,,,,,,1233.3334689000621,1234.349493100075,1231.8231273000129,1231.8231273000129,1231.8231273000129,1231.8231273000129,old_sceneOut_37.png,322,5.0,1.5059578001964837,,006,0,2024-09-19_14h01.28.508,Surprise recog test,2023.1.3,59.95858066005746,
322,0,322,0,,,,,,,,,,,,,,,,,,,,,,,,,,,,,,,,,,1235.7025393000804,1236.7351752000395,1234.349493100075,1234.349493100075,1234.349493100075,1234.349493100075,old_sceneOut_26.png,323,5.0,1.349508199840784,,006,0,2024-09-19_14h01.28.508,Surprise recog test,2023.1.3,59.95858066005746,
323,0,323,0,,,,,,,,,,,,,,,,,,,,,,,,,,,,,,,,,,1239.2455827998929,1240.2697530000005,1236.7351752000395,1236.7351752000395,1236.7351752000395,1236.7351752000395,new_fruit_48.png,324,5.0,2.5132601000368595,,006,0,2024-09-19_14h01.28.508,Surprise recog test,2023.1.3,59.95858066005746,
324,0,324,0,,,,,,,,,,,,,,,,,,,,,,,,,,,,,,,,,,1241.0927581000142,1242.1090547000058,1240.2697530000005,1240.2697530000005,1240.2697530000005,1240.2697530000005,new_sceneOut_26.png,325,5.0,0.8231393999885768,,006,0,2024-09-19_14h01.28.508,Surprise recog test,2023.1.3,59.95858066005746,
325,0,325,0,,,,,,,,,,,,,,,,,,,,,,,,,,,,,,,,,,1243.2154262999538,1244.2282435998786,1242.1090547000058,1242.1090547000058,1242.1090547000058,1242.1090547000058,new_sceneOut_16.png,326,5.0,1.0986065999604762,,006,0,2024-09-19_14h01.28.508,Surprise recog test,2023.1.3,59.95858066005746,
326,0,326,0,,,,,,,,,,,,,,,,,,,,,,,,,,,,,,,,,,1247.205491800094,1248.2256632000208,1244.2282435998786,1244.2282435998786,1244.2282435998786,1244.2282435998786,old_fruit_26.png,327,5.0,2.9698573001660407,,006,0,2024-09-19_14h01.28.508,Surprise recog test,2023.1.3,59.95858066005746,
327,0,327,0,,,,,,,,,,,,,,,,,,,,,,,,,,,,,,,,,,1249.1593820999842,,1248.2256632000208,1248.2256632000208,1248.2256632000208,1248.2256632000208,old_sceneOut_4.png,328,5.0,0.9344514000695199,,006,0,2024-09-19_14h01.28.508,Surprise recog test,2023.1.3,59.95858066005746,
328,0,328,0,,,,,,,,,,,,,,,,,,,,,,,,,,,,,,,,,,1251.2091826999094,1252.2314233998768,1250.1824278000277,1250.1824278000277,1250.1824278000277,1250.1824278000277,new_sceneOut_15.png,329,5.0,1.017966200131923,,006,0,2024-09-19_14h01.28.508,Surprise recog test,2023.1.3,59.95858066005746,
329,0,329,0,,,,,,,,,,,,,,,,,,,,,,,,,,,,,,,,,,1253.3442059999797,1254.3533115000464,1252.2314233998768,1252.2314233998768,1252.2314233998768,1252.2314233998768,old_sceneOut_50.png,330,5.0,1.111234299838543,,006,0,2024-09-19_14h01.28.508,Surprise recog test,2023.1.3,59.95858066005746,
330,0,330,0,,,,,,,,,,,,,,,,,,,,,,,,,,,,,,,,,,1255.2988221999258,,1254.3533115000464,1254.3533115000464,1254.3533115000464,1254.3533115000464,old_sceneOut_49.png,331,5.0,0.9414587998762727,,006,0,2024-09-19_14h01.28.508,Surprise recog test,2023.1.3,59.95858066005746,
331,0,331,0,,,,,,,,,,,,,,,,,,,,,,,,,,,,,,,,,,1258.3757974999025,1259.404419499915,1256.328423900064,1256.328423900064,1256.328423900064,1256.328423900064,old_stationery_36.png,332,1.0,2.0477106999605894,,006,0,2024-09-19_14h01.28.508,Surprise recog test,2023.1.3,59.95858066005746,
332,0,332,0,,,,,,,,,,,,,,,,,,,,,,,,,,,,,,,,,,1261.4232671000063,1262.4408177998848,1259.404419499915,1259.404419499915,1259.404419499915,1259.404419499915,new_sceneIn_15.png,333,5.0,2.0204080999828875,,006,0,2024-09-19_14h01.28.508,Surprise recog test,2023.1.3,59.95858066005746,
333,0,333,0,,,,,,,,,,,,,,,,,,,,,,,,,,,,,,,,,,1263.6387614000123,,1262.4408177998848,1262.4408177998848,1262.4408177998848,1262.4408177998848,new_sceneIn_34.png,334,5.0,1.195677800104022,,006,0,2024-09-19_14h01.28.508,Surprise recog test,2023.1.3,59.95858066005746,
334,0,334,0,,,,,,,,,,,,,,,,,,,,,,,,,,,,,,,,,,1267.4759797998704,,1264.6732492998708,1264.6732492998708,1264.6732492998708,1264.6732492998708,old_fruit_1.png,335,5.0,2.805638700025156,,006,0,2024-09-19_14h01.28.508,Surprise recog test,2023.1.3,59.95858066005746,
335,0,335,0,,,,,,,,,,,,,,,,,,,,,,,,,,,,,,,,,,1269.7902084998786,1270.812544299988,1268.5074543000665,1268.5074543000665,1268.5074543000665,1268.5074543000665,old_sceneIn_24.png,336,5.0,1.2833032000344247,,006,0,2024-09-19_14h01.28.508,Surprise recog test,2023.1.3,59.95858066005746,
336,0,336,0,,,,,,,,,,,,,,,,,,,,,,,,,,,,,,,,,,1273.2074601999484,1274.2164616000373,1270.812544299988,1270.812544299988,1270.812544299988,1270.812544299988,old_fruit_16.png,337,5.0,2.397823699982837,,006,0,2024-09-19_14h01.28.508,Surprise recog test,2023.1.3,59.95858066005746,
337,0,337,0,,,,,,,,,,,,,,,,,,,,,,,,,,,,,,,,,,1275.4829267999157,,1274.2164616000373,1274.2164616000373,1274.2164616000373,1274.2164616000373,new_sceneOut_29.png,338,5.0,1.2627576000522822,,006,0,2024-09-19_14h01.28.508,Surprise recog test,2023.1.3,59.95858066005746,
338,0,338,0,,,,,,,,,,,,,,,,,,,,,,,,,,,,,,,,,,1279.1031446999405,,1276.508729299996,1276.508729299996,1276.508729299996,1276.508729299996,old_sceneIn_27.png,339,5.0,2.595202500000596,,006,0,2024-09-19_14h01.28.508,Surprise recog test,2023.1.3,59.95858066005746,
339,0,339,0,,,,,,,,,,,,,,,,,,,,,,,,,,,,,,,,,,1282.8686979999766,1283.8876006999053,1280.1355741000734,1280.1355741000734,1280.1355741000734,1280.1355741000734,new_fruit_3.png,340,5.0,2.7288649000693113,,006,0,2024-09-19_14h01.28.508,Surprise recog test,2023.1.3,59.95858066005746,
340,0,340,0,,,,,,,,,,,,,,,,,,,,,,,,,,,,,,,,,,1285.9045780000743,1286.911700299941,1283.8876006999053,1283.8876006999053,1283.8876006999053,1283.8876006999053,new_sceneIn_9.png,341,5.0,2.0141739998944104,,006,0,2024-09-19_14h01.28.508,Surprise recog test,2023.1.3,59.95858066005746,
341,0,341,0,,,,,,,,,,,,,,,,,,,,,,,,,,,,,,,,,,1288.1662965998985,1289.1788381000515,1286.911700299941,1286.911700299941,1286.911700299941,1286.911700299941,new_sceneOut_44.png,342,5.0,1.2519890998955816,,006,0,2024-09-19_14h01.28.508,Surprise recog test,2023.1.3,59.95858066005746,
342,0,342,0,,,,,,,,,,,,,,,,,,,,,,,,,,,,,,,,,,1291.2045360999182,1292.2177830999717,1289.1788381000515,1289.1788381000515,1289.1788381000515,1289.1788381000515,new_sceneIn_32.png,343,5.0,2.0221889000386,,006,0,2024-09-19_14h01.28.508,Surprise recog test,2023.1.3,59.95858066005746,
343,0,343,0,,,,,,,,,,,,,,,,,,,,,,,,,,,,,,,,,,1293.6234708998818,1294.645309699932,1292.2177830999717,1292.2177830999717,1292.2177830999717,1292.2177830999717,new_sceneOut_22.png,344,5.0,1.4005597000941634,,006,0,2024-09-19_14h01.28.508,Surprise recog test,2023.1.3,59.95858066005746,
344,0,344,0,,,,,,,,,,,,,,,,,,,,,,,,,,,,,,,,,,1297.3802501000464,1298.3886313999537,1294.645309699932,1294.645309699932,1294.645309699932,1294.645309699932,old_stationery_19.png,345,1.0,2.7376614999957383,,006,0,2024-09-19_14h01.28.508,Surprise recog test,2023.1.3,59.95858066005746,
345,0,345,0,,,,,,,,,,,,,,,,,,,,,,,,,,,,,,,,,,1300.7310844999738,1301.7531765000895,1298.3886313999537,1298.3886313999537,1298.3886313999537,1298.3886313999537,old_fruit_21.png,346,3.0,2.3384340000338852,,006,0,2024-09-19_14h01.28.508,Surprise recog test,2023.1.3,59.95858066005746,
346,0,346,0,,,,,,,,,,,,,,,,,,,,,,,,,,,,,,,,,,1303.4539773999713,1304.4807185998652,1301.7531765000895,1301.7531765000895,1301.7531765000895,1301.7531765000895,old_sceneIn_48.png,347,5.0,1.7022961000911891,,006,0,2024-09-19_14h01.28.508,Surprise recog test,2023.1.3,59.95858066005746,
347,0,347,0,,,,,,,,,,,,,,,,,,,,,,,,,,,,,,,,,,1305.806222999934,1306.81306519988,1304.4807185998652,1304.4807185998652,1304.4807185998652,1304.4807185998652,old_sceneIn_2.png,348,5.0,1.3276472000870854,,006,0,2024-09-19_14h01.28.508,Surprise recog test,2023.1.3,59.95858066005746,
348,0,348,0,,,,,,,,,,,,,,,,,,,,,,,,,,,,,,,,,,1308.8037493999582,1309.8305806000717,1306.81306519988,1306.81306519988,1306.81306519988,1306.81306519988,new_sceneIn_5.png,349,5.0,1.9859360000118613,,006,0,2024-09-19_14h01.28.508,Surprise recog test,2023.1.3,59.95858066005746,
349,0,349,0,,,,,,,,,,,,,,,,,,,,,,,,,,,,,,,,,,1312.1727187000215,1313.1963466999587,1309.8305806000717,1309.8305806000717,1309.8305806000717,1309.8305806000717,new_stationery_33.png,350,5.0,2.3444535001181066,,006,0,2024-09-19_14h01.28.508,Surprise recog test,2023.1.3,59.95858066005746,
350,0,350,0,,,,,,,,,,,,,,,,,,,,,,,,,,,,,,,,,,1314.967027900042,1316.0004264998715,1313.1963466999587,1313.1963466999587,1313.1963466999587,1313.1963466999587,old_fruit_17.png,351,5.0,1.7682990999892354,,006,0,2024-09-19_14h01.28.508,Surprise recog test,2023.1.3,59.95858066005746,
351,0,351,0,,,,,,,,,,,,,,,,,,,,,,,,,,,,,,,,,,1320.2698550000787,,1316.0004264998715,1316.0004264998715,1316.0004264998715,1316.0004264998715,new_stationery_45.png,352,3.0,4.269776899833232,,006,0,2024-09-19_14h01.28.508,Surprise recog test,2023.1.3,59.95858066005746,
352,0,352,0,,,,,,,,,,,,,,,,,,,,,,,,,,,,,,,,,,1323.1157082999125,1324.1420072000474,1321.309608399868,1321.309608399868,1321.309608399868,1321.309608399868,new_sceneOut_41.png,353,5.0,1.8095658000092953,,006,0,2024-09-19_14h01.28.508,Surprise recog test,2023.1.3,59.95858066005746,
353,0,353,0,,,,,,,,,,,,,,,,,,,,,,,,,,,,,,,,,,1325.0228047999553,,1324.1420072000474,1324.1420072000474,1324.1420072000474,1324.1420072000474,new_sceneOut_13.png,354,5.0,0.8841864999849349,,006,0,2024-09-19_14h01.28.508,Surprise recog test,2023.1.3,59.95858066005746,
354,0,354,0,,,,,,,,,,,,,,,,,,,,,,,,,,,,,,,,,,1328.820934199961,1329.8492429000326,1326.061888199998,1326.061888199998,1326.061888199998,1326.061888199998,new_stationery_20.png,355,5.0,2.7627355000004172,,006,0,2024-09-19_14h01.28.508,Surprise recog test,2023.1.3,59.95858066005746,
