trial_loop.thisRepN,trial_loop.thisTrialN,trial_loop.thisN,trial_loop.thisIndex,VAS_slider.started,VAS_text.started,VAS_notstressed_text.started,VAS_stressed_text.started,continue_input.started,continue_text.started,label0.started,label10.started,label20.started,label30.started,label40.started,label50.started,label60.started,label70.started,label80.started,label90.started,label100.started,VAS_slider.response,VAS_slider.rt,VAS_slider.history,Answer_VAS,continue_input.keys,continue_input.rt,continue_input.duration,instruction_text.started,continue_text_2.started,continue_input_2.started,continue_input_2.keys,continue_input_2.rt,continue_input_2.duration,example_text.started,example_slider_2.started,example_image.started,example_slider_2.response,example_slider_2.rt,fixcross.started,fixcross.stopped,front_square.started,stim_images.started,trial_inst_images.started,slider_images.started,thisImg,trial_count,slider_images.response,slider_images.rt,outro.started,participant,condition,date,expName,psychopyVersion,frameRate,
,,,,42.75897550000809,42.75897550000809,42.75897550000809,42.75897550000809,42.75897550000809,42.75897550000809,42.75897550000809,42.75897550000809,42.75897550000809,42.75897550000809,42.75897550000809,42.75897550000809,42.75897550000809,42.75897550000809,42.75897550000809,42.75897550000809,42.75897550000809,None,None,[],0,space,16.31584669998847,None,,,,,,,,,,,,,,,,,,,,,,,007,0,2024-10-10_13h57.34.615,Surprise recog test,2023.1.3,59.95329638942133,
,,,,,,,,,,,,,,,,,,,,,,,,,,,,59.15490349999163,59.15490349999163,59.15490349999163,space,17.30421800003387,None,,,,,,,,,,,,,,,,,007,0,2024-10-10_13h57.34.615,Surprise recog test,2023.1.3,59.95329638942133,
0,0,0,0,,,,,,,,,,,,,,,,,,,,,,,,,,,,,,,76.5897157000145,76.5897157000145,76.5897157000145,3.0,5.766011100029573,86.56091939995531,83.30965930002276,83.30965930002276,83.30965930002276,83.30965930002276,83.30965930002276,old_fruit_34.png,1,5.0,3.249691800097935,,007,0,2024-10-10_13h57.34.615,Surprise recog test,2023.1.3,59.95329638942133,
1,0,1,0,,,,,,,,,,,,,,,,,,,,,,,,,,,,,,,,,,,,89.88590440002736,90.90496449999046,87.58177080005407,87.58177080005407,87.58177080005407,87.58177080005407,new_sceneOut_8.png,2,5.0,2.2992061000550166,,007,0,2024-10-10_13h57.34.615,Surprise recog test,2023.1.3,59.95329638942133,
2,0,2,0,,,,,,,,,,,,,,,,,,,,,,,,,,,,,,,,,,,,92.3577382999938,93.3823406000156,90.90496449999046,90.90496449999046,90.90496449999046,90.90496449999046,new_stationery_25.png,3,5.0,1.4489572000456974,,007,0,2024-10-10_13h57.34.615,Surprise recog test,2023.1.3,59.95329638942133,
3,0,3,0,,,,,,,,,,,,,,,,,,,,,,,,,,,,,,,,,,,,95.81977880001068,96.8415392000461,93.3823406000156,93.3823406000156,93.3823406000156,93.3823406000156,old_stationery_5.png,4,1.0,2.439834199962206,,007,0,2024-10-10_13h57.34.615,Surprise recog test,2023.1.3,59.95329638942133,
4,0,4,0,,,,,,,,,,,,,,,,,,,,,,,,,,,,,,,,,,,,98.5817808000138,99.58911810000427,96.8415392000461,96.8415392000461,96.8415392000461,96.8415392000461,old_sceneOut_18.png,5,5.0,1.7352100999560207,,007,0,2024-10-10_13h57.34.615,Surprise recog test,2023.1.3,59.95329638942133,
5,0,5,0,,,,,,,,,,,,,,,,,,,,,,,,,,,,,,,,,,,,101.85592520004138,,99.58911810000427,99.58911810000427,99.58911810000427,99.58911810000427,old_stationery_18.png,6,1.0,2.260813200031407,,007,0,2024-10-10_13h57.34.615,Surprise recog test,2023.1.3,59.95329638942133,
6,0,6,0,,,,,,,,,,,,,,,,,,,,,,,,,,,,,,,,,,,,106.14042149996385,107.16041170002427,102.87740650004707,102.87740650004707,102.87740650004707,102.87740650004707,old_sceneIn_33.png,7,3.0,3.2592324999859557,,007,0,2024-10-10_13h57.34.615,Surprise recog test,2023.1.3,59.95329638942133,
7,0,7,0,,,,,,,,,,,,,,,,,,,,,,,,,,,,,,,,,,,,110.27882610005327,111.28514109994285,107.16041170002427,107.16041170002427,107.16041170002427,107.16041170002427,new_stationery_50.png,8,5.0,3.1209912999765947,,007,0,2024-10-10_13h57.34.615,Surprise recog test,2023.1.3,59.95329638942133,
8,0,8,0,,,,,,,,,,,,,,,,,,,,,,,,,,,,,,,,,,,,113.4985356000252,,111.28514109994285,111.28514109994285,111.28514109994285,111.28514109994285,old_sceneIn_23.png,9,5.0,2.2082634000107646,,007,0,2024-10-10_13h57.34.615,Surprise recog test,2023.1.3,59.95329638942133,
9,0,9,0,,,,,,,,,,,,,,,,,,,,,,,,,,,,,,,,,,,,116.56067589996383,117.57518549996894,114.52039990003686,114.52039990003686,114.52039990003686,114.52039990003686,old_stationery_15.png,10,1.0,2.034400900010951,,007,0,2024-10-10_13h57.34.615,Surprise recog test,2023.1.3,59.95329638942133,
10,0,10,0,,,,,,,,,,,,,,,,,,,,,,,,,,,,,,,,,,,,119.598167499993,120.60917399998289,117.57518549996894,117.57518549996894,117.57518549996894,117.57518549996894,new_sceneIn_1.png,11,5.0,2.0194000999908894,,007,0,2024-10-10_13h57.34.615,Surprise recog test,2023.1.3,59.95329638942133,
11,0,11,0,,,,,,,,,,,,,,,,,,,,,,,,,,,,,,,,,,,,122.60569019999821,,120.60917399998289,120.60917399998289,120.60917399998289,120.60917399998289,new_stationery_13.png,12,5.0,1.9926682999357581,,007,0,2024-10-10_13h57.34.615,Surprise recog test,2023.1.3,59.95329638942133,
12,0,12,0,,,,,,,,,,,,,,,,,,,,,,,,,,,,,,,,,,,,125.99686900002416,127.02651810005773,123.62472299998626,123.62472299998626,123.62472299998626,123.62472299998626,new_sceneIn_48.png,13,5.0,2.368444300023839,,007,0,2024-10-10_13h57.34.615,Surprise recog test,2023.1.3,59.95329638942133,
13,0,13,0,,,,,,,,,,,,,,,,,,,,,,,,,,,,,,,,,,,,128.59218140004668,129.61392220004927,127.02651810005773,127.02651810005773,127.02651810005773,127.02651810005773,old_sceneOut_14.png,14,5.0,1.5653781000291929,,007,0,2024-10-10_13h57.34.615,Surprise recog test,2023.1.3,59.95329638942133,
14,0,14,0,,,,,,,,,,,,,,,,,,,,,,,,,,,,,,,,,,,,131.56906689994503,132.58250769996084,129.61392220004927,129.61392220004927,129.61392220004927,129.61392220004927,new_stationery_44.png,15,5.0,1.9584201000398025,,007,0,2024-10-10_13h57.34.615,Surprise recog test,2023.1.3,59.95329638942133,
15,0,15,0,,,,,,,,,,,,,,,,,,,,,,,,,,,,,,,,,,,,134.14288759999909,135.17103399999905,132.58250769996084,132.58250769996084,132.58250769996084,132.58250769996084,old_sceneIn_5.png,16,5.0,1.5542895999969915,,007,0,2024-10-10_13h57.34.615,Surprise recog test,2023.1.3,59.95329638942133,
16,0,16,0,,,,,,,,,,,,,,,,,,,,,,,,,,,,,,,,,,,,137.97498509997968,139.00772260001395,135.17103399999905,135.17103399999905,135.17103399999905,135.17103399999905,old_fruit_30.png,17,1.0,2.8076426000334322,,007,0,2024-10-10_13h57.34.615,Surprise recog test,2023.1.3,59.95329638942133,
17,0,17,0,,,,,,,,,,,,,,,,,,,,,,,,,,,,,,,,,,,,140.96907560003456,141.9762738000136,139.00772260001395,139.00772260001395,139.00772260001395,139.00772260001395,new_fruit_16.png,18,5.0,1.9622504999861121,,007,0,2024-10-10_13h57.34.615,Surprise recog test,2023.1.3,59.95329638942133,
18,0,18,0,,,,,,,,,,,,,,,,,,,,,,,,,,,,,,,,,,,,144.7615062999539,145.79348340001889,141.9762738000136,141.9762738000136,141.9762738000136,141.9762738000136,new_sceneOut_44.png,19,5.0,2.7804954999592155,,007,0,2024-10-10_13h57.34.615,Surprise recog test,2023.1.3,59.95329638942133,
19,0,19,0,,,,,,,,,,,,,,,,,,,,,,,,,,,,,,,,,,,,149.6165711999638,150.64449600002263,145.79348340001889,145.79348340001889,145.79348340001889,145.79348340001889,new_stationery_22.png,20,4.0,3.8223902999889106,,007,0,2024-10-10_13h57.34.615,Surprise recog test,2023.1.3,59.95329638942133,
20,0,20,0,,,,,,,,,,,,,,,,,,,,,,,,,,,,,,,,,,,,152.55415860004723,153.5839104000479,150.64449600002263,150.64449600002263,150.64449600002263,150.64449600002263,new_sceneIn_34.png,21,5.0,1.9114347000140697,,007,0,2024-10-10_13h57.34.615,Surprise recog test,2023.1.3,59.95329638942133,
21,0,21,0,,,,,,,,,,,,,,,,,,,,,,,,,,,,,,,,,,,,155.3977582999505,156.42013620003127,153.5839104000479,153.5839104000479,153.5839104000479,153.5839104000479,old_stationery_8.png,22,1.0,1.814772400073707,,007,0,2024-10-10_13h57.34.615,Surprise recog test,2023.1.3,59.95329638942133,
22,0,22,0,,,,,,,,,,,,,,,,,,,,,,,,,,,,,,,,,,,,158.42432710004505,159.45209339994472,156.42013620003127,156.42013620003127,156.42013620003127,156.42013620003127,new_stationery_49.png,23,5.0,2.0051312999567017,,007,0,2024-10-10_13h57.34.615,Surprise recog test,2023.1.3,59.95329638942133,
23,0,23,0,,,,,,,,,,,,,,,,,,,,,,,,,,,,,,,,,,,,160.9690936000552,161.98848729999736,159.45209339994472,159.45209339994472,159.45209339994472,159.45209339994472,old_sceneIn_36.png,24,5.0,1.5151193999918178,,007,0,2024-10-10_13h57.34.615,Surprise recog test,2023.1.3,59.95329638942133,
24,0,24,0,,,,,,,,,,,,,,,,,,,,,,,,,,,,,,,,,,,,164.3051535000559,165.32698580005672,161.98848729999736,161.98848729999736,161.98848729999736,161.98848729999736,new_stationery_45.png,25,5.0,2.314068599953316,,007,0,2024-10-10_13h57.34.615,Surprise recog test,2023.1.3,59.95329638942133,
25,0,25,0,,,,,,,,,,,,,,,,,,,,,,,,,,,,,,,,,,,,166.26275490003172,167.29438099998515,165.32698580005672,165.32698580005672,165.32698580005672,165.32698580005672,new_stationery_27.png,26,5.0,0.9377932000206783,,007,0,2024-10-10_13h57.34.615,Surprise recog test,2023.1.3,59.95329638942133,
26,0,26,0,,,,,,,,,,,,,,,,,,,,,,,,,,,,,,,,,,,,168.46191199996974,,167.29438099998515,167.29438099998515,167.29438099998515,167.29438099998515,old_sceneIn_3.png,27,5.0,1.1688380000414327,,007,0,2024-10-10_13h57.34.615,Surprise recog test,2023.1.3,59.95329638942133,
27,0,27,0,,,,,,,,,,,,,,,,,,,,,,,,,,,,,,,,,,,,171.0098500000313,172.0332132000476,169.4833572000498,169.4833572000498,169.4833572000498,169.4833572000498,old_sceneIn_21.png,28,5.0,1.5220219000475481,,007,0,2024-10-10_13h57.34.615,Surprise recog test,2023.1.3,59.95329638942133,
28,0,28,0,,,,,,,,,,,,,,,,,,,,,,,,,,,,,,,,,,,,173.05202639999334,174.0820548000047,172.0332132000476,172.0332132000476,172.0332132000476,172.0332132000476,new_sceneOut_29.png,29,5.0,1.022219399921596,,007,0,2024-10-10_13h57.34.615,Surprise recog test,2023.1.3,59.95329638942133,
29,0,29,0,,,,,,,,,,,,,,,,,,,,,,,,,,,,,,,,,,,,175.20404410001356,176.21972429996822,174.0820548000047,174.0820548000047,174.0820548000047,174.0820548000047,old_fruit_49.png,30,5.0,1.1240709000267088,,007,0,2024-10-10_13h57.34.615,Surprise recog test,2023.1.3,59.95329638942133,
30,0,30,0,,,,,,,,,,,,,,,,,,,,,,,,,,,,,,,,,,,,177.13373929995578,178.15245589998085,176.21972429996822,176.21972429996822,176.21972429996822,176.21972429996822,old_sceneIn_10.png,31,5.0,0.9084847000194713,,007,0,2024-10-10_13h57.34.615,Surprise recog test,2023.1.3,59.95329638942133,
31,0,31,0,,,,,,,,,,,,,,,,,,,,,,,,,,,,,,,,,,,,179.55708000005689,180.5833931999514,178.15245589998085,178.15245589998085,178.15245589998085,178.15245589998085,old_sceneIn_13.png,32,5.0,1.4069445000495762,,007,0,2024-10-10_13h57.34.615,Surprise recog test,2023.1.3,59.95329638942133,
32,0,32,0,,,,,,,,,,,,,,,,,,,,,,,,,,,,,,,,,,,,182.03378409997094,183.04665669996757,180.5833931999514,180.5833931999514,180.5833931999514,180.5833931999514,new_stationery_32.png,33,5.0,1.4527624000329524,,007,0,2024-10-10_13h57.34.615,Surprise recog test,2023.1.3,59.95329638942133,
33,0,33,0,,,,,,,,,,,,,,,,,,,,,,,,,,,,,,,,,,,,184.16851139999926,185.1803509000456,183.04665669996757,183.04665669996757,183.04665669996757,183.04665669996757,old_sceneOut_16.png,34,5.0,1.1177155999466777,,007,0,2024-10-10_13h57.34.615,Surprise recog test,2023.1.3,59.95329638942133,
34,0,34,0,,,,,,,,,,,,,,,,,,,,,,,,,,,,,,,,,,,,186.81159020005725,,185.1803509000456,185.1803509000456,185.1803509000456,185.1803509000456,old_stationery_47.png,35,1.0,1.6251714000245556,,007,0,2024-10-10_13h57.34.615,Surprise recog test,2023.1.3,59.95329638942133,
35,0,35,0,,,,,,,,,,,,,,,,,,,,,,,,,,,,,,,,,,,,189.8718336999882,190.88368089997675,187.84322230005637,187.84322230005637,187.84322230005637,187.84322230005637,old_sceneIn_19.png,36,3.0,2.0309496000409126,,007,0,2024-10-10_13h57.34.615,Surprise recog test,2023.1.3,59.95329638942133,
36,0,36,0,,,,,,,,,,,,,,,,,,,,,,,,,,,,,,,,,,,,192.668309199973,193.7014795000432,190.88368089997675,190.88368089997675,190.88368089997675,190.88368089997675,new_fruit_49.png,37,1.0,1.783415999962017,,007,0,2024-10-10_13h57.34.615,Surprise recog test,2023.1.3,59.95329638942133,
37,0,37,0,,,,,,,,,,,,,,,,,,,,,,,,,,,,,,,,,,,,196.04916050005704,197.05257830000482,193.7014795000432,193.7014795000432,193.7014795000432,193.7014795000432,old_sceneIn_29.png,38,5.0,2.3489427000749856,,007,0,2024-10-10_13h57.34.615,Surprise recog test,2023.1.3,59.95329638942133,
38,0,38,0,,,,,,,,,,,,,,,,,,,,,,,,,,,,,,,,,,,,198.808988600038,199.82455749996006,197.05257830000482,197.05257830000482,197.05257830000482,197.05257830000482,new_fruit_11.png,39,1.0,1.7505610999651253,,007,0,2024-10-10_13h57.34.615,Surprise recog test,2023.1.3,59.95329638942133,
39,0,39,0,,,,,,,,,,,,,,,,,,,,,,,,,,,,,,,,,,,,202.72908309998456,203.75804390001576,199.82455749996006,199.82455749996006,199.82455749996006,199.82455749996006,old_fruit_15.png,40,3.0,2.898488200036809,,007,0,2024-10-10_13h57.34.615,Surprise recog test,2023.1.3,59.95329638942133,
40,0,40,0,,,,,,,,,,,,,,,,,,,,,,,,,,,,,,,,,,,,207.19452190003358,,203.75804390001576,203.75804390001576,203.75804390001576,203.75804390001576,old_fruit_47.png,41,5.0,3.4391198999946937,,007,0,2024-10-10_13h57.34.615,Surprise recog test,2023.1.3,59.95329638942133,
41,0,41,0,,,,,,,,,,,,,,,,,,,,,,,,,,,,,,,,,,,,209.26352939999197,,208.22604189999402,208.22604189999402,208.22604189999402,208.22604189999402,new_sceneOut_6.png,42,5.0,1.0398610999109223,,007,0,2024-10-10_13h57.34.615,Surprise recog test,2023.1.3,59.95329638942133,
42,0,42,0,,,,,,,,,,,,,,,,,,,,,,,,,,,,,,,,,,,,211.90167329995893,212.9282366000116,210.29539340001065,210.29539340001065,210.29539340001065,210.29539340001065,new_fruit_45.png,43,3.0,1.6064587000291795,,007,0,2024-10-10_13h57.34.615,Surprise recog test,2023.1.3,59.95329638942133,
43,0,43,0,,,,,,,,,,,,,,,,,,,,,,,,,,,,,,,,,,,,214.83653139998205,215.86413080000784,212.9282366000116,212.9282366000116,212.9282366000116,212.9282366000116,new_stationery_43.png,44,5.0,1.908149000024423,,007,0,2024-10-10_13h57.34.615,Surprise recog test,2023.1.3,59.95329638942133,
44,0,44,0,,,,,,,,,,,,,,,,,,,,,,,,,,,,,,,,,,,,218.0931075999979,219.12239809997845,215.86413080000784,215.86413080000784,215.86413080000784,215.86413080000784,old_stationery_3.png,45,5.0,2.2324928001035005,,007,0,2024-10-10_13h57.34.615,Surprise recog test,2023.1.3,59.95329638942133,
45,0,45,0,,,,,,,,,,,,,,,,,,,,,,,,,,,,,,,,,,,,220.0067639000481,221.0347537000198,219.12239809997845,219.12239809997845,219.12239809997845,219.12239809997845,old_sceneIn_43.png,46,5.0,0.8868497000075877,,007,0,2024-10-10_13h57.34.615,Surprise recog test,2023.1.3,59.95329638942133,
46,0,46,0,,,,,,,,,,,,,,,,,,,,,,,,,,,,,,,,,,,,222.02623760001734,223.05708629998844,221.0347537000198,221.0347537000198,221.0347537000198,221.0347537000198,old_sceneIn_32.png,47,5.0,0.9926128999795765,,007,0,2024-10-10_13h57.34.615,Surprise recog test,2023.1.3,59.95329638942133,
47,0,47,0,,,,,,,,,,,,,,,,,,,,,,,,,,,,,,,,,,,,223.7841110000154,224.81229749997146,223.05708629998844,223.05708629998844,223.05708629998844,223.05708629998844,old_sceneOut_21.png,48,5.0,0.7293308000080287,,007,0,2024-10-10_13h57.34.615,Surprise recog test,2023.1.3,59.95329638942133,
48,0,48,0,,,,,,,,,,,,,,,,,,,,,,,,,,,,,,,,,,,,225.7795503999805,226.806972600054,224.81229749997146,224.81229749997146,224.81229749997146,224.81229749997146,new_stationery_7.png,49,5.0,0.9688332000514492,,007,0,2024-10-10_13h57.34.615,Surprise recog test,2023.1.3,59.95329638942133,
49,0,49,0,,,,,,,,,,,,,,,,,,,,,,,,,,,,,,,,,,,,228.28770200000145,229.3131303000264,226.806972600054,226.806972600054,226.806972600054,226.806972600054,old_sceneOut_6.png,50,5.0,1.4823041000636294,,007,0,2024-10-10_13h57.34.615,Surprise recog test,2023.1.3,59.95329638942133,
50,0,50,0,,,,,,,,,,,,,,,,,,,,,,,,,,,,,,,,,,,,230.06911349995062,231.08485640003346,229.3131303000264,229.3131303000264,229.3131303000264,229.3131303000264,old_sceneOut_19.png,51,5.0,0.7587258999701589,,007,0,2024-10-10_13h57.34.615,Surprise recog test,2023.1.3,59.95329638942133,
51,0,51,0,,,,,,,,,,,,,,,,,,,,,,,,,,,,,,,,,,,,233.96547669998836,,231.08485640003346,231.08485640003346,231.08485640003346,231.08485640003346,new_stationery_16.png,52,3.0,2.875862899934873,,007,0,2024-10-10_13h57.34.615,Surprise recog test,2023.1.3,59.95329638942133,
52,0,52,0,,,,,,,,,,,,,,,,,,,,,,,,,,,,,,,,,,,,237.06173970003147,238.085329500027,234.9984235999873,234.9984235999873,234.9984235999873,234.9984235999873,old_sceneIn_4.png,53,4.0,2.0657461000373587,,007,0,2024-10-10_13h57.34.615,Surprise recog test,2023.1.3,59.95329638942133,
53,0,53,0,,,,,,,,,,,,,,,,,,,,,,,,,,,,,,,,,,,,239.91534509998746,240.9343389000278,238.085329500027,238.085329500027,238.085329500027,238.085329500027,new_sceneIn_42.png,54,5.0,1.8320389000000432,,007,0,2024-10-10_13h57.34.615,Surprise recog test,2023.1.3,59.95329638942133,
54,0,54,0,,,,,,,,,,,,,,,,,,,,,,,,,,,,,,,,,,,,241.7610303000547,242.79650599998422,240.9343389000278,240.9343389000278,240.9343389000278,240.9343389000278,new_sceneIn_14.png,55,5.0,0.8288366999477148,,007,0,2024-10-10_13h57.34.615,Surprise recog test,2023.1.3,59.95329638942133,
55,0,55,0,,,,,,,,,,,,,,,,,,,,,,,,,,,,,,,,,,,,243.5543446999509,244.57714549999218,242.79650599998422,242.79650599998422,242.79650599998422,242.79650599998422,new_sceneOut_39.png,56,5.0,0.7637006998993456,,007,0,2024-10-10_13h57.34.615,Surprise recog test,2023.1.3,59.95329638942133,
56,0,56,0,,,,,,,,,,,,,,,,,,,,,,,,,,,,,,,,,,,,245.4037558999844,246.42256420000922,244.57714549999218,244.57714549999218,244.57714549999218,244.57714549999218,new_stationery_5.png,57,5.0,0.830161300022155,,007,0,2024-10-10_13h57.34.615,Surprise recog test,2023.1.3,59.95329638942133,
57,0,57,0,,,,,,,,,,,,,,,,,,,,,,,,,,,,,,,,,,,,247.32419249997474,248.3479622999439,246.42256420000922,246.42256420000922,246.42256420000922,246.42256420000922,old_sceneOut_40.png,58,5.0,0.8968239000532776,,007,0,2024-10-10_13h57.34.615,Surprise recog test,2023.1.3,59.95329638942133,
58,0,58,0,,,,,,,,,,,,,,,,,,,,,,,,,,,,,,,,,,,,249.442406999995,250.46331150003243,248.3479622999439,248.3479622999439,248.3479622999439,248.3479622999439,new_fruit_37.png,59,5.0,1.0963920999784023,,007,0,2024-10-10_13h57.34.615,Surprise recog test,2023.1.3,59.95329638942133,
59,0,59,0,,,,,,,,,,,,,,,,,,,,,,,,,,,,,,,,,,,,254.6983859000029,255.7229445000412,250.46331150003243,250.46331150003243,250.46331150003243,250.46331150003243,new_fruit_48.png,60,3.0,4.237227700068615,,007,0,2024-10-10_13h57.34.615,Surprise recog test,2023.1.3,59.95329638942133,
60,0,60,0,,,,,,,,,,,,,,,,,,,,,,,,,,,,,,,,,,,,257.6813062999863,258.69624920003116,255.7229445000412,255.7229445000412,255.7229445000412,255.7229445000412,old_fruit_22.png,61,1.0,1.9588106999872252,,007,0,2024-10-10_13h57.34.615,Surprise recog test,2023.1.3,59.95329638942133,
61,0,61,0,,,,,,,,,,,,,,,,,,,,,,,,,,,,,,,,,,,,261.3395883999765,,258.69624920003116,258.69624920003116,258.69624920003116,258.69624920003116,old_sceneIn_34.png,62,1.0,2.6377391000278294,,007,0,2024-10-10_13h57.34.615,Surprise recog test,2023.1.3,59.95329638942133,
62,0,62,0,,,,,,,,,,,,,,,,,,,,,,,,,,,,,,,,,,,,263.87394319998566,,262.3683485999936,262.3683485999936,262.3683485999936,262.3683485999936,new_sceneOut_22.png,63,5.0,1.5062752000521868,,007,0,2024-10-10_13h57.34.615,Surprise recog test,2023.1.3,59.95329638942133,
63,0,63,0,,,,,,,,,,,,,,,,,,,,,,,,,,,,,,,,,,,,266.1431062000338,,264.89492929994594,264.89492929994594,264.89492929994594,264.89492929994594,new_sceneOut_36.png,64,5.0,1.2415691999485716,,007,0,2024-10-10_13h57.34.615,Surprise recog test,2023.1.3,59.95329638942133,
64,0,64,0,,,,,,,,,,,,,,,,,,,,,,,,,,,,,,,,,,,,268.52126409998164,269.53500339994207,267.17410089995246,267.17410089995246,267.17410089995246,267.17410089995246,old_stationery_48.png,65,1.0,1.3491676999256015,,007,0,2024-10-10_13h57.34.615,Surprise recog test,2023.1.3,59.95329638942133,
65,0,65,0,,,,,,,,,,,,,,,,,,,,,,,,,,,,,,,,,,,,271.4020312000066,272.4320687999716,269.53500339994207,269.53500339994207,269.53500339994207,269.53500339994207,new_sceneOut_49.png,66,3.0,1.8619826999492943,,007,0,2024-10-10_13h57.34.615,Surprise recog test,2023.1.3,59.95329638942133,
66,0,66,0,,,,,,,,,,,,,,,,,,,,,,,,,,,,,,,,,,,,273.6828129000496,,272.4320687999716,272.4320687999716,272.4320687999716,272.4320687999716,new_sceneIn_45.png,67,5.0,1.2542435999494046,,007,0,2024-10-10_13h57.34.615,Surprise recog test,2023.1.3,59.95329638942133,
67,0,67,0,,,,,,,,,,,,,,,,,,,,,,,,,,,,,,,,,,,,276.43036140000913,277.4550279000541,274.71900629997253,274.71900629997253,274.71900629997253,274.71900629997253,old_stationery_29.png,68,1.0,1.714791200007312,,007,0,2024-10-10_13h57.34.615,Surprise recog test,2023.1.3,59.95329638942133,
68,0,68,0,,,,,,,,,,,,,,,,,,,,,,,,,,,,,,,,,,,,278.9899372999789,280.019147300045,277.4550279000541,277.4550279000541,277.4550279000541,277.4550279000541,new_stationery_6.png,69,5.0,1.5392308000009507,,007,0,2024-10-10_13h57.34.615,Surprise recog test,2023.1.3,59.95329638942133,
69,0,69,0,,,,,,,,,,,,,,,,,,,,,,,,,,,,,,,,,,,,281.1491754000308,282.15762209997047,280.019147300045,280.019147300045,280.019147300045,280.019147300045,old_sceneOut_20.png,70,5.0,1.1300055999308825,,007,0,2024-10-10_13h57.34.615,Surprise recog test,2023.1.3,59.95329638942133,
70,0,70,0,,,,,,,,,,,,,,,,,,,,,,,,,,,,,,,,,,,,283.1562651999993,,282.15762209997047,282.15762209997047,282.15762209997047,282.15762209997047,new_sceneOut_34.png,71,5.0,0.9916957999812439,,007,0,2024-10-10_13h57.34.615,Surprise recog test,2023.1.3,59.95329638942133,
71,0,71,0,,,,,,,,,,,,,,,,,,,,,,,,,,,,,,,,,,,,284.94532059994526,285.9600113000488,284.1894220999675,284.1894220999675,284.1894220999675,284.1894220999675,old_sceneOut_8.png,72,5.0,0.7581379999173805,,007,0,2024-10-10_13h57.34.615,Surprise recog test,2023.1.3,59.95329638942133,
72,0,72,0,,,,,,,,,,,,,,,,,,,,,,,,,,,,,,,,,,,,287.36337190004997,288.37927529995795,285.9600113000488,285.9600113000488,285.9600113000488,285.9600113000488,old_fruit_32.png,73,5.0,1.399371900013648,,007,0,2024-10-10_13h57.34.615,Surprise recog test,2023.1.3,59.95329638942133,
73,0,73,0,,,,,,,,,,,,,,,,,,,,,,,,,,,,,,,,,,,,292.0247302999487,293.04926240001805,288.37927529995795,288.37927529995795,288.37927529995795,288.37927529995795,old_sceneIn_1.png,74,4.0,3.6422341000288725,,007,0,2024-10-10_13h57.34.615,Surprise recog test,2023.1.3,59.95329638942133,
74,0,74,0,,,,,,,,,,,,,,,,,,,,,,,,,,,,,,,,,,,,294.13843779999297,295.1617510999786,293.04926240001805,293.04926240001805,293.04926240001805,293.04926240001805,old_sceneOut_35.png,75,5.0,1.0913453999673948,,007,0,2024-10-10_13h57.34.615,Surprise recog test,2023.1.3,59.95329638942133,
75,0,75,0,,,,,,,,,,,,,,,,,,,,,,,,,,,,,,,,,,,,296.0598806999624,297.0834159000078,295.1617510999786,295.1617510999786,295.1617510999786,295.1617510999786,old_sceneOut_47.png,76,5.0,0.8986240000231192,,007,0,2024-10-10_13h57.34.615,Surprise recog test,2023.1.3,59.95329638942133,
76,0,76,0,,,,,,,,,,,,,,,,,,,,,,,,,,,,,,,,,,,,297.9764629000565,299.0032039999496,297.0834159000078,297.0834159000078,297.0834159000078,297.0834159000078,old_sceneIn_30.png,77,5.0,0.8920674999244511,,007,0,2024-10-10_13h57.34.615,Surprise recog test,2023.1.3,59.95329638942133,
77,0,77,0,,,,,,,,,,,,,,,,,,,,,,,,,,,,,,,,,,,,300.6151468999451,301.64400900003966,299.0032039999496,299.0032039999496,299.0032039999496,299.0032039999496,old_stationery_24.png,78,1.0,1.61410160001833,,007,0,2024-10-10_13h57.34.615,Surprise recog test,2023.1.3,59.95329638942133,
78,0,78,0,,,,,,,,,,,,,,,,,,,,,,,,,,,,,,,,,,,,303.1278918000171,304.1614143999759,301.64400900003966,301.64400900003966,301.64400900003966,301.64400900003966,old_sceneOut_28.png,79,5.0,1.484675999963656,,007,0,2024-10-10_13h57.34.615,Surprise recog test,2023.1.3,59.95329638942133,
79,0,79,0,,,,,,,,,,,,,,,,,,,,,,,,,,,,,,,,,,,,305.1557715999661,306.17592730000615,304.1614143999759,304.1614143999759,304.1614143999759,304.1614143999759,new_sceneIn_36.png,80,5.0,0.9972120000747964,,007,0,2024-10-10_13h57.34.615,Surprise recog test,2023.1.3,59.95329638942133,
80,0,80,0,,,,,,,,,,,,,,,,,,,,,,,,,,,,,,,,,,,,307.85853379999753,308.8787842999445,306.17592730000615,306.17592730000615,306.17592730000615,306.17592730000615,new_stationery_18.png,81,1.0,1.6841717000352219,,007,0,2024-10-10_13h57.34.615,Surprise recog test,2023.1.3,59.95329638942133,
81,0,81,0,,,,,,,,,,,,,,,,,,,,,,,,,,,,,,,,,,,,310.3289874000475,,308.8787842999445,308.8787842999445,308.8787842999445,308.8787842999445,old_stationery_9.png,82,1.0,1.4527002999093384,,007,0,2024-10-10_13h57.34.615,Surprise recog test,2023.1.3,59.95329638942133,
82,0,82,0,,,,,,,,,,,,,,,,,,,,,,,,,,,,,,,,,,,,312.85436460003257,313.8706554999808,311.36000510002486,311.36000510002486,311.36000510002486,311.36000510002486,old_sceneOut_46.png,83,5.0,1.4961450999835506,,007,0,2024-10-10_13h57.34.615,Surprise recog test,2023.1.3,59.95329638942133,
83,0,83,0,,,,,,,,,,,,,,,,,,,,,,,,,,,,,,,,,,,,315.3018967000535,316.3194769000402,313.8706554999808,313.8706554999808,313.8706554999808,313.8706554999808,new_stationery_48.png,84,5.0,1.4262659999076277,,007,0,2024-10-10_13h57.34.615,Surprise recog test,2023.1.3,59.95329638942133,
84,0,84,0,,,,,,,,,,,,,,,,,,,,,,,,,,,,,,,,,,,,317.65607060003094,318.67433920002077,316.3194769000402,316.3194769000402,316.3194769000402,316.3194769000402,new_sceneIn_33.png,85,5.0,1.3317901999689639,,007,0,2024-10-10_13h57.34.615,Surprise recog test,2023.1.3,59.95329638942133,
85,0,85,0,,,,,,,,,,,,,,,,,,,,,,,,,,,,,,,,,,,,321.68676720000803,322.6942249999847,318.67433920002077,318.67433920002077,318.67433920002077,318.67433920002077,old_stationery_17.png,86,5.0,3.007816399913281,,007,0,2024-10-10_13h57.34.615,Surprise recog test,2023.1.3,59.95329638942133,
86,0,86,0,,,,,,,,,,,,,,,,,,,,,,,,,,,,,,,,,,,,325.34650220000185,326.38223830005154,322.6942249999847,322.6942249999847,322.6942249999847,322.6942249999847,new_fruit_17.png,87,1.0,2.6469722000183538,,007,0,2024-10-10_13h57.34.615,Surprise recog test,2023.1.3,59.95329638942133,
87,0,87,0,,,,,,,,,,,,,,,,,,,,,,,,,,,,,,,,,,,,327.433642399963,328.459169400041,326.38223830005154,326.38223830005154,326.38223830005154,326.38223830005154,new_stationery_1.png,88,1.0,1.0560101000592113,,007,0,2024-10-10_13h57.34.615,Surprise recog test,2023.1.3,59.95329638942133,
88,0,88,0,,,,,,,,,,,,,,,,,,,,,,,,,,,,,,,,,,,,331.3868169999914,332.4201927999966,328.459169400041,328.459169400041,328.459169400041,328.459169400041,old_fruit_25.png,89,3.0,2.9310562999453396,,007,0,2024-10-10_13h57.34.615,Surprise recog test,2023.1.3,59.95329638942133,
89,0,89,0,,,,,,,,,,,,,,,,,,,,,,,,,,,,,,,,,,,,334.79691140004434,335.81833240005653,332.4201927999966,332.4201927999966,332.4201927999966,332.4201927999966,new_fruit_24.png,90,5.0,2.3783294999739155,,007,0,2024-10-10_13h57.34.615,Surprise recog test,2023.1.3,59.95329638942133,
90,0,90,0,,,,,,,,,,,,,,,,,,,,,,,,,,,,,,,,,,,,337.0297898000572,338.0543013999704,335.81833240005653,335.81833240005653,335.81833240005653,335.81833240005653,old_stationery_41.png,91,1.0,1.212980700074695,,007,0,2024-10-10_13h57.34.615,Surprise recog test,2023.1.3,59.95329638942133,
91,0,91,0,,,,,,,,,,,,,,,,,,,,,,,,,,,,,,,,,,,,338.95705389999785,339.9752163999947,338.0543013999704,338.0543013999704,338.0543013999704,338.0543013999704,new_fruit_35.png,92,1.0,0.9064743999624625,,007,0,2024-10-10_13h57.34.615,Surprise recog test,2023.1.3,59.95329638942133,
92,0,92,0,,,,,,,,,,,,,,,,,,,,,,,,,,,,,,,,,,,,342.1353580999421,343.15527139999904,339.9752163999947,339.9752163999947,339.9752163999947,339.9752163999947,new_sceneOut_32.png,93,5.0,2.1552251001121476,,007,0,2024-10-10_13h57.34.615,Surprise recog test,2023.1.3,59.95329638942133,
93,0,93,0,,,,,,,,,,,,,,,,,,,,,,,,,,,,,,,,,,,,345.1447321999585,346.1769591999473,343.15527139999904,343.15527139999904,343.15527139999904,343.15527139999904,new_sceneOut_33.png,94,3.0,1.9908919000299647,,007,0,2024-10-10_13h57.34.615,Surprise recog test,2023.1.3,59.95329638942133,
94,0,94,0,,,,,,,,,,,,,,,,,,,,,,,,,,,,,,,,,,,,348.10891069995705,349.132270699949,346.1769591999473,346.1769591999473,346.1769591999473,346.1769591999473,old_sceneIn_39.png,95,3.0,1.9348996999906376,,007,0,2024-10-10_13h57.34.615,Surprise recog test,2023.1.3,59.95329638942133,
95,0,95,0,,,,,,,,,,,,,,,,,,,,,,,,,,,,,,,,,,,,350.39558340003714,,349.132270699949,349.132270699949,349.132270699949,349.132270699949,old_sceneIn_41.png,96,5.0,1.2676790000405163,,007,0,2024-10-10_13h57.34.615,Surprise recog test,2023.1.3,59.95329638942133,
96,0,96,0,,,,,,,,,,,,,,,,,,,,,,,,,,,,,,,,,,,,352.3598990000319,353.38118449994363,351.4175057000248,351.4175057000248,351.4175057000248,351.4175057000248,new_stationery_34.png,97,5.0,0.9376947999699041,,007,0,2024-10-10_13h57.34.615,Surprise recog test,2023.1.3,59.95329638942133,
97,0,97,0,,,,,,,,,,,,,,,,,,,,,,,,,,,,,,,,,,,,354.13515360001475,355.1697937999852,353.38118449994363,353.38118449994363,353.38118449994363,353.38118449994363,new_sceneIn_37.png,98,5.0,0.755602200049907,,007,0,2024-10-10_13h57.34.615,Surprise recog test,2023.1.3,59.95329638942133,
98,0,98,0,,,,,,,,,,,,,,,,,,,,,,,,,,,,,,,,,,,,355.87051849998534,356.88531549996696,355.1697937999852,355.1697937999852,355.1697937999852,355.1697937999852,new_sceneIn_2.png,99,5.0,0.7009944999590516,,007,0,2024-10-10_13h57.34.615,Surprise recog test,2023.1.3,59.95329638942133,
99,0,99,0,,,,,,,,,,,,,,,,,,,,,,,,,,,,,,,,,,,,358.9007009000052,359.9095163999591,356.88531549996696,356.88531549996696,356.88531549996696,356.88531549996696,new_fruit_15.png,100,4.0,2.009797800099477,,007,0,2024-10-10_13h57.34.615,Surprise recog test,2023.1.3,59.95329638942133,
100,0,100,0,,,,,,,,,,,,,,,,,,,,,,,,,,,,,,,,,,,,361.7347847999772,362.75014629994985,359.9095163999591,359.9095163999591,359.9095163999591,359.9095163999591,old_stationery_12.png,101,1.0,1.8206051999004558,,007,0,2024-10-10_13h57.34.615,Surprise recog test,2023.1.3,59.95329638942133,
101,0,101,0,,,,,,,,,,,,,,,,,,,,,,,,,,,,,,,,,,,,365.031281500007,366.0587586000329,362.75014629994985,362.75014629994985,362.75014629994985,362.75014629994985,new_fruit_8.png,102,1.0,2.279440200072713,,007,0,2024-10-10_13h57.34.615,Surprise recog test,2023.1.3,59.95329638942133,
102,0,102,0,,,,,,,,,,,,,,,,,,,,,,,,,,,,,,,,,,,,368.45699440001044,369.47821750002913,366.0587586000329,366.0587586000329,366.0587586000329,366.0587586000329,new_sceneOut_50.png,103,4.0,2.400487900013104,,007,0,2024-10-10_13h57.34.615,Surprise recog test,2023.1.3,59.95329638942133,
103,0,103,0,,,,,,,,,,,,,,,,,,,,,,,,,,,,,,,,,,,,370.9766794999596,371.9851671999786,369.47821750002913,369.47821750002913,369.47821750002913,369.47821750002913,new_sceneOut_9.png,104,5.0,1.501445300062187,,007,0,2024-10-10_13h57.34.615,Surprise recog test,2023.1.3,59.95329638942133,
104,0,104,0,,,,,,,,,,,,,,,,,,,,,,,,,,,,,,,,,,,,374.3083848999813,375.3334781000158,371.9851671999786,371.9851671999786,371.9851671999786,371.9851671999786,old_sceneOut_10.png,105,5.0,2.3185565000167117,,007,0,2024-10-10_13h57.34.615,Surprise recog test,2023.1.3,59.95329638942133,
105,0,105,0,,,,,,,,,,,,,,,,,,,,,,,,,,,,,,,,,,,,377.3135558000067,378.33775309997145,375.3334781000158,375.3334781000158,375.3334781000158,375.3334781000158,old_fruit_28.png,106,2.0,1.9823949999408796,,007,0,2024-10-10_13h57.34.615,Surprise recog test,2023.1.3,59.95329638942133,
106,0,106,0,,,,,,,,,,,,,,,,,,,,,,,,,,,,,,,,,,,,380.96854729996994,381.98628039995674,378.33775309997145,378.33775309997145,378.33775309997145,378.33775309997145,new_stationery_41.png,107,5.0,2.627185699995607,,007,0,2024-10-10_13h57.34.615,Surprise recog test,2023.1.3,59.95329638942133,
107,0,107,0,,,,,,,,,,,,,,,,,,,,,,,,,,,,,,,,,,,,383.8423348000506,384.8625785999466,381.98628039995674,381.98628039995674,381.98628039995674,381.98628039995674,new_sceneIn_41.png,108,5.0,1.8589646000182256,,007,0,2024-10-10_13h57.34.615,Surprise recog test,2023.1.3,59.95329638942133,
108,0,108,0,,,,,,,,,,,,,,,,,,,,,,,,,,,,,,,,,,,,386.661373800016,387.69415770005435,384.8625785999466,384.8625785999466,384.8625785999466,384.8625785999466,old_stationery_50.png,109,1.0,1.7949743999633938,,007,0,2024-10-10_13h57.34.615,Surprise recog test,2023.1.3,59.95329638942133,
109,0,109,0,,,,,,,,,,,,,,,,,,,,,,,,,,,,,,,,,,,,389.6820069999667,390.71437009994406,387.69415770005435,387.69415770005435,387.69415770005435,387.69415770005435,old_fruit_45.png,110,1.0,1.9864593000384048,,007,0,2024-10-10_13h57.34.615,Surprise recog test,2023.1.3,59.95329638942133,
110,0,110,0,,,,,,,,,,,,,,,,,,,,,,,,,,,,,,,,,,,,392.6116992000025,393.6195588000119,390.71437009994406,390.71437009994406,390.71437009994406,390.71437009994406,old_fruit_38.png,111,5.0,1.896476700087078,,007,0,2024-10-10_13h57.34.615,Surprise recog test,2023.1.3,59.95329638942133,
111,0,111,0,,,,,,,,,,,,,,,,,,,,,,,,,,,,,,,,,,,,396.6711235999828,397.6906397000421,393.6195588000119,393.6195588000119,393.6195588000119,393.6195588000119,old_fruit_26.png,112,3.0,3.0473755999701098,,007,0,2024-10-10_13h57.34.615,Surprise recog test,2023.1.3,59.95329638942133,
112,0,112,0,,,,,,,,,,,,,,,,,,,,,,,,,,,,,,,,,,,,399.7299001000356,400.75130849995185,397.6906397000421,397.6906397000421,397.6906397000421,397.6906397000421,new_sceneIn_9.png,113,5.0,2.0352780000539497,,007,0,2024-10-10_13h57.34.615,Surprise recog test,2023.1.3,59.95329638942133,
113,0,113,0,,,,,,,,,,,,,,,,,,,,,,,,,,,,,,,,,,,,401.93071089999285,402.96043079998344,400.75130849995185,400.75130849995185,400.75130849995185,400.75130849995185,new_fruit_40.png,114,5.0,1.1784324999898672,,007,0,2024-10-10_13h57.34.615,Surprise recog test,2023.1.3,59.95329638942133,
114,0,114,0,,,,,,,,,,,,,,,,,,,,,,,,,,,,,,,,,,,,404.0390094999457,405.0556368000107,402.96043079998344,402.96043079998344,402.96043079998344,402.96043079998344,new_fruit_9.png,115,5.0,1.0825889999978244,,007,0,2024-10-10_13h57.34.615,Surprise recog test,2023.1.3,59.95329638942133,
115,0,115,0,,,,,,,,,,,,,,,,,,,,,,,,,,,,,,,,,,,,407.94251219998114,408.9465536000207,405.0556368000107,405.0556368000107,405.0556368000107,405.0556368000107,new_fruit_28.png,116,4.0,2.8880807000678033,,007,0,2024-10-10_13h57.34.615,Surprise recog test,2023.1.3,59.95329638942133,
116,0,116,0,,,,,,,,,,,,,,,,,,,,,,,,,,,,,,,,,,,,412.66958230000455,413.7029289000202,408.9465536000207,408.9465536000207,408.9465536000207,408.9465536000207,old_fruit_6.png,117,4.0,3.7198103999253362,,007,0,2024-10-10_13h57.34.615,Surprise recog test,2023.1.3,59.95329638942133,
117,0,117,0,,,,,,,,,,,,,,,,,,,,,,,,,,,,,,,,,,,,415.9144143000012,416.9339280000422,413.7029289000202,413.7029289000202,413.7029289000202,413.7029289000202,old_stationery_20.png,118,1.0,2.212543200002983,,007,0,2024-10-10_13h57.34.615,Surprise recog test,2023.1.3,59.95329638942133,
118,0,118,0,,,,,,,,,,,,,,,,,,,,,,,,,,,,,,,,,,,,418.13493549998384,,416.9339280000422,416.9339280000422,416.9339280000422,416.9339280000422,new_sceneOut_5.png,119,5.0,1.2009291000431404,,007,0,2024-10-10_13h57.34.615,Surprise recog test,2023.1.3,59.95329638942133,
119,0,119,0,,,,,,,,,,,,,,,,,,,,,,,,,,,,,,,,,,,,420.08740119996946,,419.1674538999796,419.1674538999796,419.1674538999796,419.1674538999796,old_sceneOut_17.png,120,5.0,0.920353600056842,,007,0,2024-10-10_13h57.34.615,Surprise recog test,2023.1.3,59.95329638942133,
120,0,120,0,,,,,,,,,,,,,,,,,,,,,,,,,,,,,,,,,,,,423.97741719998885,424.99563929997385,421.12547259998973,421.12547259998973,421.12547259998973,421.12547259998973,old_fruit_16.png,121,5.0,2.8551732000196353,,007,0,2024-10-10_13h57.34.615,Surprise recog test,2023.1.3,59.95329638942133,
121,0,121,0,,,,,,,,,,,,,,,,,,,,,,,,,,,,,,,,,,,,426.7736890000524,427.79527230001986,424.99563929997385,424.99563929997385,424.99563929997385,424.99563929997385,old_stationery_38.png,122,1.0,1.7700134000042453,,007,0,2024-10-10_13h57.34.615,Surprise recog test,2023.1.3,59.95329638942133,
122,0,122,0,,,,,,,,,,,,,,,,,,,,,,,,,,,,,,,,,,,,428.9174942000536,429.9515927999746,427.79527230001986,427.79527230001986,427.79527230001986,427.79527230001986,old_fruit_5.png,123,5.0,1.1215145000023767,,007,0,2024-10-10_13h57.34.615,Surprise recog test,2023.1.3,59.95329638942133,
123,0,123,0,,,,,,,,,,,,,,,,,,,,,,,,,,,,,,,,,,,,430.73440329998266,431.7500631000148,429.9515927999746,429.9515927999746,429.9515927999746,429.9515927999746,new_sceneIn_19.png,124,5.0,0.783866300014779,,007,0,2024-10-10_13h57.34.615,Surprise recog test,2023.1.3,59.95329638942133,
124,0,124,0,,,,,,,,,,,,,,,,,,,,,,,,,,,,,,,,,,,,433.6637258999981,434.6816520000575,431.7500631000148,431.7500631000148,431.7500631000148,431.7500631000148,new_sceneIn_21.png,125,5.0,1.9097565000411123,,007,0,2024-10-10_13h57.34.615,Surprise recog test,2023.1.3,59.95329638942133,
125,0,125,0,,,,,,,,,,,,,,,,,,,,,,,,,,,,,,,,,,,,435.3749011999462,436.39971080003306,434.6816520000575,434.6816520000575,434.6816520000575,434.6816520000575,old_sceneOut_36.png,126,5.0,0.6945238000480458,,007,0,2024-10-10_13h57.34.615,Surprise recog test,2023.1.3,59.95329638942133,
126,0,126,0,,,,,,,,,,,,,,,,,,,,,,,,,,,,,,,,,,,,437.10368599998765,438.12992810003925,436.39971080003306,436.39971080003306,436.39971080003306,436.39971080003306,new_sceneOut_10.png,127,5.0,0.705569599987939,,007,0,2024-10-10_13h57.34.615,Surprise recog test,2023.1.3,59.95329638942133,
127,0,127,0,,,,,,,,,,,,,,,,,,,,,,,,,,,,,,,,,,,,440.43315609998535,441.45293190004304,438.12992810003925,438.12992810003925,438.12992810003925,438.12992810003925,old_fruit_31.png,128,3.0,2.3042359999381006,,007,0,2024-10-10_13h57.34.615,Surprise recog test,2023.1.3,59.95329638942133,
128,0,128,0,,,,,,,,,,,,,,,,,,,,,,,,,,,,,,,,,,,,442.4279412999749,443.4525868999772,441.45293190004304,441.45293190004304,441.45293190004304,441.45293190004304,old_sceneOut_31.png,129,5.0,0.976853400003165,,007,0,2024-10-10_13h57.34.615,Surprise recog test,2023.1.3,59.95329638942133,
129,0,129,0,,,,,,,,,,,,,,,,,,,,,,,,,,,,,,,,,,,,444.09146200004034,,443.4525868999772,443.4525868999772,443.4525868999772,443.4525868999772,new_sceneIn_35.png,130,5.0,0.6378909000195563,,007,0,2024-10-10_13h57.34.615,Surprise recog test,2023.1.3,59.95329638942133,
130,0,130,0,,,,,,,,,,,,,,,,,,,,,,,,,,,,,,,,,,,,446.0519569000462,447.0762184000341,445.1237885999726,445.1237885999726,445.1237885999726,445.1237885999726,new_stationery_10.png,131,5.0,0.9297736999578774,,007,0,2024-10-10_13h57.34.615,Surprise recog test,2023.1.3,59.95329638942133,
131,0,131,0,,,,,,,,,,,,,,,,,,,,,,,,,,,,,,,,,,,,447.6917179999873,448.69906370004173,447.0762184000341,447.0762184000341,447.0762184000341,447.0762184000341,old_sceneIn_24.png,132,5.0,0.6167365000583231,,007,0,2024-10-10_13h57.34.615,Surprise recog test,2023.1.3,59.95329638942133,
132,0,132,0,,,,,,,,,,,,,,,,,,,,,,,,,,,,,,,,,,,,449.4004864000017,450.4187607000349,448.69906370004173,448.69906370004173,448.69906370004173,448.69906370004173,old_stationery_7.png,133,5.0,0.6989546000258997,,007,0,2024-10-10_13h57.34.615,Surprise recog test,2023.1.3,59.95329638942133,
133,0,133,0,,,,,,,,,,,,,,,,,,,,,,,,,,,,,,,,,,,,453.1326040000422,,450.4187607000349,450.4187607000349,450.4187607000349,450.4187607000349,new_fruit_14.png,134,4.0,2.709774099988863,,007,0,2024-10-10_13h57.34.615,Surprise recog test,2023.1.3,59.95329638942133,
134,0,134,0,,,,,,,,,,,,,,,,,,,,,,,,,,,,,,,,,,,,454.93347070005257,,454.1654734000331,454.1654734000331,454.1654734000331,454.1654734000331,new_sceneOut_27.png,135,5.0,0.7677897999528795,,007,0,2024-10-10_13h57.34.615,Surprise recog test,2023.1.3,59.95329638942133,
135,0,135,0,,,,,,,,,,,,,,,,,,,,,,,,,,,,,,,,,,,,457.43120430002455,458.45320330001414,455.95400949998293,455.95400949998293,455.95400949998293,455.95400949998293,old_stationery_31.png,136,1.0,1.4725860999897122,,007,0,2024-10-10_13h57.34.615,Surprise recog test,2023.1.3,59.95329638942133,
136,0,136,0,,,,,,,,,,,,,,,,,,,,,,,,,,,,,,,,,,,,461.2558909000363,,458.45320330001414,458.45320330001414,458.45320330001414,458.45320330001414,old_stationery_10.png,137,2.0,2.8056869000429288,,007,0,2024-10-10_13h57.34.615,Surprise recog test,2023.1.3,59.95329638942133,
137,0,137,0,,,,,,,,,,,,,,,,,,,,,,,,,,,,,,,,,,,,463.65454330004286,464.6770678999601,462.28103019995615,462.28103019995615,462.28103019995615,462.28103019995615,old_sceneIn_7.png,138,5.0,1.3709195000119507,,007,0,2024-10-10_13h57.34.615,Surprise recog test,2023.1.3,59.95329638942133,
138,0,138,0,,,,,,,,,,,,,,,,,,,,,,,,,,,,,,,,,,,,467.4805220999988,468.50273069995455,464.6770678999601,464.6770678999601,464.6770678999601,464.6770678999601,old_fruit_40.png,139,5.0,2.8065694000106305,,007,0,2024-10-10_13h57.34.615,Surprise recog test,2023.1.3,59.95329638942133,
139,0,139,0,,,,,,,,,,,,,,,,,,,,,,,,,,,,,,,,,,,,470.3386929000262,471.3655862000305,468.50273069995455,468.50273069995455,468.50273069995455,468.50273069995455,new_fruit_27.png,140,4.0,1.836247400031425,,007,0,2024-10-10_13h57.34.615,Surprise recog test,2023.1.3,59.95329638942133,
140,0,140,0,,,,,,,,,,,,,,,,,,,,,,,,,,,,,,,,,,,,472.82828599994536,473.84913290000986,471.3655862000305,471.3655862000305,471.3655862000305,471.3655862000305,new_stationery_14.png,141,5.0,1.46225380001124,,007,0,2024-10-10_13h57.34.615,Surprise recog test,2023.1.3,59.95329638942133,
141,0,141,0,,,,,,,,,,,,,,,,,,,,,,,,,,,,,,,,,,,,474.49173869995866,475.52051529998425,473.84913290000986,473.84913290000986,473.84913290000986,473.84913290000986,old_sceneOut_2.png,142,5.0,0.6445082999998704,,007,0,2024-10-10_13h57.34.615,Surprise recog test,2023.1.3,59.95329638942133,
142,0,142,0,,,,,,,,,,,,,,,,,,,,,,,,,,,,,,,,,,,,476.2239825000288,477.25151289999485,475.52051529998425,475.52051529998425,475.52051529998425,475.52051529998425,old_sceneIn_48.png,143,5.0,0.7065380999119952,,007,0,2024-10-10_13h57.34.615,Surprise recog test,2023.1.3,59.95329638942133,
143,0,143,0,,,,,,,,,,,,,,,,,,,,,,,,,,,,,,,,,,,,478.0838315000292,479.0911676000105,477.25151289999485,477.25151289999485,477.25151289999485,477.25151289999485,old_sceneIn_31.png,144,5.0,0.8349001000169665,,007,0,2024-10-10_13h57.34.615,Surprise recog test,2023.1.3,59.95329638942133,
144,0,144,0,,,,,,,,,,,,,,,,,,,,,,,,,,,,,,,,,,,,479.6529292999767,,479.0911676000105,479.0911676000105,479.0911676000105,479.0911676000105,new_sceneOut_7.png,145,5.0,0.5570492000551894,,007,0,2024-10-10_13h57.34.615,Surprise recog test,2023.1.3,59.95329638942133,
145,0,145,0,,,,,,,,,,,,,,,,,,,,,,,,,,,,,,,,,,,,481.76258790004067,482.7938836000394,480.69050569995306,480.69050569995306,480.69050569995306,480.69050569995306,new_stationery_11.png,146,5.0,1.075291599961929,,007,0,2024-10-10_13h57.34.615,Surprise recog test,2023.1.3,59.95329638942133,
146,0,146,0,,,,,,,,,,,,,,,,,,,,,,,,,,,,,,,,,,,,483.34896630002186,484.3748212000355,482.7938836000394,482.7938836000394,482.7938836000394,482.7938836000394,old_sceneOut_43.png,147,5.0,0.5583217999665067,,007,0,2024-10-10_13h57.34.615,Surprise recog test,2023.1.3,59.95329638942133,
147,0,147,0,,,,,,,,,,,,,,,,,,,,,,,,,,,,,,,,,,,,487.4942008999642,,484.3748212000355,484.3748212000355,484.3748212000355,484.3748212000355,old_stationery_25.png,148,1.0,3.1209565999452025,,007,0,2024-10-10_13h57.34.615,Surprise recog test,2023.1.3,59.95329638942133,
148,0,148,0,,,,,,,,,,,,,,,,,,,,,,,,,,,,,,,,,,,,490.09254660003353,491.0973403999815,488.5125657999888,488.5125657999888,488.5125657999888,488.5125657999888,new_fruit_12.png,149,4.0,1.5706290999660268,,007,0,2024-10-10_13h57.34.615,Surprise recog test,2023.1.3,59.95329638942133,
149,0,149,0,,,,,,,,,,,,,,,,,,,,,,,,,,,,,,,,,,,,492.9282598999562,493.93272839998826,491.0973403999815,491.0973403999815,491.0973403999815,491.0973403999815,new_fruit_6.png,150,5.0,1.823856299975887,,007,0,2024-10-10_13h57.34.615,Surprise recog test,2023.1.3,59.95329638942133,
150,0,150,0,,,,,,,,,,,,,,,,,,,,,,,,,,,,,,,,,,,,494.5463068999816,495.55152209999505,493.93272839998826,493.93272839998826,493.93272839998826,493.93272839998826,new_sceneOut_35.png,151,5.0,0.6052363000344485,,007,0,2024-10-10_13h57.34.615,Surprise recog test,2023.1.3,59.95329638942133,
151,0,151,0,,,,,,,,,,,,,,,,,,,,,,,,,,,,,,,,,,,,496.247644499992,497.25213539996184,495.55152209999505,495.55152209999505,495.55152209999505,495.55152209999505,new_sceneIn_26.png,152,5.0,0.686861600028351,,007,0,2024-10-10_13h57.34.615,Surprise recog test,2023.1.3,59.95329638942133,
152,0,152,0,,,,,,,,,,,,,,,,,,,,,,,,,,,,,,,,,,,,498.7164608000312,499.7213222000282,497.25213539996184,497.25213539996184,497.25213539996184,497.25213539996184,old_stationery_33.png,153,1.0,1.4539268999360502,,007,0,2024-10-10_13h57.34.615,Surprise recog test,2023.1.3,59.95329638942133,
153,0,153,0,,,,,,,,,,,,,,,,,,,,,,,,,,,,,,,,,,,,503.6705264999764,504.67556150001474,499.7213222000282,499.7213222000282,499.7213222000282,499.7213222000282,new_stationery_24.png,154,3.0,3.939054200076498,,007,0,2024-10-10_13h57.34.615,Surprise recog test,2023.1.3,59.95329638942133,
154,0,154,0,,,,,,,,,,,,,,,,,,,,,,,,,,,,,,,,,,,,505.9891306000063,506.99429830000736,504.67556150001474,504.67556150001474,504.67556150001474,504.67556150001474,old_sceneIn_45.png,155,5.0,1.3035921000409871,,007,0,2024-10-10_13h57.34.615,Surprise recog test,2023.1.3,59.95329638942133,
155,0,155,0,,,,,,,,,,,,,,,,,,,,,,,,,,,,,,,,,,,,509.32529359997716,510.330105299945,506.99429830000736,506.99429830000736,506.99429830000736,506.99429830000736,new_stationery_38.png,156,4.0,2.32135899993591,,007,0,2024-10-10_13h57.34.615,Surprise recog test,2023.1.3,59.95329638942133,
156,0,156,0,,,,,,,,,,,,,,,,,,,,,,,,,,,,,,,,,,,,511.41039540001657,512.4146212999476,510.330105299945,510.330105299945,510.330105299945,510.330105299945,old_sceneIn_50.png,157,5.0,1.070273199933581,,007,0,2024-10-10_13h57.34.615,Surprise recog test,2023.1.3,59.95329638942133,
157,0,157,0,,,,,,,,,,,,,,,,,,,,,,,,,,,,,,,,,,,,513.3620297999587,514.3666776999598,512.4146212999476,512.4146212999476,512.4146212999476,512.4146212999476,new_stationery_40.png,158,5.0,0.9367520000087097,,007,0,2024-10-10_13h57.34.615,Surprise recog test,2023.1.3,59.95329638942133,
158,0,158,0,,,,,,,,,,,,,,,,,,,,,,,,,,,,,,,,,,,,515.0132480999455,516.0178949000547,514.3666776999598,514.3666776999598,514.3666776999598,514.3666776999598,old_sceneIn_49.png,159,5.0,0.6371012000599876,,007,0,2024-10-10_13h57.34.615,Surprise recog test,2023.1.3,59.95329638942133,
159,0,159,0,,,,,,,,,,,,,,,,,,,,,,,,,,,,,,,,,,,,517.8823448000476,518.8872066000476,516.0178949000547,516.0178949000547,516.0178949000547,516.0178949000547,new_fruit_25.png,160,1.0,1.8540055999765173,,007,0,2024-10-10_13h57.34.615,Surprise recog test,2023.1.3,59.95329638942133,
160,0,160,0,,,,,,,,,,,,,,,,,,,,,,,,,,,,,,,,,,,,519.917423899984,520.9224326000549,518.8872066000476,518.8872066000476,518.8872066000476,518.8872066000476,new_sceneOut_25.png,161,5.0,1.020329499966465,,007,0,2024-10-10_13h57.34.615,Surprise recog test,2023.1.3,59.95329638942133,
161,0,161,0,,,,,,,,,,,,,,,,,,,,,,,,,,,,,,,,,,,,521.535451099975,522.5407273999881,520.9224326000549,520.9224326000549,520.9224326000549,520.9224326000549,old_sceneIn_15.png,162,5.0,0.6033649001037702,,007,0,2024-10-10_13h57.34.615,Surprise recog test,2023.1.3,59.95329638942133,
162,0,162,0,,,,,,,,,,,,,,,,,,,,,,,,,,,,,,,,,,,,523.0868101000087,524.0908136999933,522.5407273999881,522.5407273999881,522.5407273999881,522.5407273999881,old_sceneOut_27.png,163,5.0,0.5372618000255898,,007,0,2024-10-10_13h57.34.615,Surprise recog test,2023.1.3,59.95329638942133,
163,0,163,0,,,,,,,,,,,,,,,,,,,,,,,,,,,,,,,,,,,,524.954841000028,525.9599470000248,524.0908136999933,524.0908136999933,524.0908136999933,524.0908136999933,new_stationery_37.png,164,5.0,0.8534268999937922,,007,0,2024-10-10_13h57.34.615,Surprise recog test,2023.1.3,59.95329638942133,
164,0,164,0,,,,,,,,,,,,,,,,,,,,,,,,,,,,,,,,,,,,526.8064155000029,527.8103142000036,525.9599470000248,525.9599470000248,525.9599470000248,525.9599470000248,new_fruit_33.png,165,5.0,0.8365424000658095,,007,0,2024-10-10_13h57.34.615,Surprise recog test,2023.1.3,59.95329638942133,
165,0,165,0,,,,,,,,,,,,,,,,,,,,,,,,,,,,,,,,,,,,530.6096783999819,531.6172133999644,527.8103142000036,527.8103142000036,527.8103142000036,527.8103142000036,old_fruit_29.png,166,3.0,2.7886882999446243,,007,0,2024-10-10_13h57.34.615,Surprise recog test,2023.1.3,59.95329638942133,
166,0,166,0,,,,,,,,,,,,,,,,,,,,,,,,,,,,,,,,,,,,532.6798444000306,,531.6172133999644,531.6172133999644,531.6172133999644,531.6172133999644,new_sceneOut_31.png,167,5.0,1.0593607999617234,,007,0,2024-10-10_13h57.34.615,Surprise recog test,2023.1.3,59.95329638942133,
167,0,167,0,,,,,,,,,,,,,,,,,,,,,,,,,,,,,,,,,,,,534.2292316999519,535.2351817999734,533.6990210999502,533.6990210999502,533.6990210999502,533.6990210999502,old_sceneIn_35.png,168,5.0,0.5207359000341967,,007,0,2024-10-10_13h57.34.615,Surprise recog test,2023.1.3,59.95329638942133,
168,0,168,0,,,,,,,,,,,,,,,,,,,,,,,,,,,,,,,,,,,,535.7638624999672,536.7717892000219,535.2351817999734,535.2351817999734,535.2351817999734,535.2351817999734,new_sceneIn_47.png,169,5.0,0.5243743000319228,,007,0,2024-10-10_13h57.34.615,Surprise recog test,2023.1.3,59.95329638942133,
169,0,169,0,,,,,,,,,,,,,,,,,,,,,,,,,,,,,,,,,,,,537.5266634,538.5397256000433,536.7717892000219,536.7717892000219,536.7717892000219,536.7717892000219,new_sceneOut_46.png,170,5.0,0.751049599959515,,007,0,2024-10-10_13h57.34.615,Surprise recog test,2023.1.3,59.95329638942133,
170,0,170,0,,,,,,,,,,,,,,,,,,,,,,,,,,,,,,,,,,,,539.2279787999578,540.2604562999913,538.5397256000433,538.5397256000433,538.5397256000433,538.5397256000433,new_stationery_29.png,171,5.0,0.6834435999626294,,007,0,2024-10-10_13h57.34.615,Surprise recog test,2023.1.3,59.95329638942133,
171,0,171,0,,,,,,,,,,,,,,,,,,,,,,,,,,,,,,,,,,,,542.5453248999547,543.5705890000099,540.2604562999913,540.2604562999913,540.2604562999913,540.2604562999913,old_stationery_14.png,172,2.0,2.288220800110139,,007,0,2024-10-10_13h57.34.615,Surprise recog test,2023.1.3,59.95329638942133,
172,0,172,0,,,,,,,,,,,,,,,,,,,,,,,,,,,,,,,,,,,,545.1543775999453,546.1756032999838,543.5705890000099,543.5705890000099,543.5705890000099,543.5705890000099,new_sceneIn_40.png,173,5.0,1.5845458999974653,,007,0,2024-10-10_13h57.34.615,Surprise recog test,2023.1.3,59.95329638942133,
173,0,173,0,,,,,,,,,,,,,,,,,,,,,,,,,,,,,,,,,,,,546.6685181000503,547.6901458000066,546.1756032999838,546.1756032999838,546.1756032999838,546.1756032999838,old_sceneOut_9.png,174,5.0,0.4945495000574738,,007,0,2024-10-10_13h57.34.615,Surprise recog test,2023.1.3,59.95329638942133,
174,0,174,0,,,,,,,,,,,,,,,,,,,,,,,,,,,,,,,,,,,,549.2714373000199,550.2970511999447,547.6901458000066,547.6901458000066,547.6901458000066,547.6901458000066,old_fruit_21.png,175,2.0,1.579813600052148,,007,0,2024-10-10_13h57.34.615,Surprise recog test,2023.1.3,59.95329638942133,
175,0,175,0,,,,,,,,,,,,,,,,,,,,,,,,,,,,,,,,,,,,551.0973748000106,,550.2970511999447,550.2970511999447,550.2970511999447,550.2970511999447,new_sceneOut_1.png,176,5.0,0.8004662999883294,,007,0,2024-10-10_13h57.34.615,Surprise recog test,2023.1.3,59.95329638942133,
176,0,176,0,,,,,,,,,,,,,,,,,,,,,,,,,,,,,,,,,,,,552.7286286000162,553.7460467000492,552.127234900021,552.127234900021,552.127234900021,552.127234900021,old_sceneIn_12.png,177,5.0,0.6033239000244066,,007,0,2024-10-10_13h57.34.615,Surprise recog test,2023.1.3,59.95329638942133,
177,0,177,0,,,,,,,,,,,,,,,,,,,,,,,,,,,,,,,,,,,,554.3005425999872,555.3266662999522,553.7460467000492,553.7460467000492,553.7460467000492,553.7460467000492,old_sceneIn_20.png,178,5.0,0.5564702999545261,,007,0,2024-10-10_13h57.34.615,Surprise recog test,2023.1.3,59.95329638942133,
178,0,178,0,,,,,,,,,,,,,,,,,,,,,,,,,,,,,,,,,,,,556.4979006999638,557.520495899953,555.3266662999522,555.3266662999522,555.3266662999522,555.3266662999522,new_stationery_36.png,179,5.0,1.1671345999930054,,007,0,2024-10-10_13h57.34.615,Surprise recog test,2023.1.3,59.95329638942133,
179,0,179,0,,,,,,,,,,,,,,,,,,,,,,,,,,,,,,,,,,,,560.037185800029,,557.520495899953,557.520495899953,557.520495899953,557.520495899953,old_stationery_22.png,180,4.0,2.5205691000446677,,007,0,2024-10-10_13h57.34.615,Surprise recog test,2023.1.3,59.95329638942133,
180,0,180,0,,,,,,,,,,,,,,,,,,,,,,,,,,,,,,,,,,,,561.8065344999777,,561.0675359000452,561.0675359000452,561.0675359000452,561.0675359000452,new_sceneOut_48.png,181,5.0,0.7394017999758944,,007,0,2024-10-10_13h57.34.615,Surprise recog test,2023.1.3,59.95329638942133,
181,0,181,0,,,,,,,,,,,,,,,,,,,,,,,,,,,,,,,,,,,,565.0730142999673,566.0920542000094,562.8230020999908,562.8230020999908,562.8230020999908,562.8230020999908,old_stationery_32.png,182,3.0,2.2446184000000358,,007,0,2024-10-10_13h57.34.615,Surprise recog test,2023.1.3,59.95329638942133,
182,0,182,0,,,,,,,,,,,,,,,,,,,,,,,,,,,,,,,,,,,,567.3540026999544,568.3749386999989,566.0920542000094,566.0920542000094,566.0920542000094,566.0920542000094,old_stationery_34.png,183,1.0,1.264253000030294,,007,0,2024-10-10_13h57.34.615,Surprise recog test,2023.1.3,59.95329638942133,
183,0,183,0,,,,,,,,,,,,,,,,,,,,,,,,,,,,,,,,,,,,569.7007590000285,570.7149644000456,568.3749386999989,568.3749386999989,568.3749386999989,568.3749386999989,new_sceneOut_41.png,184,5.0,1.3271359000355005,,007,0,2024-10-10_13h57.34.615,Surprise recog test,2023.1.3,59.95329638942133,
184,0,184,0,,,,,,,,,,,,,,,,,,,,,,,,,,,,,,,,,,,,571.4173557000468,572.435178100015,570.7149644000456,570.7149644000456,570.7149644000456,570.7149644000456,new_sceneIn_15.png,185,5.0,0.6996552998898551,,007,0,2024-10-10_13h57.34.615,Surprise recog test,2023.1.3,59.95329638942133,
185,0,185,0,,,,,,,,,,,,,,,,,,,,,,,,,,,,,,,,,,,,573.099486400024,574.130478200037,572.435178100015,572.435178100015,572.435178100015,572.435178100015,new_sceneIn_32.png,186,5.0,0.6596890999935567,,007,0,2024-10-10_13h57.34.615,Surprise recog test,2023.1.3,59.95329638942133,
186,0,186,0,,,,,,,,,,,,,,,,,,,,,,,,,,,,,,,,,,,,575.2055913000368,576.2348736999556,574.130478200037,574.130478200037,574.130478200037,574.130478200037,old_fruit_9.png,187,5.0,1.0766388999763876,,007,0,2024-10-10_13h57.34.615,Surprise recog test,2023.1.3,59.95329638942133,
187,0,187,0,,,,,,,,,,,,,,,,,,,,,,,,,,,,,,,,,,,,577.0334756999509,578.0404230999993,576.2348736999556,576.2348736999556,576.2348736999556,576.2348736999556,new_sceneIn_5.png,188,5.0,0.7994856999721378,,007,0,2024-10-10_13h57.34.615,Surprise recog test,2023.1.3,59.95329638942133,
188,0,188,0,,,,,,,,,,,,,,,,,,,,,,,,,,,,,,,,,,,,578.8518723000307,,578.0404230999993,578.0404230999993,578.0404230999993,578.0404230999993,new_fruit_3.png,189,5.0,0.8070429000072181,,007,0,2024-10-10_13h57.34.615,Surprise recog test,2023.1.3,59.95329638942133,
189,0,189,0,,,,,,,,,,,,,,,,,,,,,,,,,,,,,,,,,,,,583.134963599965,584.1589272000128,579.8866057000123,579.8866057000123,579.8866057000123,579.8866057000123,new_fruit_2.png,190,2.0,3.2516276000533253,,007,0,2024-10-10_13h57.34.615,Surprise recog test,2023.1.3,59.95329638942133,
190,0,190,0,,,,,,,,,,,,,,,,,,,,,,,,,,,,,,,,,,,,585.3309863000177,586.3470944999717,584.1589272000128,584.1589272000128,584.1589272000128,584.1589272000128,new_fruit_44.png,191,5.0,1.176184399984777,,007,0,2024-10-10_13h57.34.615,Surprise recog test,2023.1.3,59.95329638942133,
191,0,191,0,,,,,,,,,,,,,,,,,,,,,,,,,,,,,,,,,,,,588.4246155000292,589.4332669000141,586.3470944999717,586.3470944999717,586.3470944999717,586.3470944999717,old_stationery_43.png,192,1.0,2.0678498999914154,,007,0,2024-10-10_13h57.34.615,Surprise recog test,2023.1.3,59.95329638942133,
192,0,192,0,,,,,,,,,,,,,,,,,,,,,,,,,,,,,,,,,,,,590.2557893999619,591.2787081999704,589.4332669000141,589.4332669000141,589.4332669000141,589.4332669000141,new_sceneIn_25.png,193,5.0,0.8157786999363452,,007,0,2024-10-10_13h57.34.615,Surprise recog test,2023.1.3,59.95329638942133,
193,0,193,0,,,,,,,,,,,,,,,,,,,,,,,,,,,,,,,,,,,,591.8487287999596,592.8820726999547,591.2787081999704,591.2787081999704,591.2787081999704,591.2787081999704,old_sceneOut_30.png,194,5.0,0.571385300019756,,007,0,2024-10-10_13h57.34.615,Surprise recog test,2023.1.3,59.95329638942133,
194,0,194,0,,,,,,,,,,,,,,,,,,,,,,,,,,,,,,,,,,,,594.4014724999433,595.4331498000538,592.8820726999547,592.8820726999547,592.8820726999547,592.8820726999547,old_stationery_35.png,195,1.0,1.521656799945049,,007,0,2024-10-10_13h57.34.615,Surprise recog test,2023.1.3,59.95329638942133,
195,0,195,0,,,,,,,,,,,,,,,,,,,,,,,,,,,,,,,,,,,,597.065455300035,598.0835969999898,595.4331498000538,595.4331498000538,595.4331498000538,595.4331498000538,old_fruit_27.png,196,2.0,1.62961639999412,,007,0,2024-10-10_13h57.34.615,Surprise recog test,2023.1.3,59.95329638942133,
196,0,196,0,,,,,,,,,,,,,,,,,,,,,,,,,,,,,,,,,,,,599.6619781999616,600.6748051999602,598.0835969999898,598.0835969999898,598.0835969999898,598.0835969999898,new_fruit_43.png,197,5.0,1.5791569000575691,,007,0,2024-10-10_13h57.34.615,Surprise recog test,2023.1.3,59.95329638942133,
197,0,197,0,,,,,,,,,,,,,,,,,,,,,,,,,,,,,,,,,,,,601.9357269000029,602.9440295000095,600.6748051999602,600.6748051999602,600.6748051999602,600.6748051999602,new_stationery_47.png,198,5.0,1.2508310000412166,,007,0,2024-10-10_13h57.34.615,Surprise recog test,2023.1.3,59.95329638942133,
198,0,198,0,,,,,,,,,,,,,,,,,,,,,,,,,,,,,,,,,,,,603.5049318999518,604.5230520999758,602.9440295000095,602.9440295000095,602.9440295000095,602.9440295000095,old_sceneIn_40.png,199,5.0,0.5568234000820667,,007,0,2024-10-10_13h57.34.615,Surprise recog test,2023.1.3,59.95329638942133,
199,0,199,0,,,,,,,,,,,,,,,,,,,,,,,,,,,,,,,,,,,,605.9158768999623,606.9444436000194,604.5230520999758,604.5230520999758,604.5230520999758,604.5230520999758,new_fruit_39.png,200,5.0,1.3923316000727937,,007,0,2024-10-10_13h57.34.615,Surprise recog test,2023.1.3,59.95329638942133,
200,0,200,0,,,,,,,,,,,,,,,,,,,,,,,,,,,,,,,,,,,,607.6049307000358,608.6258689999813,606.9444436000194,606.9444436000194,606.9444436000194,606.9444436000194,new_sceneOut_17.png,201,5.0,0.6621848999056965,,007,0,2024-10-10_13h57.34.615,Surprise recog test,2023.1.3,59.95329638942133,
201,0,201,0,,,,,,,,,,,,,,,,,,,,,,,,,,,,,,,,,,,,611.1696832999587,612.1942961999448,608.6258689999813,608.6258689999813,608.6258689999813,608.6258689999813,old_stationery_42.png,202,4.0,2.542752700042911,,007,0,2024-10-10_13h57.34.615,Surprise recog test,2023.1.3,59.95329638942133,
202,0,202,0,,,,,,,,,,,,,,,,,,,,,,,,,,,,,,,,,,,,613.0376043999568,614.0656906999648,612.1942961999448,612.1942961999448,612.1942961999448,612.1942961999448,new_sceneIn_27.png,203,5.0,0.8392750000348315,,007,0,2024-10-10_13h57.34.615,Surprise recog test,2023.1.3,59.95329638942133,
203,0,203,0,,,,,,,,,,,,,,,,,,,,,,,,,,,,,,,,,,,,614.8630359000526,615.8823142000474,614.0656906999648,614.0656906999648,614.0656906999648,614.0656906999648,new_stationery_9.png,204,5.0,0.7926676999777555,,007,0,2024-10-10_13h57.34.615,Surprise recog test,2023.1.3,59.95329638942133,
204,0,204,0,,,,,,,,,,,,,,,,,,,,,,,,,,,,,,,,,,,,616.4277957000304,617.449661700055,615.8823142000474,615.8823142000474,615.8823142000474,615.8823142000474,new_sceneOut_30.png,205,5.0,0.547432400053367,,007,0,2024-10-10_13h57.34.615,Surprise recog test,2023.1.3,59.95329638942133,
205,0,205,0,,,,,,,,,,,,,,,,,,,,,,,,,,,,,,,,,,,,618.6160913000349,619.637874100008,617.449661700055,617.449661700055,617.449661700055,617.449661700055,old_fruit_44.png,206,5.0,1.1654519999865443,,007,0,2024-10-10_13h57.34.615,Surprise recog test,2023.1.3,59.95329638942133,
206,0,206,0,,,,,,,,,,,,,,,,,,,,,,,,,,,,,,,,,,,,622.0636786000105,623.0770400000038,619.637874100008,619.637874100008,619.637874100008,619.637874100008,old_fruit_8.png,207,3.0,2.430914600030519,,007,0,2024-10-10_13h57.34.615,Surprise recog test,2023.1.3,59.95329638942133,
207,0,207,0,,,,,,,,,,,,,,,,,,,,,,,,,,,,,,,,,,,,623.773432899965,,623.0770400000038,623.0770400000038,623.0770400000038,623.0770400000038,old_sceneOut_24.png,208,5.0,0.6906259000534192,,007,0,2024-10-10_13h57.34.615,Surprise recog test,2023.1.3,59.95329638942133,
208,0,208,0,,,,,,,,,,,,,,,,,,,,,,,,,,,,,,,,,,,,625.4883820000105,626.5169494999573,624.7951084000524,624.7951084000524,624.7951084000524,624.7951084000524,old_sceneIn_16.png,209,5.0,0.6879164000274613,,007,0,2024-10-10_13h57.34.615,Surprise recog test,2023.1.3,59.95329638942133,
209,0,209,0,,,,,,,,,,,,,,,,,,,,,,,,,,,,,,,,,,,,628.5077519000042,629.5281770000001,626.5169494999573,626.5169494999573,626.5169494999573,626.5169494999573,new_fruit_22.png,210,5.0,1.9943640999263152,,007,0,2024-10-10_13h57.34.615,Surprise recog test,2023.1.3,59.95329638942133,
210,0,210,0,,,,,,,,,,,,,,,,,,,,,,,,,,,,,,,,,,,,631.3678712999681,632.3996596999932,629.5281770000001,629.5281770000001,629.5281770000001,629.5281770000001,old_stationery_36.png,211,3.0,1.8416731000179425,,007,0,2024-10-10_13h57.34.615,Surprise recog test,2023.1.3,59.95329638942133,
211,0,211,0,,,,,,,,,,,,,,,,,,,,,,,,,,,,,,,,,,,,633.0720141000347,634.0969996999484,632.3996596999932,632.3996596999932,632.3996596999932,632.3996596999932,old_sceneIn_44.png,212,5.0,0.6718329000286758,,007,0,2024-10-10_13h57.34.615,Surprise recog test,2023.1.3,59.95329638942133,
212,0,212,0,,,,,,,,,,,,,,,,,,,,,,,,,,,,,,,,,,,,634.8312750000041,635.8494726000354,634.0969996999484,634.0969996999484,634.0969996999484,634.0969996999484,old_fruit_13.png,213,5.0,0.7366678999969736,,007,0,2024-10-10_13h57.34.615,Surprise recog test,2023.1.3,59.95329638942133,
213,0,213,0,,,,,,,,,,,,,,,,,,,,,,,,,,,,,,,,,,,,636.6679285999853,,635.8494726000354,635.8494726000354,635.8494726000354,635.8494726000354,old_fruit_17.png,214,5.0,0.8202084000222385,,007,0,2024-10-10_13h57.34.615,Surprise recog test,2023.1.3,59.95329638942133,
214,0,214,0,,,,,,,,,,,,,,,,,,,,,,,,,,,,,,,,,,,,638.3396045999834,639.360739500029,637.6882865000516,637.6882865000516,637.6882865000516,637.6882865000516,new_sceneIn_20.png,215,5.0,0.64297569997143,,007,0,2024-10-10_13h57.34.615,Surprise recog test,2023.1.3,59.95329638942133,
215,0,215,0,,,,,,,,,,,,,,,,,,,,,,,,,,,,,,,,,,,,639.951798300026,640.9770154999569,639.360739500029,639.360739500029,639.360739500029,639.360739500029,old_sceneOut_1.png,216,5.0,0.5880823999177665,,007,0,2024-10-10_13h57.34.615,Surprise recog test,2023.1.3,59.95329638942133,
216,0,216,0,,,,,,,,,,,,,,,,,,,,,,,,,,,,,,,,,,,,641.5204144000309,,640.9770154999569,640.9770154999569,640.9770154999569,640.9770154999569,old_sceneOut_49.png,217,5.0,0.5471160000888631,,007,0,2024-10-10_13h57.34.615,Surprise recog test,2023.1.3,59.95329638942133,
217,0,217,0,,,,,,,,,,,,,,,,,,,,,,,,,,,,,,,,,,,,643.2770699999528,644.2952814999735,642.5393686000025,642.5393686000025,642.5393686000025,642.5393686000025,new_sceneIn_44.png,218,5.0,0.7329067999962717,,007,0,2024-10-10_13h57.34.615,Surprise recog test,2023.1.3,59.95329638942133,
218,0,218,0,,,,,,,,,,,,,,,,,,,,,,,,,,,,,,,,,,,,644.8403759000357,,644.2952814999735,644.2952814999735,644.2952814999735,644.2952814999735,old_sceneOut_7.png,219,5.0,0.5402309000492096,,007,0,2024-10-10_13h57.34.615,Surprise recog test,2023.1.3,59.95329638942133,
219,0,219,0,,,,,,,,,,,,,,,,,,,,,,,,,,,,,,,,,,,,646.4935053000227,,645.8686940999469,645.8686940999469,645.8686940999469,645.8686940999469,old_sceneIn_2.png,220,5.0,0.6249669999815524,,007,0,2024-10-10_13h57.34.615,Surprise recog test,2023.1.3,59.95329638942133,
220,0,220,0,,,,,,,,,,,,,,,,,,,,,,,,,,,,,,,,,,,,648.084015200031,649.1129598000553,647.5249157999642,647.5249157999642,647.5249157999642,647.5249157999642,new_sceneOut_37.png,221,5.0,0.5603955000406131,,007,0,2024-10-10_13h57.34.615,Surprise recog test,2023.1.3,59.95329638942133,
221,0,221,0,,,,,,,,,,,,,,,,,,,,,,,,,,,,,,,,,,,,649.5934382999549,650.595899399952,649.1129598000553,649.1129598000553,649.1129598000553,649.1129598000553,old_sceneOut_13.png,222,5.0,0.4835584999527782,,007,0,2024-10-10_13h57.34.615,Surprise recog test,2023.1.3,59.95329638942133,
222,0,222,0,,,,,,,,,,,,,,,,,,,,,,,,,,,,,,,,,,,,653.1761473000515,654.1920661999611,650.595899399952,650.595899399952,650.595899399952,650.595899399952,old_stationery_1.png,223,1.0,2.5764234999660403,,007,0,2024-10-10_13h57.34.615,Surprise recog test,2023.1.3,59.95329638942133,
223,0,223,0,,,,,,,,,,,,,,,,,,,,,,,,,,,,,,,,,,,,655.8097837000387,656.8347340000328,654.1920661999611,654.1920661999611,654.1920661999611,654.1920661999611,old_stationery_21.png,224,1.0,1.6185699000488967,,007,0,2024-10-10_13h57.34.615,Surprise recog test,2023.1.3,59.95329638942133,
224,0,224,0,,,,,,,,,,,,,,,,,,,,,,,,,,,,,,,,,,,,657.7919327999698,658.8203201999422,656.8347340000328,656.8347340000328,656.8347340000328,656.8347340000328,old_stationery_27.png,225,1.0,0.9562187000410631,,007,0,2024-10-10_13h57.34.615,Surprise recog test,2023.1.3,59.95329638942133,
225,0,225,0,,,,,,,,,,,,,,,,,,,,,,,,,,,,,,,,,,,,660.5945627000183,661.6228094999678,658.8203201999422,658.8203201999422,658.8203201999422,658.8203201999422,old_sceneOut_39.png,226,5.0,1.7767030000686646,,007,0,2024-10-10_13h57.34.615,Surprise recog test,2023.1.3,59.95329638942133,
226,0,226,0,,,,,,,,,,,,,,,,,,,,,,,,,,,,,,,,,,,,662.7772743999958,663.8037607000442,661.6228094999678,661.6228094999678,661.6228094999678,661.6228094999678,old_fruit_35.png,227,5.0,1.1562542000319809,,007,0,2024-10-10_13h57.34.615,Surprise recog test,2023.1.3,59.95329638942133,
227,0,227,0,,,,,,,,,,,,,,,,,,,,,,,,,,,,,,,,,,,,666.614717700053,667.6355324999895,663.8037607000442,663.8037607000442,663.8037607000442,663.8037607000442,old_fruit_14.png,228,5.0,2.813250600011088,,007,0,2024-10-10_13h57.34.615,Surprise recog test,2023.1.3,59.95329638942133,
228,0,228,0,,,,,,,,,,,,,,,,,,,,,,,,,,,,,,,,,,,,668.1993072000332,669.2273571999976,667.6355324999895,667.6355324999895,667.6355324999895,667.6355324999895,new_sceneOut_4.png,229,5.0,0.563652400043793,,007,0,2024-10-10_13h57.34.615,Surprise recog test,2023.1.3,59.95329638942133,
229,0,229,0,,,,,,,,,,,,,,,,,,,,,,,,,,,,,,,,,,,,672.8984467999544,,669.2273571999976,669.2273571999976,669.2273571999976,669.2273571999976,new_stationery_35.png,230,2.0,3.6705632000230253,,007,0,2024-10-10_13h57.34.615,Surprise recog test,2023.1.3,59.95329638942133,
230,0,230,0,,,,,,,,,,,,,,,,,,,,,,,,,,,,,,,,,,,,674.6827282999875,,673.9330311999656,673.9330311999656,673.9330311999656,673.9330311999656,old_sceneOut_3.png,231,5.0,0.7533012999920174,,007,0,2024-10-10_13h57.34.615,Surprise recog test,2023.1.3,59.95329638942133,
231,0,231,0,,,,,,,,,,,,,,,,,,,,,,,,,,,,,,,,,,,,676.3232528000372,677.3383926999522,675.7175833999645,675.7175833999645,675.7175833999645,675.7175833999645,new_sceneIn_46.png,232,5.0,0.6081268000416458,,007,0,2024-10-10_13h57.34.615,Surprise recog test,2023.1.3,59.95329638942133,
232,0,232,0,,,,,,,,,,,,,,,,,,,,,,,,,,,,,,,,,,,,678.2546887999633,679.2859613000182,677.3383926999522,677.3383926999522,677.3383926999522,677.3383926999522,new_fruit_20.png,233,5.0,0.9116065000416711,,007,0,2024-10-10_13h57.34.615,Surprise recog test,2023.1.3,59.95329638942133,
233,0,233,0,,,,,,,,,,,,,,,,,,,,,,,,,,,,,,,,,,,,680.1905075999675,681.2088369999547,679.2859613000182,679.2859613000182,679.2859613000182,679.2859613000182,new_sceneIn_43.png,234,5.0,0.9063515000743791,,007,0,2024-10-10_13h57.34.615,Surprise recog test,2023.1.3,59.95329638942133,
234,0,234,0,,,,,,,,,,,,,,,,,,,,,,,,,,,,,,,,,,,,683.1877322000219,684.1919723999454,681.2088369999547,681.2088369999547,681.2088369999547,681.2088369999547,old_stationery_2.png,235,2.0,1.9747009000275284,,007,0,2024-10-10_13h57.34.615,Surprise recog test,2023.1.3,59.95329638942133,
235,0,235,0,,,,,,,,,,,,,,,,,,,,,,,,,,,,,,,,,,,,684.8957207000349,685.92409710004,684.1919723999454,684.1919723999454,684.1919723999454,684.1919723999454,new_sceneOut_40.png,236,5.0,0.6977024000370875,,007,0,2024-10-10_13h57.34.615,Surprise recog test,2023.1.3,59.95329638942133,
236,0,236,0,,,,,,,,,,,,,,,,,,,,,,,,,,,,,,,,,,,,687.6771481999895,,685.92409710004,685.92409710004,685.92409710004,685.92409710004,new_stationery_30.png,237,1.0,1.7551996000111103,,007,0,2024-10-10_13h57.34.615,Surprise recog test,2023.1.3,59.95329638942133,
237,0,237,0,,,,,,,,,,,,,,,,,,,,,,,,,,,,,,,,,,,,690.4339897000464,691.4639156999765,688.7092777000507,688.7092777000507,688.7092777000507,688.7092777000507,old_stationery_37.png,238,5.0,1.726110199932009,,007,0,2024-10-10_13h57.34.615,Surprise recog test,2023.1.3,59.95329638942133,
238,0,238,0,,,,,,,,,,,,,,,,,,,,,,,,,,,,,,,,,,,,691.9792296000523,,691.4639156999765,691.4639156999765,691.4639156999765,691.4639156999765,new_sceneIn_22.png,239,5.0,0.5185554000781849,,007,0,2024-10-10_13h57.34.615,Surprise recog test,2023.1.3,59.95329638942133,
239,0,239,0,,,,,,,,,,,,,,,,,,,,,,,,,,,,,,,,,,,,693.91533540003,,693.0112902000546,693.0112902000546,693.0112902000546,693.0112902000546,old_fruit_42.png,240,5.0,0.9067003999371082,,007,0,2024-10-10_13h57.34.615,Surprise recog test,2023.1.3,59.95329638942133,
240,0,240,0,,,,,,,,,,,,,,,,,,,,,,,,,,,,,,,,,,,,695.7969933999702,696.8203214999521,694.9473486000206,694.9473486000206,694.9473486000206,694.9473486000206,new_stationery_31.png,241,5.0,0.8492497000843287,,007,0,2024-10-10_13h57.34.615,Surprise recog test,2023.1.3,59.95329638942133,
241,0,241,0,,,,,,,,,,,,,,,,,,,,,,,,,,,,,,,,,,,,697.3731802999973,698.399758500047,696.8203214999521,696.8203214999521,696.8203214999521,696.8203214999521,new_sceneIn_16.png,242,5.0,0.5546979000791907,,007,0,2024-10-10_13h57.34.615,Surprise recog test,2023.1.3,59.95329638942133,
242,0,242,0,,,,,,,,,,,,,,,,,,,,,,,,,,,,,,,,,,,,699.0162846000167,700.0395241000224,698.399758500047,698.399758500047,698.399758500047,698.399758500047,old_sceneIn_18.png,243,5.0,0.6143159000203013,,007,0,2024-10-10_13h57.34.615,Surprise recog test,2023.1.3,59.95329638942133,
243,0,243,0,,,,,,,,,,,,,,,,,,,,,,,,,,,,,,,,,,,,700.9896193000022,702.0142889999552,700.0395241000224,700.0395241000224,700.0395241000224,700.0395241000224,old_fruit_43.png,244,5.0,0.95452180004213,,007,0,2024-10-10_13h57.34.615,Surprise recog test,2023.1.3,59.95329638942133,
244,0,244,0,,,,,,,,,,,,,,,,,,,,,,,,,,,,,,,,,,,,705.4384612999856,706.4462330000242,702.0142889999552,702.0142889999552,702.0142889999552,702.0142889999552,old_stationery_13.png,245,3.0,3.423704099957831,,007,0,2024-10-10_13h57.34.615,Surprise recog test,2023.1.3,59.95329638942133,
245,0,245,0,,,,,,,,,,,,,,,,,,,,,,,,,,,,,,,,,,,,708.0501785000088,709.0731841999805,706.4462330000242,706.4462330000242,706.4462330000242,706.4462330000242,old_fruit_20.png,246,5.0,1.598360100062564,,007,0,2024-10-10_13h57.34.615,Surprise recog test,2023.1.3,59.95329638942133,
246,0,246,0,,,,,,,,,,,,,,,,,,,,,,,,,,,,,,,,,,,,711.0845054000383,712.116306800046,709.0731841999805,709.0731841999805,709.0731841999805,709.0731841999805,new_fruit_31.png,247,3.0,2.0125483999727294,,007,0,2024-10-10_13h57.34.615,Surprise recog test,2023.1.3,59.95329638942133,
247,0,247,0,,,,,,,,,,,,,,,,,,,,,,,,,,,,,,,,,,,,715.3132218000246,716.3323962000431,712.116306800046,712.116306800046,712.116306800046,712.116306800046,new_fruit_42.png,248,5.0,3.197901999927126,,007,0,2024-10-10_13h57.34.615,Surprise recog test,2023.1.3,59.95329638942133,
248,0,248,0,,,,,,,,,,,,,,,,,,,,,,,,,,,,,,,,,,,,717.0153882999439,718.0348791000433,716.3323962000431,716.3323962000431,716.3323962000431,716.3323962000431,old_sceneIn_38.png,249,5.0,0.6847748999716714,,007,0,2024-10-10_13h57.34.615,Surprise recog test,2023.1.3,59.95329638942133,
249,0,249,0,,,,,,,,,,,,,,,,,,,,,,,,,,,,,,,,,,,,718.5442556999624,719.5561626000563,718.0348791000433,718.0348791000433,718.0348791000433,718.0348791000433,new_sceneOut_42.png,250,5.0,0.5094198000151664,,007,0,2024-10-10_13h57.34.615,Surprise recog test,2023.1.3,59.95329638942133,
250,0,250,0,,,,,,,,,,,,,,,,,,,,,,,,,,,,,,,,,,,,720.1716070000548,,719.5561626000563,719.5561626000563,719.5561626000563,719.5561626000563,old_sceneIn_37.png,251,5.0,0.6109162999782711,,007,0,2024-10-10_13h57.34.615,Surprise recog test,2023.1.3,59.95329638942133,
251,0,251,0,,,,,,,,,,,,,,,,,,,,,,,,,,,,,,,,,,,,721.6938186000334,722.7264313000487,721.2070914000506,721.2070914000506,721.2070914000506,721.2070914000506,old_sceneOut_25.png,252,5.0,0.4905256999190897,,007,0,2024-10-10_13h57.34.615,Surprise recog test,2023.1.3,59.95329638942133,
252,0,252,0,,,,,,,,,,,,,,,,,,,,,,,,,,,,,,,,,,,,725.6528215999715,726.6790064000525,722.7264313000487,722.7264313000487,722.7264313000487,722.7264313000487,old_fruit_23.png,253,1.0,2.929111500037834,,007,0,2024-10-10_13h57.34.615,Surprise recog test,2023.1.3,59.95329638942133,
253,0,253,0,,,,,,,,,,,,,,,,,,,,,,,,,,,,,,,,,,,,727.9118241999531,728.9318716999842,726.6790064000525,726.6790064000525,726.6790064000525,726.6790064000525,old_sceneIn_46.png,254,5.0,1.2374989999225363,,007,0,2024-10-10_13h57.34.615,Surprise recog test,2023.1.3,59.95329638942133,
254,0,254,0,,,,,,,,,,,,,,,,,,,,,,,,,,,,,,,,,,,,729.8855409000535,730.9111964999465,728.9318716999842,728.9318716999842,728.9318716999842,728.9318716999842,old_fruit_41.png,255,5.0,0.947316600009799,,007,0,2024-10-10_13h57.34.615,Surprise recog test,2023.1.3,59.95329638942133,
255,0,255,0,,,,,,,,,,,,,,,,,,,,,,,,,,,,,,,,,,,,731.8102827999974,732.8311375000048,730.9111964999465,730.9111964999465,730.9111964999465,730.9111964999465,new_fruit_1.png,256,5.0,0.8934875000268221,,007,0,2024-10-10_13h57.34.615,Surprise recog test,2023.1.3,59.95329638942133,
256,0,256,0,,,,,,,,,,,,,,,,,,,,,,,,,,,,,,,,,,,,733.4425047000404,734.4571370000485,732.8311375000048,732.8311375000048,732.8311375000048,732.8311375000048,new_sceneIn_17.png,257,5.0,0.6115886999759823,,007,0,2024-10-10_13h57.34.615,Surprise recog test,2023.1.3,59.95329638942133,
257,0,257,0,,,,,,,,,,,,,,,,,,,,,,,,,,,,,,,,,,,,736.0366032000165,737.0690445000073,734.4571370000485,734.4571370000485,734.4571370000485,734.4571370000485,old_stationery_11.png,258,1.0,1.5792164000449702,,007,0,2024-10-10_13h57.34.615,Surprise recog test,2023.1.3,59.95329638942133,
258,0,258,0,,,,,,,,,,,,,,,,,,,,,,,,,,,,,,,,,,,,740.2682589000324,741.2760945999762,737.0690445000073,737.0690445000073,737.0690445000073,737.0690445000073,new_fruit_23.png,259,5.0,3.2026846000226215,,007,0,2024-10-10_13h57.34.615,Surprise recog test,2023.1.3,59.95329638942133,
259,0,259,0,,,,,,,,,,,,,,,,,,,,,,,,,,,,,,,,,,,,742.4023249000311,743.422804199974,741.2760945999762,741.2760945999762,741.2760945999762,741.2760945999762,new_sceneIn_29.png,260,5.0,1.1198035000124946,,007,0,2024-10-10_13h57.34.615,Surprise recog test,2023.1.3,59.95329638942133,
260,0,260,0,,,,,,,,,,,,,,,,,,,,,,,,,,,,,,,,,,,,744.027069499949,745.0591593999416,743.422804199974,743.422804199974,743.422804199974,743.422804199974,old_sceneIn_22.png,261,5.0,0.6063577000750229,,007,0,2024-10-10_13h57.34.615,Surprise recog test,2023.1.3,59.95329638942133,
261,0,261,0,,,,,,,,,,,,,,,,,,,,,,,,,,,,,,,,,,,,745.696391299949,746.7107390000019,745.0591593999416,745.0591593999416,745.0591593999416,745.0591593999416,new_sceneIn_8.png,262,5.0,0.6377724000485614,,007,0,2024-10-10_13h57.34.615,Surprise recog test,2023.1.3,59.95329638942133,
262,0,262,0,,,,,,,,,,,,,,,,,,,,,,,,,,,,,,,,,,,,747.2923397000413,,746.7107390000019,746.7107390000019,746.7107390000019,746.7107390000019,old_sceneOut_48.png,263,5.0,0.5762130999937654,,007,0,2024-10-10_13h57.34.615,Surprise recog test,2023.1.3,59.95329638942133,
263,0,263,0,,,,,,,,,,,,,,,,,,,,,,,,,,,,,,,,,,,,749.6688538000453,750.693893800024,748.3299715999747,748.3299715999747,748.3299715999747,748.3299715999747,new_fruit_19.png,264,5.0,1.3397978999419138,,007,0,2024-10-10_13h57.34.615,Surprise recog test,2023.1.3,59.95329638942133,
264,0,264,0,,,,,,,,,,,,,,,,,,,,,,,,,,,,,,,,,,,,751.2959486000473,,750.693893800024,750.693893800024,750.693893800024,750.693893800024,old_sceneIn_17.png,265,5.0,0.6038564000045881,,007,0,2024-10-10_13h57.34.615,Surprise recog test,2023.1.3,59.95329638942133,
265,0,265,0,,,,,,,,,,,,,,,,,,,,,,,,,,,,,,,,,,,,753.1478908000281,,752.3289193999954,752.3289193999954,752.3289193999954,752.3289193999954,new_stationery_39.png,266,5.0,0.8205317999236286,,007,0,2024-10-10_13h57.34.615,Surprise recog test,2023.1.3,59.95329638942133,
266,0,266,0,,,,,,,,,,,,,,,,,,,,,,,,,,,,,,,,,,,,754.7849137999583,755.8087805999676,754.1781908000121,754.1781908000121,754.1781908000121,754.1781908000121,new_sceneOut_24.png,267,5.0,0.6081328999716789,,007,0,2024-10-10_13h57.34.615,Surprise recog test,2023.1.3,59.95329638942133,
267,0,267,0,,,,,,,,,,,,,,,,,,,,,,,,,,,,,,,,,,,,756.500732799992,,755.8087805999676,755.8087805999676,755.8087805999676,755.8087805999676,new_sceneOut_26.png,268,5.0,0.6903774000238627,,007,0,2024-10-10_13h57.34.615,Surprise recog test,2023.1.3,59.95329638942133,
268,0,268,0,,,,,,,,,,,,,,,,,,,,,,,,,,,,,,,,,,,,760.0706864000531,,757.5180050999625,757.5180050999625,757.5180050999625,757.5180050999625,new_stationery_15.png,269,2.0,2.54910960001871,,007,0,2024-10-10_13h57.34.615,Surprise recog test,2023.1.3,59.95329638942133,
269,0,269,0,,,,,,,,,,,,,,,,,,,,,,,,,,,,,,,,,,,,763.3611319999909,764.3895630999468,761.1103877000278,761.1103877000278,761.1103877000278,761.1103877000278,new_fruit_38.png,270,3.0,2.2549522999906912,,007,0,2024-10-10_13h57.34.615,Surprise recog test,2023.1.3,59.95329638942133,
270,0,270,0,,,,,,,,,,,,,,,,,,,,,,,,,,,,,,,,,,,,766.1107524000108,767.1398813000415,764.3895630999468,764.3895630999468,764.3895630999468,764.3895630999468,old_fruit_39.png,271,3.0,1.722945100045763,,007,0,2024-10-10_13h57.34.615,Surprise recog test,2023.1.3,59.95329638942133,
271,0,271,0,,,,,,,,,,,,,,,,,,,,,,,,,,,,,,,,,,,,768.5607800999423,,767.1398813000415,767.1398813000415,767.1398813000415,767.1398813000415,old_fruit_3.png,272,5.0,1.4236477999947965,,007,0,2024-10-10_13h57.34.615,Surprise recog test,2023.1.3,59.95329638942133,
272,0,272,0,,,,,,,,,,,,,,,,,,,,,,,,,,,,,,,,,,,,770.2285594999557,,769.5816066999687,769.5816066999687,769.5816066999687,769.5816066999687,new_sceneOut_38.png,273,5.0,0.6433653000276536,,007,0,2024-10-10_13h57.34.615,Surprise recog test,2023.1.3,59.95329638942133,
273,0,273,0,,,,,,,,,,,,,,,,,,,,,,,,,,,,,,,,,,,,771.8947282000445,772.9015002000378,771.2605899999617,771.2605899999617,771.2605899999617,771.2605899999617,old_sceneOut_34.png,274,5.0,0.6361583999823779,,007,0,2024-10-10_13h57.34.615,Surprise recog test,2023.1.3,59.95329638942133,
274,0,274,0,,,,,,,,,,,,,,,,,,,,,,,,,,,,,,,,,,,,774.2002147999592,,772.9015002000378,772.9015002000378,772.9015002000378,772.9015002000378,old_fruit_36.png,275,5.0,1.2938138999743387,,007,0,2024-10-10_13h57.34.615,Surprise recog test,2023.1.3,59.95329638942133,
275,0,275,0,,,,,,,,,,,,,,,,,,,,,,,,,,,,,,,,,,,,776.6565668999683,777.6842475000303,775.2319116999861,775.2319116999861,775.2319116999861,775.2319116999861,old_stationery_39.png,276,1.0,1.426882000057958,,007,0,2024-10-10_13h57.34.615,Surprise recog test,2023.1.3,59.95329638942133,
276,0,276,0,,,,,,,,,,,,,,,,,,,,,,,,,,,,,,,,,,,,778.5902796000009,779.6072228000266,777.6842475000303,777.6842475000303,777.6842475000303,777.6842475000303,old_fruit_18.png,277,1.0,0.9090209000278264,,007,0,2024-10-10_13h57.34.615,Surprise recog test,2023.1.3,59.95329638942133,
277,0,277,0,,,,,,,,,,,,,,,,,,,,,,,,,,,,,,,,,,,,780.7577512999997,781.7752620000392,779.6072228000266,779.6072228000266,779.6072228000266,779.6072228000266,new_sceneIn_30.png,278,5.0,1.1458077999996021,,007,0,2024-10-10_13h57.34.615,Surprise recog test,2023.1.3,59.95329638942133,
278,0,278,0,,,,,,,,,,,,,,,,,,,,,,,,,,,,,,,,,,,,782.5871961000375,783.6097646000562,781.7752620000392,781.7752620000392,781.7752620000392,781.7752620000392,new_fruit_10.png,279,5.0,0.8070967000676319,,007,0,2024-10-10_13h57.34.615,Surprise recog test,2023.1.3,59.95329638942133,
279,0,279,0,,,,,,,,,,,,,,,,,,,,,,,,,,,,,,,,,,,,784.203356700018,785.2260740000056,783.6097646000562,783.6097646000562,783.6097646000562,783.6097646000562,old_sceneIn_8.png,280,5.0,0.596996400039643,,007,0,2024-10-10_13h57.34.615,Surprise recog test,2023.1.3,59.95329638942133,
280,0,280,0,,,,,,,,,,,,,,,,,,,,,,,,,,,,,,,,,,,,787.1587739000097,,785.2260740000056,785.2260740000056,785.2260740000056,785.2260740000056,old_stationery_40.png,281,1.0,1.9354119000490755,,007,0,2024-10-10_13h57.34.615,Surprise recog test,2023.1.3,59.95329638942133,
281,0,281,0,,,,,,,,,,,,,,,,,,,,,,,,,,,,,,,,,,,,789.4343777999748,790.4610928000184,788.1919385000365,788.1919385000365,788.1919385000365,788.1919385000365,new_fruit_26.png,282,1.0,1.2443640000419691,,007,0,2024-10-10_13h57.34.615,Surprise recog test,2023.1.3,59.95329638942133,
282,0,282,0,,,,,,,,,,,,,,,,,,,,,,,,,,,,,,,,,,,,791.8947013999568,792.899145900039,790.4610928000184,790.4610928000184,790.4610928000184,790.4610928000184,old_sceneOut_22.png,283,5.0,1.433290599961765,,007,0,2024-10-10_13h57.34.615,Surprise recog test,2023.1.3,59.95329638942133,
283,0,283,0,,,,,,,,,,,,,,,,,,,,,,,,,,,,,,,,,,,,793.9212020999985,794.9355488000438,792.899145900039,792.899145900039,792.899145900039,792.899145900039,new_fruit_36.png,284,5.0,1.0167967999586836,,007,0,2024-10-10_13h57.34.615,Surprise recog test,2023.1.3,59.95329638942133,
284,0,284,0,,,,,,,,,,,,,,,,,,,,,,,,,,,,,,,,,,,,795.4956113999942,796.5078826999525,794.9355488000438,794.9355488000438,794.9355488000438,794.9355488000438,new_sceneOut_14.png,285,5.0,0.5566497000399977,,007,0,2024-10-10_13h57.34.615,Surprise recog test,2023.1.3,59.95329638942133,
285,0,285,0,,,,,,,,,,,,,,,,,,,,,,,,,,,,,,,,,,,,797.1218305999646,798.1507751999889,796.5078826999525,796.5078826999525,796.5078826999525,796.5078826999525,old_sceneIn_14.png,286,5.0,0.6079112000297755,,007,0,2024-10-10_13h57.34.615,Surprise recog test,2023.1.3,59.95329638942133,
286,0,286,0,,,,,,,,,,,,,,,,,,,,,,,,,,,,,,,,,,,,799.3349374999525,800.3545183000388,798.1507751999889,798.1507751999889,798.1507751999889,798.1507751999889,new_fruit_7.png,287,5.0,1.1861152000492439,,007,0,2024-10-10_13h57.34.615,Surprise recog test,2023.1.3,59.95329638942133,
287,0,287,0,,,,,,,,,,,,,,,,,,,,,,,,,,,,,,,,,,,,801.9127136999741,802.9387557000155,800.3545183000388,800.3545183000388,800.3545183000388,800.3545183000388,old_fruit_11.png,288,1.0,1.5576773999491706,,007,0,2024-10-10_13h57.34.615,Surprise recog test,2023.1.3,59.95329638942133,
288,0,288,0,,,,,,,,,,,,,,,,,,,,,,,,,,,,,,,,,,,,804.2887786000501,805.296435700031,802.9387557000155,802.9387557000155,802.9387557000155,802.9387557000155,new_sceneOut_20.png,289,5.0,1.351308900048025,,007,0,2024-10-10_13h57.34.615,Surprise recog test,2023.1.3,59.95329638942133,
289,0,289,0,,,,,,,,,,,,,,,,,,,,,,,,,,,,,,,,,,,,807.648812099942,808.6769157999661,805.296435700031,805.296435700031,805.296435700031,805.296435700031,old_fruit_7.png,290,1.0,2.3491397999459878,,007,0,2024-10-10_13h57.34.615,Surprise recog test,2023.1.3,59.95329638942133,
290,0,290,0,,,,,,,,,,,,,,,,,,,,,,,,,,,,,,,,,,,,810.1354788000463,811.1619520999957,808.6769157999661,808.6769157999661,808.6769157999661,808.6769157999661,new_sceneOut_15.png,291,5.0,1.4611116000451148,,007,0,2024-10-10_13h57.34.615,Surprise recog test,2023.1.3,59.95329638942133,
291,0,291,0,,,,,,,,,,,,,,,,,,,,,,,,,,,,,,,,,,,,811.7767975999741,812.7957930000266,811.1619520999957,811.1619520999957,811.1619520999957,811.1619520999957,new_sceneOut_43.png,292,5.0,0.6102637000149116,,007,0,2024-10-10_13h57.34.615,Surprise recog test,2023.1.3,59.95329638942133,
292,0,292,0,,,,,,,,,,,,,,,,,,,,,,,,,,,,,,,,,,,,814.182730200002,,812.7957930000266,812.7957930000266,812.7957930000266,812.7957930000266,old_stationery_28.png,293,1.0,1.3880067999707535,,007,0,2024-10-10_13h57.34.615,Surprise recog test,2023.1.3,59.95329638942133,
293,0,293,0,,,,,,,,,,,,,,,,,,,,,,,,,,,,,,,,,,,,817.4844363000011,,815.2098619999597,815.2098619999597,815.2098619999597,815.2098619999597,old_fruit_12.png,294,2.0,2.2756485000718385,,007,0,2024-10-10_13h57.34.615,Surprise recog test,2023.1.3,59.95329638942133,
294,0,294,0,,,,,,,,,,,,,,,,,,,,,,,,,,,,,,,,,,,,820.0886842999607,821.1195469000377,818.5170209000353,818.5170209000353,818.5170209000353,818.5170209000353,new_stationery_19.png,295,5.0,1.5733603000408038,,007,0,2024-10-10_13h57.34.615,Surprise recog test,2023.1.3,59.95329638942133,
295,0,295,0,,,,,,,,,,,,,,,,,,,,,,,,,,,,,,,,,,,,821.7280499000335,822.7428138999967,821.1195469000377,821.1195469000377,821.1195469000377,821.1195469000377,new_sceneOut_18.png,296,5.0,0.610433999914676,,007,0,2024-10-10_13h57.34.615,Surprise recog test,2023.1.3,59.95329638942133,
296,0,296,0,,,,,,,,,,,,,,,,,,,,,,,,,,,,,,,,,,,,823.5495052000042,824.5736434999853,822.7428138999967,822.7428138999967,822.7428138999967,822.7428138999967,new_stationery_20.png,297,5.0,0.8017070000059903,,007,0,2024-10-10_13h57.34.615,Surprise recog test,2023.1.3,59.95329638942133,
297,0,297,0,,,,,,,,,,,,,,,,,,,,,,,,,,,,,,,,,,,,825.1293056999566,826.1427197000012,824.5736434999853,824.5736434999853,824.5736434999853,824.5736434999853,new_sceneOut_11.png,298,5.0,0.5591072000097483,,007,0,2024-10-10_13h57.34.615,Surprise recog test,2023.1.3,59.95329638942133,
298,0,298,0,,,,,,,,,,,,,,,,,,,,,,,,,,,,,,,,,,,,827.9803371999878,829.0110965999775,826.1427197000012,826.1427197000012,826.1427197000012,826.1427197000012,new_stationery_26.png,299,5.0,1.8315950999967754,,007,0,2024-10-10_13h57.34.615,Surprise recog test,2023.1.3,59.95329638942133,
299,0,299,0,,,,,,,,,,,,,,,,,,,,,,,,,,,,,,,,,,,,831.2262325000484,832.2355749000562,829.0110965999775,829.0110965999775,829.0110965999775,829.0110965999775,old_stationery_46.png,300,1.0,2.212938299984671,,007,0,2024-10-10_13h57.34.615,Surprise recog test,2023.1.3,59.95329638942133,
300,0,300,0,,,,,,,,,,,,,,,,,,,,,,,,,,,,,,,,,,,,833.1300239999546,,832.2355749000562,832.2355749000562,832.2355749000562,832.2355749000562,new_sceneIn_24.png,301,5.0,0.8927469999762252,,007,0,2024-10-10_13h57.34.615,Surprise recog test,2023.1.3,59.95329638942133,
301,0,301,0,,,,,,,,,,,,,,,,,,,,,,,,,,,,,,,,,,,,834.8926033000462,835.9044170000125,834.1609963000519,834.1609963000519,834.1609963000519,834.1609963000519,new_sceneOut_13.png,302,5.0,0.7337377000367269,,007,0,2024-10-10_13h57.34.615,Surprise recog test,2023.1.3,59.95329638942133,
302,0,302,0,,,,,,,,,,,,,,,,,,,,,,,,,,,,,,,,,,,,836.5973841999657,837.6062157000415,835.9044170000125,835.9044170000125,835.9044170000125,835.9044170000125,old_sceneIn_27.png,303,5.0,0.6889444999396801,,007,0,2024-10-10_13h57.34.615,Surprise recog test,2023.1.3,59.95329638942133,
303,0,303,0,,,,,,,,,,,,,,,,,,,,,,,,,,,,,,,,,,,,838.4037680999609,839.4443339999998,837.6062157000415,837.6062157000415,837.6062157000415,837.6062157000415,new_fruit_47.png,304,5.0,0.7935625000391155,,007,0,2024-10-10_13h57.34.615,Surprise recog test,2023.1.3,59.95329638942133,
304,0,304,0,,,,,,,,,,,,,,,,,,,,,,,,,,,,,,,,,,,,840.9863201000262,,839.4443339999998,839.4443339999998,839.4443339999998,839.4443339999998,old_stationery_4.png,305,1.0,1.5470550000900403,,007,0,2024-10-10_13h57.34.615,Surprise recog test,2023.1.3,59.95329638942133,
305,0,305,0,,,,,,,,,,,,,,,,,,,,,,,,,,,,,,,,,,,,843.2940758999903,844.3219842000399,842.023837500019,842.023837500019,842.023837500019,842.023837500019,new_sceneIn_12.png,306,5.0,1.27243420004379,,007,0,2024-10-10_13h57.34.615,Surprise recog test,2023.1.3,59.95329638942133,
306,0,306,0,,,,,,,,,,,,,,,,,,,,,,,,,,,,,,,,,,,,845.8930865000002,,844.3219842000399,844.3219842000399,844.3219842000399,844.3219842000399,new_fruit_18.png,307,2.0,1.569627699907869,,007,0,2024-10-10_13h57.34.615,Surprise recog test,2023.1.3,59.95329638942133,
307,0,307,0,,,,,,,,,,,,,,,,,,,,,,,,,,,,,,,,,,,,848.4495922999922,849.4793241999578,846.9252136000432,846.9252136000432,846.9252136000432,846.9252136000432,new_sceneIn_13.png,308,5.0,1.5248225999530405,,007,0,2024-10-10_13h57.34.615,Surprise recog test,2023.1.3,59.95329638942133,
308,0,308,0,,,,,,,,,,,,,,,,,,,,,,,,,,,,,,,,,,,,850.1922571000177,851.2141327999998,849.4793241999578,849.4793241999578,849.4793241999578,849.4793241999578,new_fruit_46.png,309,5.0,0.7146276000421494,,007,0,2024-10-10_13h57.34.615,Surprise recog test,2023.1.3,59.95329638942133,
309,0,309,0,,,,,,,,,,,,,,,,,,,,,,,,,,,,,,,,,,,,852.1741887000389,853.1918586000102,851.2141327999998,851.2141327999998,851.2141327999998,851.2141327999998,new_stationery_46.png,310,5.0,0.9630987000418827,,007,0,2024-10-10_13h57.34.615,Surprise recog test,2023.1.3,59.95329638942133,
310,0,310,0,,,,,,,,,,,,,,,,,,,,,,,,,,,,,,,,,,,,853.7950058999704,854.8146992999827,853.1918586000102,853.1918586000102,853.1918586000102,853.1918586000102,old_sceneOut_32.png,311,5.0,0.6003757000435144,,007,0,2024-10-10_13h57.34.615,Surprise recog test,2023.1.3,59.95329638942133,
311,0,311,0,,,,,,,,,,,,,,,,,,,,,,,,,,,,,,,,,,,,856.6364777999697,857.6659354999429,854.8146992999827,854.8146992999827,854.8146992999827,854.8146992999827,old_fruit_24.png,312,5.0,1.814682999975048,,007,0,2024-10-10_13h57.34.615,Surprise recog test,2023.1.3,59.95329638942133,
312,0,312,0,,,,,,,,,,,,,,,,,,,,,,,,,,,,,,,,,,,,858.4268700999673,859.4405768000288,857.6659354999429,857.6659354999429,857.6659354999429,857.6659354999429,new_stationery_3.png,313,5.0,0.761949299951084,,007,0,2024-10-10_13h57.34.615,Surprise recog test,2023.1.3,59.95329638942133,
313,0,313,0,,,,,,,,,,,,,,,,,,,,,,,,,,,,,,,,,,,,860.0519697000273,,859.4405768000288,859.4405768000288,859.4405768000288,859.4405768000288,old_sceneOut_4.png,314,5.0,0.6065037000225857,,007,0,2024-10-10_13h57.34.615,Surprise recog test,2023.1.3,59.95329638942133,
314,0,314,0,,,,,,,,,,,,,,,,,,,,,,,,,,,,,,,,,,,,862.0697367000394,863.0896757999435,861.0835595000535,861.0835595000535,861.0835595000535,861.0835595000535,new_stationery_17.png,315,5.0,0.9885440999642015,,007,0,2024-10-10_13h57.34.615,Surprise recog test,2023.1.3,59.95329638942133,
315,0,315,0,,,,,,,,,,,,,,,,,,,,,,,,,,,,,,,,,,,,863.6265728999861,864.6520980000496,863.0896757999435,863.0896757999435,863.0896757999435,863.0896757999435,new_sceneOut_21.png,316,5.0,0.540165500016883,,007,0,2024-10-10_13h57.34.615,Surprise recog test,2023.1.3,59.95329638942133,
316,0,316,0,,,,,,,,,,,,,,,,,,,,,,,,,,,,,,,,,,,,865.3208594999742,866.3419797000242,864.6520980000496,864.6520980000496,864.6520980000496,864.6520980000496,new_sceneIn_11.png,317,5.0,0.6701982000377029,,007,0,2024-10-10_13h57.34.615,Surprise recog test,2023.1.3,59.95329638942133,
317,0,317,0,,,,,,,,,,,,,,,,,,,,,,,,,,,,,,,,,,,,866.9981507000048,868.0139269999927,866.3419797000242,866.3419797000242,866.3419797000242,866.3419797000242,old_sceneIn_26.png,318,5.0,0.6560260000405833,,007,0,2024-10-10_13h57.34.615,Surprise recog test,2023.1.3,59.95329638942133,
318,0,318,0,,,,,,,,,,,,,,,,,,,,,,,,,,,,,,,,,,,,868.7663180000382,869.7922782000387,868.0139269999927,868.0139269999927,868.0139269999927,868.0139269999927,new_fruit_21.png,319,5.0,0.7459097999380901,,007,0,2024-10-10_13h57.34.615,Surprise recog test,2023.1.3,59.95329638942133,
319,0,319,0,,,,,,,,,,,,,,,,,,,,,,,,,,,,,,,,,,,,870.3420956999762,871.3499629000435,869.7922782000387,869.7922782000387,869.7922782000387,869.7922782000387,new_sceneIn_3.png,320,5.0,0.5498103001154959,,007,0,2024-10-10_13h57.34.615,Surprise recog test,2023.1.3,59.95329638942133,
320,0,320,0,,,,,,,,,,,,,,,,,,,,,,,,,,,,,,,,,,,,871.9594329999527,872.9796868000412,871.3499629000435,871.3499629000435,871.3499629000435,871.3499629000435,new_sceneIn_50.png,321,5.0,0.6051839999854565,,007,0,2024-10-10_13h57.34.615,Surprise recog test,2023.1.3,59.95329638942133,
321,0,321,0,,,,,,,,,,,,,,,,,,,,,,,,,,,,,,,,,,,,876.1005302000558,,872.9796868000412,872.9796868000412,872.9796868000412,872.9796868000412,new_stationery_12.png,322,1.0,3.1193518000654876,,007,0,2024-10-10_13h57.34.615,Surprise recog test,2023.1.3,59.95329638942133,
322,0,322,0,,,,,,,,,,,,,,,,,,,,,,,,,,,,,,,,,,,,878.3071879999479,879.3338492000476,877.1311197000323,877.1311197000323,877.1311197000323,877.1311197000323,old_sceneOut_23.png,323,5.0,1.17716959991958,,007,0,2024-10-10_13h57.34.615,Surprise recog test,2023.1.3,59.95329638942133,
323,0,323,0,,,,,,,,,,,,,,,,,,,,,,,,,,,,,,,,,,,,880.2923894999549,881.319729699986,879.3338492000476,879.3338492000476,879.3338492000476,879.3338492000476,new_fruit_34.png,324,5.0,0.9597039999207482,,007,0,2024-10-10_13h57.34.615,Surprise recog test,2023.1.3,59.95329638942133,
324,0,324,0,,,,,,,,,,,,,,,,,,,,,,,,,,,,,,,,,,,,881.8697787000565,882.8840648999903,881.319729699986,881.319729699986,881.319729699986,881.319729699986,old_sceneOut_12.png,325,5.0,0.5484808000037447,,007,0,2024-10-10_13h57.34.615,Surprise recog test,2023.1.3,59.95329638942133,
325,0,325,0,,,,,,,,,,,,,,,,,,,,,,,,,,,,,,,,,,,,883.3611657000147,884.3780798000516,882.8840648999903,882.8840648999903,882.8840648999903,882.8840648999903,new_sceneOut_28.png,326,5.0,0.4793109999736771,,007,0,2024-10-10_13h57.34.615,Surprise recog test,2023.1.3,59.95329638942133,
326,0,326,0,,,,,,,,,,,,,,,,,,,,,,,,,,,,,,,,,,,,885.5213894000044,886.5402190999594,884.3780798000516,884.3780798000516,884.3780798000516,884.3780798000516,old_fruit_33.png,327,5.0,1.1375998000148684,,007,0,2024-10-10_13h57.34.615,Surprise recog test,2023.1.3,59.95329638942133,
327,0,327,0,,,,,,,,,,,,,,,,,,,,,,,,,,,,,,,,,,,,889.7552452000091,890.7782004999463,886.5402190999594,886.5402190999594,886.5402190999594,886.5402190999594,new_sceneIn_28.png,328,4.0,3.213740500039421,,007,0,2024-10-10_13h57.34.615,Surprise recog test,2023.1.3,59.95329638942133,
328,0,328,0,,,,,,,,,,,,,,,,,,,,,,,,,,,,,,,,,,,,891.8100549000083,892.8300985000096,890.7782004999463,890.7782004999463,890.7782004999463,890.7782004999463,old_sceneIn_9.png,329,5.0,1.0268805000232533,,007,0,2024-10-10_13h57.34.615,Surprise recog test,2023.1.3,59.95329638942133,
329,0,329,0,,,,,,,,,,,,,,,,,,,,,,,,,,,,,,,,,,,,893.4575560999801,894.4814885000233,892.8300985000096,892.8300985000096,892.8300985000096,892.8300985000096,old_sceneOut_5.png,330,5.0,0.6274368000449613,,007,0,2024-10-10_13h57.34.615,Surprise recog test,2023.1.3,59.95329638942133,
330,0,330,0,,,,,,,,,,,,,,,,,,,,,,,,,,,,,,,,,,,,897.9234810000053,898.9557539999951,894.4814885000233,894.4814885000233,894.4814885000233,894.4814885000233,old_stationery_44.png,331,3.0,3.441919699893333,,007,0,2024-10-10_13h57.34.615,Surprise recog test,2023.1.3,59.95329638942133,
331,0,331,0,,,,,,,,,,,,,,,,,,,,,,,,,,,,,,,,,,,,899.7810076000169,900.803806400043,898.9557539999951,898.9557539999951,898.9557539999951,898.9557539999951,old_fruit_1.png,332,5.0,0.8266790000488982,,007,0,2024-10-10_13h57.34.615,Surprise recog test,2023.1.3,59.95329638942133,
332,0,332,0,,,,,,,,,,,,,,,,,,,,,,,,,,,,,,,,,,,,901.3182086000452,902.3286692999536,900.803806400043,900.803806400043,900.803806400043,900.803806400043,old_sceneOut_41.png,333,5.0,0.5144640000071377,,007,0,2024-10-10_13h57.34.615,Surprise recog test,2023.1.3,59.95329638942133,
333,0,333,0,,,,,,,,,,,,,,,,,,,,,,,,,,,,,,,,,,,,903.1285767999943,904.1409429999767,902.3286692999536,902.3286692999536,902.3286692999536,902.3286692999536,new_stationery_8.png,334,5.0,0.8001081000547856,,007,0,2024-10-10_13h57.34.615,Surprise recog test,2023.1.3,59.95329638942133,
334,0,334,0,,,,,,,,,,,,,,,,,,,,,,,,,,,,,,,,,,,,904.9276528999908,905.9462479000213,904.1409429999767,904.1409429999767,904.1409429999767,904.1409429999767,new_stationery_2.png,335,5.0,0.780723600066267,,007,0,2024-10-10_13h57.34.615,Surprise recog test,2023.1.3,59.95329638942133,
335,0,335,0,,,,,,,,,,,,,,,,,,,,,,,,,,,,,,,,,,,,906.4630891999695,907.481890300056,905.9462479000213,905.9462479000213,905.9462479000213,905.9462479000213,new_sceneIn_49.png,336,5.0,0.5127126999432221,,007,0,2024-10-10_13h57.34.615,Surprise recog test,2023.1.3,59.95329638942133,
336,0,336,0,,,,,,,,,,,,,,,,,,,,,,,,,,,,,,,,,,,,908.905345999985,909.9284403000493,907.481890300056,907.481890300056,907.481890300056,907.481890300056,old_stationery_23.png,337,5.0,1.420995399937965,,007,0,2024-10-10_13h57.34.615,Surprise recog test,2023.1.3,59.95329638942133,
337,0,337,0,,,,,,,,,,,,,,,,,,,,,,,,,,,,,,,,,,,,910.436788400053,911.461360199959,909.9284403000493,909.9284403000493,909.9284403000493,909.9284403000493,old_sceneOut_15.png,338,5.0,0.5098905001068488,,007,0,2024-10-10_13h57.34.615,Surprise recog test,2023.1.3,59.95329638942133,
338,0,338,0,,,,,,,,,,,,,,,,,,,,,,,,,,,,,,,,,,,,912.0453452999936,913.0698088000063,911.461360199959,911.461360199959,911.461360199959,911.461360199959,new_fruit_13.png,339,5.0,0.5836763000115752,,007,0,2024-10-10_13h57.34.615,Surprise recog test,2023.1.3,59.95329638942133,
339,0,339,0,,,,,,,,,,,,,,,,,,,,,,,,,,,,,,,,,,,,913.548863700009,,913.0698088000063,913.0698088000063,913.0698088000063,913.0698088000063,old_sceneIn_11.png,340,5.0,0.48158539994619787,,007,0,2024-10-10_13h57.34.615,Surprise recog test,2023.1.3,59.95329638942133,
340,0,340,0,,,,,,,,,,,,,,,,,,,,,,,,,,,,,,,,,,,,915.145929899998,916.1663535999833,914.567069599987,914.567069599987,914.567069599987,914.567069599987,old_fruit_37.png,341,5.0,0.5700463000684977,,007,0,2024-10-10_13h57.34.615,Surprise recog test,2023.1.3,59.95329638942133,
341,0,341,0,,,,,,,,,,,,,,,,,,,,,,,,,,,,,,,,,,,,916.7345493000466,,916.1663535999833,916.1663535999833,916.1663535999833,916.1663535999833,old_sceneOut_50.png,342,5.0,0.5698740999214351,,007,0,2024-10-10_13h57.34.615,Surprise recog test,2023.1.3,59.95329638942133,
342,0,342,0,,,,,,,,,,,,,,,,,,,,,,,,,,,,,,,,,,,,918.4596842000028,919.485547099961,917.7661482000258,917.7661482000258,917.7661482000258,917.7661482000258,new_sceneIn_7.png,343,5.0,0.6958188000135124,,007,0,2024-10-10_13h57.34.615,Surprise recog test,2023.1.3,59.95329638942133,
343,0,343,0,,,,,,,,,,,,,,,,,,,,,,,,,,,,,,,,,,,,920.257056399947,921.2873962000012,919.485547099961,919.485547099961,919.485547099961,919.485547099961,new_fruit_4.png,344,5.0,0.7726999000879005,,007,0,2024-10-10_13h57.34.615,Surprise recog test,2023.1.3,59.95329638942133,
344,0,344,0,,,,,,,,,,,,,,,,,,,,,,,,,,,,,,,,,,,,922.2077862999868,923.2351630999474,921.2873962000012,921.2873962000012,921.2873962000012,921.2873962000012,old_fruit_19.png,345,5.0,0.9209056999534369,,007,0,2024-10-10_13h57.34.615,Surprise recog test,2023.1.3,59.95329638942133,
345,0,345,0,,,,,,,,,,,,,,,,,,,,,,,,,,,,,,,,,,,,925.3785810000263,926.4077385000419,923.2351630999474,923.2351630999474,923.2351630999474,923.2351630999474,old_stationery_19.png,346,1.0,2.1412802999839187,,007,0,2024-10-10_13h57.34.615,Surprise recog test,2023.1.3,59.95329638942133,
346,0,346,0,,,,,,,,,,,,,,,,,,,,,,,,,,,,,,,,,,,,928.2859918000177,929.3179136000108,926.4077385000419,926.4077385000419,926.4077385000419,926.4077385000419,new_stationery_33.png,347,5.0,1.880760700092651,,007,0,2024-10-10_13h57.34.615,Surprise recog test,2023.1.3,59.95329638942133,
347,0,347,0,,,,,,,,,,,,,,,,,,,,,,,,,,,,,,,,,,,,929.8560371999629,930.8668166999705,929.3179136000108,929.3179136000108,929.3179136000108,929.3179136000108,new_sceneOut_19.png,348,5.0,0.5407910000067204,,007,0,2024-10-10_13h57.34.615,Surprise recog test,2023.1.3,59.95329638942133,
348,0,348,0,,,,,,,,,,,,,,,,,,,,,,,,,,,,,,,,,,,,931.9478279999457,,930.8668166999705,930.8668166999705,930.8668166999705,930.8668166999705,old_stationery_6.png,349,5.0,1.078169499989599,,007,0,2024-10-10_13h57.34.615,Surprise recog test,2023.1.3,59.95329638942133,
349,0,349,0,,,,,,,,,,,,,,,,,,,,,,,,,,,,,,,,,,,,933.7534610000439,934.7815400999971,932.9792400000151,932.9792400000151,932.9792400000151,932.9792400000151,old_fruit_46.png,350,5.0,0.7725011999718845,,007,0,2024-10-10_13h57.34.615,Surprise recog test,2023.1.3,59.95329638942133,
350,0,350,0,,,,,,,,,,,,,,,,,,,,,,,,,,,,,,,,,,,,938.0954460999928,939.1195764000295,934.7815400999971,934.7815400999971,934.7815400999971,934.7815400999971,old_stationery_45.png,351,3.0,3.3137865000171587,,007,0,2024-10-10_13h57.34.615,Surprise recog test,2023.1.3,59.95329638942133,
351,0,351,0,,,,,,,,,,,,,,,,,,,,,,,,,,,,,,,,,,,,939.8640925999498,940.8836327999597,939.1195764000295,939.1195764000295,939.1195764000295,939.1195764000295,new_sceneOut_2.png,352,5.0,0.7467811000533402,,007,0,2024-10-10_13h57.34.615,Surprise recog test,2023.1.3,59.95329638942133,
352,0,352,0,,,,,,,,,,,,,,,,,,,,,,,,,,,,,,,,,,,,941.5515738000395,942.5716754000168,940.8836327999597,940.8836327999597,940.8836327999597,940.8836327999597,old_sceneOut_26.png,353,5.0,0.6671137000666931,,007,0,2024-10-10_13h57.34.615,Surprise recog test,2023.1.3,59.95329638942133,
353,0,353,0,,,,,,,,,,,,,,,,,,,,,,,,,,,,,,,,,,,,945.5984829999506,946.6223634999478,942.5716754000168,942.5716754000168,942.5716754000168,942.5716754000168,new_fruit_32.png,354,2.0,3.0281253999564797,,007,0,2024-10-10_13h57.34.615,Surprise recog test,2023.1.3,59.95329638942133,
