trial_loop.thisRepN,trial_loop.thisTrialN,trial_loop.thisN,trial_loop.thisIndex,VAS_slider.started,VAS_text.started,VAS_notstressed_text.started,VAS_stressed_text.started,continue_input.started,continue_text.started,label0.started,label10.started,label20.started,label30.started,label40.started,label50.started,label60.started,label70.started,label80.started,label90.started,label100.started,VAS_slider.response,VAS_slider.rt,VAS_slider.history,Answer_VAS,continue_input.keys,continue_input.rt,continue_input.duration,instruction_text.started,continue_text_2.started,continue_input_2.started,continue_input_2.keys,continue_input_2.rt,continue_input_2.duration,example_text.started,example_slider_2.started,example_image.started,example_slider_2.response,example_slider_2.rt,fixcross.started,fixcross.stopped,front_square.started,stim_images.started,trial_inst_images.started,slider_images.started,slider_images.stopped,thisImg,trial_count,slider_images.response,slider_images.rt,outro.started,participant,condition,date,expName,psychopyVersion,frameRate,
,,,,23.175208999999995,23.175208999999995,23.175208999999995,23.175208999999995,23.175208999999995,23.175208999999995,23.175208999999995,23.175208999999995,23.175208999999995,23.175208999999995,23.175208999999995,23.175208999999995,23.175208999999995,23.175208999999995,23.175208999999995,23.175208999999995,23.175208999999995,None,None,[],1.0799999999999979,space,14.501087400000017,None,,,,,,,,,,,,,,,,,,,,,,,,008,0,2024-10-02_16h12.43.708,Surprise recog test,2023.1.3,59.859235022913474,
,,,,,,,,,,,,,,,,,,,,,,,,,,,,37.73939909999996,37.73939909999996,37.73939909999996,space,18.393580299999996,None,,,,,,,,,,,,,,,,,,008,0,2024-10-02_16h12.43.708,Surprise recog test,2023.1.3,59.859235022913474,
0,0,0,0,,,,,,,,,,,,,,,,,,,,,,,,,,,,,,,56.2750216,56.2750216,56.2750216,3.0,8.1983386,70.40561579999996,65.42199869999996,65.42199869999996,65.42199869999996,65.42199869999996,65.42199869999996,70.38917099999998,old_fruit_18.png,1,None,None,,008,0,2024-10-02_16h12.43.708,Surprise recog test,2023.1.3,59.859235022913474,
1,0,1,0,,,,,,,,,,,,,,,,,,,,,,,,,,,,,,,,,,,,76.02230729999997,77.0490658,71.41066209999997,71.41066209999997,71.41066209999997,71.41066209999997,,old_sceneIn_9.png,2,4.0,4.598306199999968,,008,0,2024-10-02_16h12.43.708,Surprise recog test,2023.1.3,59.859235022913474,
2,0,2,0,,,,,,,,,,,,,,,,,,,,,,,,,,,,,,,,,,,,78.83154919999998,,77.0490658,77.0490658,77.0490658,77.0490658,,new_sceneOut_40.png,3,2.0,1.7830979999999954,,008,0,2024-10-02_16h12.43.708,Surprise recog test,2023.1.3,59.859235022913474,
3,0,3,0,,,,,,,,,,,,,,,,,,,,,,,,,,,,,,,,,,,,81.57622839999999,82.59272319999997,79.8655028,79.8655028,79.8655028,79.8655028,,new_sceneIn_34.png,4,4.0,1.709777699999961,,008,0,2024-10-02_16h12.43.708,Surprise recog test,2023.1.3,59.859235022913474,
4,0,4,0,,,,,,,,,,,,,,,,,,,,,,,,,,,,,,,,,,,,84.3334271,85.34734599999996,82.59272319999997,82.59272319999997,82.59272319999997,82.59272319999997,,old_sceneOut_10.png,5,4.0,1.738567699999976,,008,0,2024-10-02_16h12.43.708,Surprise recog test,2023.1.3,59.859235022913474,
5,0,5,0,,,,,,,,,,,,,,,,,,,,,,,,,,,,,,,,,,,,86.95218709999995,87.97452879999997,85.34734599999996,85.34734599999996,85.34734599999996,85.34734599999996,,old_sceneOut_16.png,6,2.0,1.6051476000000093,,008,0,2024-10-02_16h12.43.708,Surprise recog test,2023.1.3,59.859235022913474,
6,0,6,0,,,,,,,,,,,,,,,,,,,,,,,,,,,,,,,,,,,,89.54172939999995,90.56476649999996,87.97452879999997,87.97452879999997,87.97452879999997,87.97452879999997,,old_fruit_33.png,7,1.0,1.5704562000000237,,008,0,2024-10-02_16h12.43.708,Surprise recog test,2023.1.3,59.859235022913474,
7,0,7,0,,,,,,,,,,,,,,,,,,,,,,,,,,,,,,,,,,,,92.31155249999995,93.33126649999997,90.56476649999996,90.56476649999996,90.56476649999996,90.56476649999996,,new_sceneOut_19.png,8,4.0,1.7462932999999907,,008,0,2024-10-02_16h12.43.708,Surprise recog test,2023.1.3,59.859235022913474,
8,0,8,0,,,,,,,,,,,,,,,,,,,,,,,,,,,,,,,,,,,,95.2598276,96.26499159999997,93.33126649999997,93.33126649999997,93.33126649999997,93.33126649999997,,old_sceneIn_10.png,9,4.0,1.9267297000000099,,008,0,2024-10-02_16h12.43.708,Surprise recog test,2023.1.3,59.859235022913474,
9,0,9,0,,,,,,,,,,,,,,,,,,,,,,,,,,,,,,,,,,,,98.88446639999995,99.92098049999998,96.26499159999997,96.26499159999997,96.26499159999997,96.26499159999997,,old_sceneIn_7.png,10,5.0,2.6153161000000296,,008,0,2024-10-02_16h12.43.708,Surprise recog test,2023.1.3,59.859235022913474,
10,0,10,0,,,,,,,,,,,,,,,,,,,,,,,,,,,,,,,,,,,,102.27866169999999,103.28716149999997,99.92098049999998,99.92098049999998,99.92098049999998,99.92098049999998,,old_sceneOut_35.png,11,4.0,2.3589284999999904,,008,0,2024-10-02_16h12.43.708,Surprise recog test,2023.1.3,59.859235022913474,
11,0,11,0,,,,,,,,,,,,,,,,,,,,,,,,,,,,,,,,,,,,105.5340817,106.55416869999999,103.28716149999997,103.28716149999997,103.28716149999997,103.28716149999997,,old_stationery_5.png,12,1.0,2.242852199999959,,008,0,2024-10-02_16h12.43.708,Surprise recog test,2023.1.3,59.859235022913474,
12,0,12,0,,,,,,,,,,,,,,,,,,,,,,,,,,,,,,,,,,,,108.52901219999995,109.54567089999995,106.55416869999999,106.55416869999999,106.55416869999999,106.55416869999999,,new_sceneIn_41.png,13,4.0,1.9756471000000033,,008,0,2024-10-02_16h12.43.708,Surprise recog test,2023.1.3,59.859235022913474,
13,0,13,0,,,,,,,,,,,,,,,,,,,,,,,,,,,,,,,,,,,,111.24734619999998,112.275624,109.54567089999995,109.54567089999995,109.54567089999995,109.54567089999995,,new_stationery_24.png,14,1.0,1.6969027999999753,,008,0,2024-10-02_16h12.43.708,Surprise recog test,2023.1.3,59.859235022913474,
14,0,14,0,,,,,,,,,,,,,,,,,,,,,,,,,,,,,,,,,,,,113.88759379999999,114.9094331,112.275624,112.275624,112.275624,112.275624,,new_stationery_23.png,15,1.0,1.6130752999999913,,008,0,2024-10-02_16h12.43.708,Surprise recog test,2023.1.3,59.859235022913474,
15,0,15,0,,,,,,,,,,,,,,,,,,,,,,,,,,,,,,,,,,,,118.0276705,119.03546769999997,114.9094331,114.9094331,114.9094331,114.9094331,,old_sceneIn_24.png,16,4.0,3.1177637999999774,,008,0,2024-10-02_16h12.43.708,Surprise recog test,2023.1.3,59.859235022913474,
16,0,16,0,,,,,,,,,,,,,,,,,,,,,,,,,,,,,,,,,,,,121.61907329999997,122.64018369999997,119.03546769999997,119.03546769999997,119.03546769999997,119.03546769999997,,old_stationery_47.png,17,1.0,2.5795307999999864,,008,0,2024-10-02_16h12.43.708,Surprise recog test,2023.1.3,59.859235022913474,
17,0,17,0,,,,,,,,,,,,,,,,,,,,,,,,,,,,,,,,,,,,124.5711106,125.59561119999995,122.64018369999997,122.64018369999997,122.64018369999997,122.64018369999997,,old_fruit_31.png,18,1.0,1.9260217000000353,,008,0,2024-10-02_16h12.43.708,Surprise recog test,2023.1.3,59.859235022913474,
18,0,18,0,,,,,,,,,,,,,,,,,,,,,,,,,,,,,,,,,,,,127.90167699999995,128.92431549999998,125.59561119999995,125.59561119999995,125.59561119999995,125.59561119999995,,new_stationery_46.png,19,5.0,2.302859000000012,,008,0,2024-10-02_16h12.43.708,Surprise recog test,2023.1.3,59.859235022913474,
19,0,19,0,,,,,,,,,,,,,,,,,,,,,,,,,,,,,,,,,,,,130.69613049999998,131.7256994,128.92431549999998,128.92431549999998,128.92431549999998,128.92431549999998,,old_sceneOut_41.png,20,4.0,1.7742519000000243,,008,0,2024-10-02_16h12.43.708,Surprise recog test,2023.1.3,59.859235022913474,
20,0,20,0,,,,,,,,,,,,,,,,,,,,,,,,,,,,,,,,,,,,132.8913733,133.91117509999998,131.7256994,131.7256994,131.7256994,131.7256994,,new_sceneOut_3.png,21,3.0,1.168736899999999,,008,0,2024-10-02_16h12.43.708,Surprise recog test,2023.1.3,59.859235022913474,
21,0,21,0,,,,,,,,,,,,,,,,,,,,,,,,,,,,,,,,,,,,135.20326799999998,136.21756409999995,133.91117509999998,133.91117509999998,133.91117509999998,133.91117509999998,,new_sceneOut_41.png,22,3.0,1.2945927999999753,,008,0,2024-10-02_16h12.43.708,Surprise recog test,2023.1.3,59.859235022913474,
22,0,22,0,,,,,,,,,,,,,,,,,,,,,,,,,,,,,,,,,,,,138.75442649999997,139.77449769999998,136.21756409999995,136.21756409999995,136.21756409999995,136.21756409999995,,old_fruit_20.png,23,2.0,2.530599699999982,,008,0,2024-10-02_16h12.43.708,Surprise recog test,2023.1.3,59.859235022913474,
23,0,23,0,,,,,,,,,,,,,,,,,,,,,,,,,,,,,,,,,,,,142.23308459999998,143.239983,139.77449769999998,139.77449769999998,139.77449769999998,139.77449769999998,,new_sceneIn_32.png,24,4.0,2.456773500000054,,008,0,2024-10-02_16h12.43.708,Surprise recog test,2023.1.3,59.859235022913474,
24,0,24,0,,,,,,,,,,,,,,,,,,,,,,,,,,,,,,,,,,,,145.12968559999996,146.13997310000002,143.239983,143.239983,143.239983,143.239983,,old_sceneIn_33.png,25,4.0,1.883824900000036,,008,0,2024-10-02_16h12.43.708,Surprise recog test,2023.1.3,59.859235022913474,
25,0,25,0,,,,,,,,,,,,,,,,,,,,,,,,,,,,,,,,,,,,149.03700759999992,150.04876589999992,146.13997310000002,146.13997310000002,146.13997310000002,146.13997310000002,,old_sceneIn_50.png,26,2.0,2.8935220000000754,,008,0,2024-10-02_16h12.43.708,Surprise recog test,2023.1.3,59.859235022913474,
26,0,26,0,,,,,,,,,,,,,,,,,,,,,,,,,,,,,,,,,,,,151.9636769,152.98850600000003,150.04876589999992,150.04876589999992,150.04876589999992,150.04876589999992,,new_fruit_27.png,27,3.0,1.9093513999999914,,008,0,2024-10-02_16h12.43.708,Surprise recog test,2023.1.3,59.859235022913474,
27,0,27,0,,,,,,,,,,,,,,,,,,,,,,,,,,,,,,,,,,,,154.7091934,155.72508989999994,152.98850600000003,152.98850600000003,152.98850600000003,152.98850600000003,,new_sceneOut_49.png,28,3.0,1.7219430000000102,,008,0,2024-10-02_16h12.43.708,Surprise recog test,2023.1.3,59.859235022913474,
28,0,28,0,,,,,,,,,,,,,,,,,,,,,,,,,,,,,,,,,,,,157.1840631,158.19834819999994,155.72508989999994,155.72508989999994,155.72508989999994,155.72508989999994,,new_sceneIn_49.png,29,3.0,1.462072600000056,,008,0,2024-10-02_16h12.43.708,Surprise recog test,2023.1.3,59.859235022913474,
29,0,29,0,,,,,,,,,,,,,,,,,,,,,,,,,,,,,,,,,,,,160.53497529999993,161.55482949999998,158.19834819999994,158.19834819999994,158.19834819999994,158.19834819999994,,old_sceneIn_44.png,30,4.0,2.3328760000000557,,008,0,2024-10-02_16h12.43.708,Surprise recog test,2023.1.3,59.859235022913474,
30,0,30,0,,,,,,,,,,,,,,,,,,,,,,,,,,,,,,,,,,,,163.0544221,164.06936689999998,161.55482949999998,161.55482949999998,161.55482949999998,161.55482949999998,,new_sceneIn_9.png,31,4.0,1.4946065000000317,,008,0,2024-10-02_16h12.43.708,Surprise recog test,2023.1.3,59.859235022913474,
31,0,31,0,,,,,,,,,,,,,,,,,,,,,,,,,,,,,,,,,,,,165.6732035,166.70190049999997,164.06936689999998,164.06936689999998,164.06936689999998,164.06936689999998,,new_fruit_32.png,32,1.0,1.598130699999956,,008,0,2024-10-02_16h12.43.708,Surprise recog test,2023.1.3,59.859235022913474,
32,0,32,0,,,,,,,,,,,,,,,,,,,,,,,,,,,,,,,,,,,,168.51990490000003,169.54054529999996,166.70190049999997,166.70190049999997,166.70190049999997,166.70190049999997,,old_stationery_42.png,33,2.0,1.8194599000000835,,008,0,2024-10-02_16h12.43.708,Surprise recog test,2023.1.3,59.859235022913474,
33,0,33,0,,,,,,,,,,,,,,,,,,,,,,,,,,,,,,,,,,,,172.41965359999995,173.44413780000002,169.54054529999996,169.54054529999996,169.54054529999996,169.54054529999996,,new_stationery_38.png,34,3.0,2.8814490999999407,,008,0,2024-10-02_16h12.43.708,Surprise recog test,2023.1.3,59.859235022913474,
34,0,34,0,,,,,,,,,,,,,,,,,,,,,,,,,,,,,,,,,,,,174.94990080000002,175.9763332,173.44413780000002,173.44413780000002,173.44413780000002,173.44413780000002,,old_fruit_8.png,35,1.0,1.5050003999999717,,008,0,2024-10-02_16h12.43.708,Surprise recog test,2023.1.3,59.859235022913474,
35,0,35,0,,,,,,,,,,,,,,,,,,,,,,,,,,,,,,,,,,,,178.91839319999997,179.94621110000003,175.9763332,175.9763332,175.9763332,175.9763332,,new_fruit_6.png,36,3.0,2.943779999999947,,008,0,2024-10-02_16h12.43.708,Surprise recog test,2023.1.3,59.859235022913474,
36,0,36,0,,,,,,,,,,,,,,,,,,,,,,,,,,,,,,,,,,,,181.8367627,182.86573049999993,179.94621110000003,179.94621110000003,179.94621110000003,179.94621110000003,,new_sceneOut_18.png,37,4.0,1.8913412000000562,,008,0,2024-10-02_16h12.43.708,Surprise recog test,2023.1.3,59.859235022913474,
37,0,37,0,,,,,,,,,,,,,,,,,,,,,,,,,,,,,,,,,,,,185.25746199999992,186.29203029999996,182.86573049999993,182.86573049999993,182.86573049999993,182.86573049999993,,old_stationery_2.png,38,4.0,2.3950604999999996,,008,0,2024-10-02_16h12.43.708,Surprise recog test,2023.1.3,59.859235022913474,
38,0,38,0,,,,,,,,,,,,,,,,,,,,,,,,,,,,,,,,,,,,187.9420106,188.97256979999997,186.29203029999996,186.29203029999996,186.29203029999996,186.29203029999996,,new_stationery_5.png,39,3.0,1.6530093999999735,,008,0,2024-10-02_16h12.43.708,Surprise recog test,2023.1.3,59.859235022913474,
39,0,39,0,,,,,,,,,,,,,,,,,,,,,,,,,,,,,,,,,,,,191.06092849999993,192.08023400000002,188.97256979999997,188.97256979999997,188.97256979999997,188.97256979999997,,new_fruit_31.png,40,1.0,2.0921150000000353,,008,0,2024-10-02_16h12.43.708,Surprise recog test,2023.1.3,59.859235022913474,
40,0,40,0,,,,,,,,,,,,,,,,,,,,,,,,,,,,,,,,,,,,193.91986959999997,194.9369904,192.08023400000002,192.08023400000002,192.08023400000002,192.08023400000002,,new_sceneOut_27.png,41,4.0,1.8364338000000089,,008,0,2024-10-02_16h12.43.708,Surprise recog test,2023.1.3,59.859235022913474,
41,0,41,0,,,,,,,,,,,,,,,,,,,,,,,,,,,,,,,,,,,,196.8432163,197.8590663,194.9369904,194.9369904,194.9369904,194.9369904,,old_fruit_36.png,42,1.0,1.9012129000000186,,008,0,2024-10-02_16h12.43.708,Surprise recog test,2023.1.3,59.859235022913474,
42,0,42,0,,,,,,,,,,,,,,,,,,,,,,,,,,,,,,,,,,,,199.546743,200.554397,197.8590663,197.8590663,197.8590663,197.8590663,,old_sceneOut_38.png,43,4.0,1.6876766999999973,,008,0,2024-10-02_16h12.43.708,Surprise recog test,2023.1.3,59.859235022913474,
43,0,43,0,,,,,,,,,,,,,,,,,,,,,,,,,,,,,,,,,,,,202.41437959999996,203.4367926,200.554397,200.554397,200.554397,200.554397,,new_sceneIn_35.png,44,4.0,1.8515148000000181,,008,0,2024-10-02_16h12.43.708,Surprise recog test,2023.1.3,59.859235022913474,
44,0,44,0,,,,,,,,,,,,,,,,,,,,,,,,,,,,,,,,,,,,205.7667083,206.7718612,203.4367926,203.4367926,203.4367926,203.4367926,,new_sceneIn_21.png,45,4.0,2.3303523000000723,,008,0,2024-10-02_16h12.43.708,Surprise recog test,2023.1.3,59.859235022913474,
45,0,45,0,,,,,,,,,,,,,,,,,,,,,,,,,,,,,,,,,,,,209.07965709999996,210.09904840000002,206.7718612,206.7718612,206.7718612,206.7718612,,new_sceneOut_6.png,46,4.0,2.301780199999939,,008,0,2024-10-02_16h12.43.708,Surprise recog test,2023.1.3,59.859235022913474,
46,0,46,0,,,,,,,,,,,,,,,,,,,,,,,,,,,,,,,,,,,,212.02815579999992,213.0446323,210.09904840000002,210.09904840000002,210.09904840000002,210.09904840000002,,new_fruit_36.png,47,1.0,1.9287160000000085,,008,0,2024-10-02_16h12.43.708,Surprise recog test,2023.1.3,59.859235022913474,
47,0,47,0,,,,,,,,,,,,,,,,,,,,,,,,,,,,,,,,,,,,215.00910950000002,216.01648779999994,213.0446323,213.0446323,213.0446323,213.0446323,,new_sceneOut_14.png,48,3.0,1.9584504000000607,,008,0,2024-10-02_16h12.43.708,Surprise recog test,2023.1.3,59.859235022913474,
48,0,48,0,,,,,,,,,,,,,,,,,,,,,,,,,,,,,,,,,,,,217.57033819999992,218.59183469999994,216.01648779999994,216.01648779999994,216.01648779999994,216.01648779999994,,old_fruit_23.png,49,1.0,1.549875699999916,,008,0,2024-10-02_16h12.43.708,Surprise recog test,2023.1.3,59.859235022913474,
49,0,49,0,,,,,,,,,,,,,,,,,,,,,,,,,,,,,,,,,,,,220.81952539999997,221.84384809999995,218.59183469999994,218.59183469999994,218.59183469999994,218.59183469999994,,old_sceneIn_22.png,50,4.0,2.2291296000000784,,008,0,2024-10-02_16h12.43.708,Surprise recog test,2023.1.3,59.859235022913474,
50,0,50,0,,,,,,,,,,,,,,,,,,,,,,,,,,,,,,,,,,,,223.55709560000003,224.5804928,221.84384809999995,221.84384809999995,221.84384809999995,221.84384809999995,,old_fruit_32.png,51,1.0,1.7145309999999654,,008,0,2024-10-02_16h12.43.708,Surprise recog test,2023.1.3,59.859235022913474,
51,0,51,0,,,,,,,,,,,,,,,,,,,,,,,,,,,,,,,,,,,,226.1410925,227.15626309999993,224.5804928,224.5804928,224.5804928,224.5804928,,old_sceneOut_28.png,52,4.0,1.5619497000000138,,008,0,2024-10-02_16h12.43.708,Surprise recog test,2023.1.3,59.859235022913474,
52,0,52,0,,,,,,,,,,,,,,,,,,,,,,,,,,,,,,,,,,,,228.7696085,229.79470730000003,227.15626309999993,227.15626309999993,227.15626309999993,227.15626309999993,,new_stationery_15.png,53,3.0,1.6029877000000852,,008,0,2024-10-02_16h12.43.708,Surprise recog test,2023.1.3,59.859235022913474,
53,0,53,0,,,,,,,,,,,,,,,,,,,,,,,,,,,,,,,,,,,,231.72999849999997,232.74761089999993,229.79470730000003,229.79470730000003,229.79470730000003,229.79470730000003,,new_sceneIn_42.png,54,4.0,1.9362669000000778,,008,0,2024-10-02_16h12.43.708,Surprise recog test,2023.1.3,59.859235022913474,
54,0,54,0,,,,,,,,,,,,,,,,,,,,,,,,,,,,,,,,,,,,234.74499919999994,,232.74761089999993,232.74761089999993,232.74761089999993,232.74761089999993,,new_stationery_8.png,55,4.0,1.9890816999999288,,008,0,2024-10-02_16h12.43.708,Surprise recog test,2023.1.3,59.859235022913474,
55,0,55,0,,,,,,,,,,,,,,,,,,,,,,,,,,,,,,,,,,,,237.67234380000002,238.7003277,235.77984879999997,235.77984879999997,235.77984879999997,235.77984879999997,,old_fruit_12.png,56,2.0,1.8937148999999636,,008,0,2024-10-02_16h12.43.708,Surprise recog test,2023.1.3,59.859235022913474,
56,0,56,0,,,,,,,,,,,,,,,,,,,,,,,,,,,,,,,,,,,,240.4128376,241.43800379999993,238.7003277,238.7003277,238.7003277,238.7003277,,new_sceneOut_30.png,57,4.0,1.7083986999999752,,008,0,2024-10-02_16h12.43.708,Surprise recog test,2023.1.3,59.859235022913474,
57,0,57,0,,,,,,,,,,,,,,,,,,,,,,,,,,,,,,,,,,,,242.92240489999995,243.93916000000002,241.43800379999993,241.43800379999993,241.43800379999993,241.43800379999993,,new_sceneIn_7.png,58,4.0,1.4873485000000528,,008,0,2024-10-02_16h12.43.708,Surprise recog test,2023.1.3,59.859235022913474,
58,0,58,0,,,,,,,,,,,,,,,,,,,,,,,,,,,,,,,,,,,,246.53662580000002,,243.93916000000002,243.93916000000002,243.93916000000002,243.93916000000002,,new_fruit_40.png,59,2.0,2.592936899999927,,008,0,2024-10-02_16h12.43.708,Surprise recog test,2023.1.3,59.859235022913474,
59,0,59,0,,,,,,,,,,,,,,,,,,,,,,,,,,,,,,,,,,,,249.12112749999994,250.13319439999998,247.55713300000002,247.55713300000002,247.55713300000002,247.55713300000002,,old_fruit_9.png,60,1.0,1.5572768000000679,,008,0,2024-10-02_16h12.43.708,Surprise recog test,2023.1.3,59.859235022913474,
60,0,60,0,,,,,,,,,,,,,,,,,,,,,,,,,,,,,,,,,,,,251.5098471,252.54271549999999,250.13319439999998,250.13319439999998,250.13319439999998,250.13319439999998,,new_sceneOut_44.png,61,4.0,1.3773453000000018,,008,0,2024-10-02_16h12.43.708,Surprise recog test,2023.1.3,59.859235022913474,
61,0,61,0,,,,,,,,,,,,,,,,,,,,,,,,,,,,,,,,,,,,254.09643540000002,255.12558749999994,252.54271549999999,252.54271549999999,252.54271549999999,252.54271549999999,,old_sceneIn_13.png,62,4.0,1.5553526000001057,,008,0,2024-10-02_16h12.43.708,Surprise recog test,2023.1.3,59.859235022913474,
62,0,62,0,,,,,,,,,,,,,,,,,,,,,,,,,,,,,,,,,,,,257.6650533999999,258.68527819999997,255.12558749999994,255.12558749999994,255.12558749999994,255.12558749999994,,old_stationery_15.png,63,3.0,2.5407486999999946,,008,0,2024-10-02_16h12.43.708,Surprise recog test,2023.1.3,59.859235022913474,
63,0,63,0,,,,,,,,,,,,,,,,,,,,,,,,,,,,,,,,,,,,259.95067169999993,260.9836159,258.68527819999997,258.68527819999997,258.68527819999997,258.68527819999997,,old_sceneOut_19.png,64,4.0,1.2614313000000266,,008,0,2024-10-02_16h12.43.708,Surprise recog test,2023.1.3,59.859235022913474,
64,0,64,0,,,,,,,,,,,,,,,,,,,,,,,,,,,,,,,,,,,,262.6817229999999,263.7006582,260.9836159,260.9836159,260.9836159,260.9836159,,new_stationery_27.png,65,4.0,1.6998429000000215,,008,0,2024-10-02_16h12.43.708,Surprise recog test,2023.1.3,59.859235022913474,
65,0,65,0,,,,,,,,,,,,,,,,,,,,,,,,,,,,,,,,,,,,265.40010110000003,266.41620709999995,263.7006582,263.7006582,263.7006582,263.7006582,,old_sceneOut_22.png,66,4.0,1.6985654999999724,,008,0,2024-10-02_16h12.43.708,Surprise recog test,2023.1.3,59.859235022913474,
66,0,66,0,,,,,,,,,,,,,,,,,,,,,,,,,,,,,,,,,,,,267.5349327,268.5533772,266.41620709999995,266.41620709999995,266.41620709999995,266.41620709999995,,old_sceneOut_37.png,67,4.0,1.1208908000000974,,008,0,2024-10-02_16h12.43.708,Surprise recog test,2023.1.3,59.859235022913474,
67,0,67,0,,,,,,,,,,,,,,,,,,,,,,,,,,,,,,,,,,,,269.72606039999994,270.75788339999997,268.5533772,268.5533772,268.5533772,268.5533772,,new_sceneIn_14.png,68,4.0,1.1658065999999963,,008,0,2024-10-02_16h12.43.708,Surprise recog test,2023.1.3,59.859235022913474,
68,0,68,0,,,,,,,,,,,,,,,,,,,,,,,,,,,,,,,,,,,,272.68619019999994,273.709347,270.75788339999997,270.75788339999997,270.75788339999997,270.75788339999997,,old_stationery_13.png,69,2.0,1.929048200000011,,008,0,2024-10-02_16h12.43.708,Surprise recog test,2023.1.3,59.859235022913474,
69,0,69,0,,,,,,,,,,,,,,,,,,,,,,,,,,,,,,,,,,,,274.95960849999994,275.97503629999994,273.709347,273.709347,273.709347,273.709347,,old_sceneIn_17.png,70,4.0,1.252089299999966,,008,0,2024-10-02_16h12.43.708,Surprise recog test,2023.1.3,59.859235022913474,
70,0,70,0,,,,,,,,,,,,,,,,,,,,,,,,,,,,,,,,,,,,277.2785298,,275.97503629999994,275.97503629999994,275.97503629999994,275.97503629999994,,old_sceneIn_3.png,71,4.0,1.3046146000000363,,008,0,2024-10-02_16h12.43.708,Surprise recog test,2023.1.3,59.859235022913474,
71,0,71,0,,,,,,,,,,,,,,,,,,,,,,,,,,,,,,,,,,,,279.98492279999994,281.00894829999993,278.3038313999999,278.3038313999999,278.3038313999999,278.3038313999999,,old_fruit_38.png,72,1.0,1.6791541000000052,,008,0,2024-10-02_16h12.43.708,Surprise recog test,2023.1.3,59.859235022913474,
72,0,72,0,,,,,,,,,,,,,,,,,,,,,,,,,,,,,,,,,,,,283.75223199999994,,281.00894829999993,281.00894829999993,281.00894829999993,281.00894829999993,,new_stationery_25.png,73,4.0,2.7444368999999824,,008,0,2024-10-02_16h12.43.708,Surprise recog test,2023.1.3,59.859235022913474,
73,0,73,0,,,,,,,,,,,,,,,,,,,,,,,,,,,,,,,,,,,,287.1014351,288.11278559999994,284.78171009999994,284.78171009999994,284.78171009999994,284.78171009999994,,old_sceneOut_23.png,74,3.0,2.320627699999932,,008,0,2024-10-02_16h12.43.708,Surprise recog test,2023.1.3,59.859235022913474,
74,0,74,0,,,,,,,,,,,,,,,,,,,,,,,,,,,,,,,,,,,,290.5366303999999,291.54635229999997,288.11278559999994,288.11278559999994,288.11278559999994,288.11278559999994,,old_sceneIn_14.png,75,3.0,2.42201799999998,,008,0,2024-10-02_16h12.43.708,Surprise recog test,2023.1.3,59.859235022913474,
75,0,75,0,,,,,,,,,,,,,,,,,,,,,,,,,,,,,,,,,,,,293.18825749999996,294.2055975999999,291.54635229999997,291.54635229999997,291.54635229999997,291.54635229999997,,new_stationery_1.png,76,2.0,1.6376082000000451,,008,0,2024-10-02_16h12.43.708,Surprise recog test,2023.1.3,59.859235022913474,
76,0,76,0,,,,,,,,,,,,,,,,,,,,,,,,,,,,,,,,,,,,296.1662559,297.1945604,294.2055975999999,294.2055975999999,294.2055975999999,294.2055975999999,,new_fruit_28.png,77,1.0,1.9614928999999393,,008,0,2024-10-02_16h12.43.708,Surprise recog test,2023.1.3,59.859235022913474,
77,0,77,0,,,,,,,,,,,,,,,,,,,,,,,,,,,,,,,,,,,,299.9256523,300.93692939999994,297.1945604,297.1945604,297.1945604,297.1945604,,new_fruit_22.png,78,3.0,2.7291301000000203,,008,0,2024-10-02_16h12.43.708,Surprise recog test,2023.1.3,59.859235022913474,
78,0,78,0,,,,,,,,,,,,,,,,,,,,,,,,,,,,,,,,,,,,303.1352584,,300.93692939999994,300.93692939999994,300.93692939999994,300.93692939999994,,new_fruit_4.png,79,3.0,2.1943666000000803,,008,0,2024-10-02_16h12.43.708,Surprise recog test,2023.1.3,59.859235022913474,
79,0,79,0,,,,,,,,,,,,,,,,,,,,,,,,,,,,,,,,,,,,307.93319009999993,308.9549383,304.15585799999997,304.15585799999997,304.15585799999997,304.15585799999997,,new_stationery_37.png,80,4.0,3.773606700000073,,008,0,2024-10-02_16h12.43.708,Surprise recog test,2023.1.3,59.859235022913474,
80,0,80,0,,,,,,,,,,,,,,,,,,,,,,,,,,,,,,,,,,,,310.9797486,312.0013968999999,308.9549383,308.9549383,308.9549383,308.9549383,,new_sceneIn_28.png,81,1.0,2.02343570000005,,008,0,2024-10-02_16h12.43.708,Surprise recog test,2023.1.3,59.859235022913474,
81,0,81,0,,,,,,,,,,,,,,,,,,,,,,,,,,,,,,,,,,,,313.77604039999994,,312.0013968999999,312.0013968999999,312.0013968999999,312.0013968999999,,new_sceneIn_38.png,82,1.0,1.7738875000000007,,008,0,2024-10-02_16h12.43.708,Surprise recog test,2023.1.3,59.859235022913474,
82,0,82,0,,,,,,,,,,,,,,,,,,,,,,,,,,,,,,,,,,,,316.9219068,317.94604659999993,314.7978544,314.7978544,314.7978544,314.7978544,,new_sceneOut_48.png,83,3.0,2.119501000000014,,008,0,2024-10-02_16h12.43.708,Surprise recog test,2023.1.3,59.859235022913474,
83,0,83,0,,,,,,,,,,,,,,,,,,,,,,,,,,,,,,,,,,,,319.3570165,320.39110889999995,317.94604659999993,317.94604659999993,317.94604659999993,317.94604659999993,,new_stationery_48.png,84,3.0,1.4084126999999853,,008,0,2024-10-02_16h12.43.708,Surprise recog test,2023.1.3,59.859235022913474,
84,0,84,0,,,,,,,,,,,,,,,,,,,,,,,,,,,,,,,,,,,,322.11191499999995,323.1289886999999,320.39110889999995,320.39110889999995,320.39110889999995,320.39110889999995,,new_fruit_8.png,85,1.0,1.724547799999982,,008,0,2024-10-02_16h12.43.708,Surprise recog test,2023.1.3,59.859235022913474,
85,0,85,0,,,,,,,,,,,,,,,,,,,,,,,,,,,,,,,,,,,,324.8560504999999,325.8812746,323.1289886999999,323.1289886999999,323.1289886999999,323.1289886999999,,new_sceneIn_19.png,86,1.0,1.7261598999999705,,008,0,2024-10-02_16h12.43.708,Surprise recog test,2023.1.3,59.859235022913474,
86,0,86,0,,,,,,,,,,,,,,,,,,,,,,,,,,,,,,,,,,,,328.06977759999995,329.0880713,325.8812746,325.8812746,325.8812746,325.8812746,,old_sceneOut_14.png,87,4.0,2.1891661000000795,,008,0,2024-10-02_16h12.43.708,Surprise recog test,2023.1.3,59.859235022913474,
87,0,87,0,,,,,,,,,,,,,,,,,,,,,,,,,,,,,,,,,,,,331.0065069,,329.0880713,329.0880713,329.0880713,329.0880713,,old_stationery_14.png,88,1.0,1.920459699999924,,008,0,2024-10-02_16h12.43.708,Surprise recog test,2023.1.3,59.859235022913474,
88,0,88,0,,,,,,,,,,,,,,,,,,,,,,,,,,,,,,,,,,,,333.69265199999995,,332.0331570999999,332.0331570999999,332.0331570999999,332.0331570999999,,old_sceneOut_26.png,89,5.0,1.6579080000000204,,008,0,2024-10-02_16h12.43.708,Surprise recog test,2023.1.3,59.859235022913474,
89,0,89,0,,,,,,,,,,,,,,,,,,,,,,,,,,,,,,,,,,,,336.41373609999994,337.4347202,334.7241867,334.7241867,334.7241867,334.7241867,,old_sceneIn_21.png,90,4.0,1.691999800000076,,008,0,2024-10-02_16h12.43.708,Surprise recog test,2023.1.3,59.859235022913474,
90,0,90,0,,,,,,,,,,,,,,,,,,,,,,,,,,,,,,,,,,,,338.7935150999999,339.8192753999999,337.4347202,337.4347202,337.4347202,337.4347202,,new_sceneIn_3.png,91,1.0,1.3547022000000197,,008,0,2024-10-02_16h12.43.708,Surprise recog test,2023.1.3,59.859235022913474,
91,0,91,0,,,,,,,,,,,,,,,,,,,,,,,,,,,,,,,,,,,,342.1588623,343.1817022,339.8192753999999,339.8192753999999,339.8192753999999,339.8192753999999,,old_stationery_31.png,92,3.0,2.341509999999971,,008,0,2024-10-02_16h12.43.708,Surprise recog test,2023.1.3,59.859235022913474,
92,0,92,0,,,,,,,,,,,,,,,,,,,,,,,,,,,,,,,,,,,,344.73594579999997,,343.1817022,343.1817022,343.1817022,343.1817022,,old_sceneIn_47.png,93,4.0,1.5556987999999592,,008,0,2024-10-02_16h12.43.708,Surprise recog test,2023.1.3,59.859235022913474,
93,0,93,0,,,,,,,,,,,,,,,,,,,,,,,,,,,,,,,,,,,,347.63674849999995,348.6481818,345.7625276,345.7625276,345.7625276,345.7625276,,new_sceneIn_23.png,94,1.0,1.875521899999967,,008,0,2024-10-02_16h12.43.708,Surprise recog test,2023.1.3,59.859235022913474,
94,0,94,0,,,,,,,,,,,,,,,,,,,,,,,,,,,,,,,,,,,,350.18400109999993,351.2074199,348.6481818,348.6481818,348.6481818,348.6481818,,new_stationery_17.png,95,4.0,1.533765399999993,,008,0,2024-10-02_16h12.43.708,Surprise recog test,2023.1.3,59.859235022913474,
95,0,95,0,,,,,,,,,,,,,,,,,,,,,,,,,,,,,,,,,,,,354.1367223,355.1510542,351.2074199,351.2074199,351.2074199,351.2074199,,new_sceneIn_1.png,96,5.0,2.928038499999957,,008,0,2024-10-02_16h12.43.708,Surprise recog test,2023.1.3,59.859235022913474,
96,0,96,0,,,,,,,,,,,,,,,,,,,,,,,,,,,,,,,,,,,,356.7312183,357.75706979999995,355.1510542,355.1510542,355.1510542,355.1510542,,old_fruit_29.png,97,1.0,1.5762831999999207,,008,0,2024-10-02_16h12.43.708,Surprise recog test,2023.1.3,59.859235022913474,
97,0,97,0,,,,,,,,,,,,,,,,,,,,,,,,,,,,,,,,,,,,359.3852155999999,360.41670109999995,357.75706979999995,357.75706979999995,357.75706979999995,357.75706979999995,,old_sceneIn_16.png,98,4.0,1.6275285000000395,,008,0,2024-10-02_16h12.43.708,Surprise recog test,2023.1.3,59.859235022913474,
98,0,98,0,,,,,,,,,,,,,,,,,,,,,,,,,,,,,,,,,,,,362.95278929999995,363.9817029999999,360.41670109999995,360.41670109999995,360.41670109999995,360.41670109999995,,new_sceneIn_13.png,99,5.0,2.53836560000002,,008,0,2024-10-02_16h12.43.708,Surprise recog test,2023.1.3,59.859235022913474,
99,0,99,0,,,,,,,,,,,,,,,,,,,,,,,,,,,,,,,,,,,,365.3744518,366.40015299999993,363.9817029999999,363.9817029999999,363.9817029999999,363.9817029999999,,new_fruit_18.png,100,1.0,1.3933531999999786,,008,0,2024-10-02_16h12.43.708,Surprise recog test,2023.1.3,59.859235022913474,
100,0,100,0,,,,,,,,,,,,,,,,,,,,,,,,,,,,,,,,,,,,368.3403876,369.3616839,366.40015299999993,366.40015299999993,366.40015299999993,366.40015299999993,,new_sceneIn_16.png,101,4.0,1.9381098000000065,,008,0,2024-10-02_16h12.43.708,Surprise recog test,2023.1.3,59.859235022913474,
101,0,101,0,,,,,,,,,,,,,,,,,,,,,,,,,,,,,,,,,,,,370.4256421,371.4568356,369.3616839,369.3616839,369.3616839,369.3616839,,old_sceneOut_3.png,102,4.0,1.0591805999999906,,008,0,2024-10-02_16h12.43.708,Surprise recog test,2023.1.3,59.859235022913474,
102,0,102,0,,,,,,,,,,,,,,,,,,,,,,,,,,,,,,,,,,,,373.63517939999997,374.6626176,371.4568356,371.4568356,371.4568356,371.4568356,,old_fruit_17.png,103,3.0,2.1796072000000777,,008,0,2024-10-02_16h12.43.708,Surprise recog test,2023.1.3,59.859235022913474,
103,0,103,0,,,,,,,,,,,,,,,,,,,,,,,,,,,,,,,,,,,,375.7417967,376.75902399999995,374.6626176,374.6626176,374.6626176,374.6626176,,new_stationery_42.png,104,4.0,1.0768820000000687,,008,0,2024-10-02_16h12.43.708,Surprise recog test,2023.1.3,59.859235022913474,
104,0,104,0,,,,,,,,,,,,,,,,,,,,,,,,,,,,,,,,,,,,378.127936,379.1354927,376.75902399999995,376.75902399999995,376.75902399999995,376.75902399999995,,new_sceneOut_28.png,105,4.0,1.3708281000000397,,008,0,2024-10-02_16h12.43.708,Surprise recog test,2023.1.3,59.859235022913474,
105,0,105,0,,,,,,,,,,,,,,,,,,,,,,,,,,,,,,,,,,,,381.4969861999999,382.512467,379.1354927,379.1354927,379.1354927,379.1354927,,old_sceneIn_12.png,106,4.0,2.3576367999999093,,008,0,2024-10-02_16h12.43.708,Surprise recog test,2023.1.3,59.859235022913474,
106,0,106,0,,,,,,,,,,,,,,,,,,,,,,,,,,,,,,,,,,,,385.0361498,,382.512467,382.512467,382.512467,382.512467,,old_sceneIn_43.png,107,3.0,2.5254271999999673,,008,0,2024-10-02_16h12.43.708,Surprise recog test,2023.1.3,59.859235022913474,
107,0,107,0,,,,,,,,,,,,,,,,,,,,,,,,,,,,,,,,,,,,387.62856309999995,388.6549516,386.06528430000003,386.06528430000003,386.06528430000003,386.06528430000003,,new_fruit_46.png,108,1.0,1.5628421000000117,,008,0,2024-10-02_16h12.43.708,Surprise recog test,2023.1.3,59.859235022913474,
108,0,108,0,,,,,,,,,,,,,,,,,,,,,,,,,,,,,,,,,,,,390.9288288,391.9669001,388.6549516,388.6549516,388.6549516,388.6549516,,old_stationery_22.png,109,3.0,2.2746290000000045,,008,0,2024-10-02_16h12.43.708,Surprise recog test,2023.1.3,59.859235022913474,
109,0,109,0,,,,,,,,,,,,,,,,,,,,,,,,,,,,,,,,,,,,393.0937099,,391.9669001,391.9669001,391.9669001,391.9669001,,old_fruit_25.png,110,1.0,1.1292210999999952,,008,0,2024-10-02_16h12.43.708,Surprise recog test,2023.1.3,59.859235022913474,
110,0,110,0,,,,,,,,,,,,,,,,,,,,,,,,,,,,,,,,,,,,395.8272045,,394.1184038,394.1184038,394.1184038,394.1184038,,new_sceneOut_42.png,111,4.0,1.7091123999999809,,008,0,2024-10-02_16h12.43.708,Surprise recog test,2023.1.3,59.859235022913474,
111,0,111,0,,,,,,,,,,,,,,,,,,,,,,,,,,,,,,,,,,,,398.561924,399.58218309999995,396.86112289999994,396.86112289999994,396.86112289999994,396.86112289999994,,new_sceneIn_24.png,112,1.0,1.7018309999999701,,008,0,2024-10-02_16h12.43.708,Surprise recog test,2023.1.3,59.859235022913474,
112,0,112,0,,,,,,,,,,,,,,,,,,,,,,,,,,,,,,,,,,,,401.54570809999996,402.5690382,399.58218309999995,399.58218309999995,399.58218309999995,399.58218309999995,,new_sceneOut_26.png,113,1.0,1.9657883999999513,,008,0,2024-10-02_16h12.43.708,Surprise recog test,2023.1.3,59.859235022913474,
113,0,113,0,,,,,,,,,,,,,,,,,,,,,,,,,,,,,,,,,,,,405.32377169999995,406.35533799999996,402.5690382,402.5690382,402.5690382,402.5690382,,new_stationery_45.png,114,3.0,2.7529287999999497,,008,0,2024-10-02_16h12.43.708,Surprise recog test,2023.1.3,59.859235022913474,
114,0,114,0,,,,,,,,,,,,,,,,,,,,,,,,,,,,,,,,,,,,407.91858030000003,408.9357823,406.35533799999996,406.35533799999996,406.35533799999996,406.35533799999996,,old_stationery_4.png,115,4.0,1.5623574999999619,,008,0,2024-10-02_16h12.43.708,Surprise recog test,2023.1.3,59.859235022913474,
115,0,115,0,,,,,,,,,,,,,,,,,,,,,,,,,,,,,,,,,,,,410.99216939999997,412.01805879999995,408.9357823,408.9357823,408.9357823,408.9357823,,new_sceneOut_10.png,116,2.0,2.0575807999999824,,008,0,2024-10-02_16h12.43.708,Surprise recog test,2023.1.3,59.859235022913474,
116,0,116,0,,,,,,,,,,,,,,,,,,,,,,,,,,,,,,,,,,,,414.8859361,415.9081708,412.01805879999995,412.01805879999995,412.01805879999995,412.01805879999995,,new_sceneIn_10.png,117,4.0,2.869087199999967,,008,0,2024-10-02_16h12.43.708,Surprise recog test,2023.1.3,59.859235022913474,
117,0,117,0,,,,,,,,,,,,,,,,,,,,,,,,,,,,,,,,,,,,417.20158219999996,418.2262899,415.9081708,415.9081708,415.9081708,415.9081708,,new_fruit_37.png,118,1.0,1.2918141999999762,,008,0,2024-10-02_16h12.43.708,Surprise recog test,2023.1.3,59.859235022913474,
118,0,118,0,,,,,,,,,,,,,,,,,,,,,,,,,,,,,,,,,,,,419.61515099999997,,418.2262899,418.2262899,418.2262899,418.2262899,,new_sceneOut_20.png,119,4.0,1.3898642999999993,,008,0,2024-10-02_16h12.43.708,Surprise recog test,2023.1.3,59.859235022913474,
119,0,119,0,,,,,,,,,,,,,,,,,,,,,,,,,,,,,,,,,,,,422.41493549999996,423.42990299999997,420.6395287,420.6395287,420.6395287,420.6395287,,new_sceneOut_2.png,120,3.0,1.773079800000005,,008,0,2024-10-02_16h12.43.708,Surprise recog test,2023.1.3,59.859235022913474,
120,0,120,0,,,,,,,,,,,,,,,,,,,,,,,,,,,,,,,,,,,,424.8494555,425.8628916,423.42990299999997,423.42990299999997,423.42990299999997,423.42990299999997,,new_sceneIn_29.png,121,4.0,1.416891899999996,,008,0,2024-10-02_16h12.43.708,Surprise recog test,2023.1.3,59.859235022913474,
121,0,121,0,,,,,,,,,,,,,,,,,,,,,,,,,,,,,,,,,,,,426.9350796,427.942418,425.8628916,425.8628916,425.8628916,425.8628916,,old_stationery_11.png,122,4.0,1.0711929999999938,,008,0,2024-10-02_16h12.43.708,Surprise recog test,2023.1.3,59.859235022913474,
122,0,122,0,,,,,,,,,,,,,,,,,,,,,,,,,,,,,,,,,,,,430.0810179,431.1102095,427.942418,427.942418,427.942418,427.942418,,old_sceneOut_47.png,123,4.0,2.1360568999999714,,008,0,2024-10-02_16h12.43.708,Surprise recog test,2023.1.3,59.859235022913474,
123,0,123,0,,,,,,,,,,,,,,,,,,,,,,,,,,,,,,,,,,,,433.0410971,434.0563873,431.1102095,431.1102095,431.1102095,431.1102095,,old_fruit_11.png,124,1.0,1.9322466999999506,,008,0,2024-10-02_16h12.43.708,Surprise recog test,2023.1.3,59.859235022913474,
124,0,124,0,,,,,,,,,,,,,,,,,,,,,,,,,,,,,,,,,,,,436.8992882,437.92597409999996,434.0563873,434.0563873,434.0563873,434.0563873,,new_stationery_18.png,125,4.0,2.8413862999999537,,008,0,2024-10-02_16h12.43.708,Surprise recog test,2023.1.3,59.859235022913474,
125,0,125,0,,,,,,,,,,,,,,,,,,,,,,,,,,,,,,,,,,,,439.13970989999996,440.1656078,437.92597409999996,437.92597409999996,437.92597409999996,437.92597409999996,,old_sceneOut_27.png,126,4.0,1.2083025999999109,,008,0,2024-10-02_16h12.43.708,Surprise recog test,2023.1.3,59.859235022913474,
126,0,126,0,,,,,,,,,,,,,,,,,,,,,,,,,,,,,,,,,,,,442.67209679999996,443.70021209999993,440.1656078,440.1656078,440.1656078,440.1656078,,new_sceneOut_38.png,127,2.0,2.508918300000005,,008,0,2024-10-02_16h12.43.708,Surprise recog test,2023.1.3,59.859235022913474,
127,0,127,0,,,,,,,,,,,,,,,,,,,,,,,,,,,,,,,,,,,,445.77896009999995,446.7996985,443.70021209999993,443.70021209999993,443.70021209999993,443.70021209999993,,new_sceneIn_33.png,128,1.0,2.0801143999999567,,008,0,2024-10-02_16h12.43.708,Surprise recog test,2023.1.3,59.859235022913474,
128,0,128,0,,,,,,,,,,,,,,,,,,,,,,,,,,,,,,,,,,,,447.694979,448.7226011,446.7996985,446.7996985,446.7996985,446.7996985,,old_fruit_27.png,129,1.0,0.8915627999999742,,008,0,2024-10-02_16h12.43.708,Surprise recog test,2023.1.3,59.859235022913474,
129,0,129,0,,,,,,,,,,,,,,,,,,,,,,,,,,,,,,,,,,,,449.90377749999993,450.92858949999993,448.7226011,448.7226011,448.7226011,448.7226011,,old_fruit_24.png,130,1.0,1.1806755999999723,,008,0,2024-10-02_16h12.43.708,Surprise recog test,2023.1.3,59.859235022913474,
130,0,130,0,,,,,,,,,,,,,,,,,,,,,,,,,,,,,,,,,,,,451.8305874,452.8534499,450.92858949999993,450.92858949999993,450.92858949999993,450.92858949999993,,new_fruit_26.png,131,1.0,0.9049446000000216,,008,0,2024-10-02_16h12.43.708,Surprise recog test,2023.1.3,59.859235022913474,
131,0,131,0,,,,,,,,,,,,,,,,,,,,,,,,,,,,,,,,,,,,453.5643735,454.5880879,452.8534499,452.8534499,452.8534499,452.8534499,,old_fruit_37.png,132,1.0,0.7107599000000846,,008,0,2024-10-02_16h12.43.708,Surprise recog test,2023.1.3,59.859235022913474,
132,0,132,0,,,,,,,,,,,,,,,,,,,,,,,,,,,,,,,,,,,,456.60981989999993,457.6279614,454.5880879,454.5880879,454.5880879,454.5880879,,old_stationery_24.png,133,1.0,2.023088800000096,,008,0,2024-10-02_16h12.43.708,Surprise recog test,2023.1.3,59.859235022913474,
133,0,133,0,,,,,,,,,,,,,,,,,,,,,,,,,,,,,,,,,,,,460.2144448,,457.6279614,457.6279614,457.6279614,457.6279614,,old_stationery_27.png,134,5.0,2.58839260000002,,008,0,2024-10-02_16h12.43.708,Surprise recog test,2023.1.3,59.859235022913474,
134,0,134,0,,,,,,,,,,,,,,,,,,,,,,,,,,,,,,,,,,,,463.1897794,464.2146742,461.2366021,461.2366021,461.2366021,461.2366021,,old_stationery_8.png,135,1.0,1.9492837000000236,,008,0,2024-10-02_16h12.43.708,Surprise recog test,2023.1.3,59.859235022913474,
135,0,135,0,,,,,,,,,,,,,,,,,,,,,,,,,,,,,,,,,,,,465.36893069999996,,464.2146742,464.2146742,464.2146742,464.2146742,,old_fruit_26.png,136,1.0,1.1531896000000188,,008,0,2024-10-02_16h12.43.708,Surprise recog test,2023.1.3,59.859235022913474,
136,0,136,0,,,,,,,,,,,,,,,,,,,,,,,,,,,,,,,,,,,,470.24575849999997,471.27559429999997,466.3907932999999,466.3907932999999,466.3907932999999,466.3907932999999,,new_sceneOut_22.png,137,5.0,3.8509922000000643,,008,0,2024-10-02_16h12.43.708,Surprise recog test,2023.1.3,59.859235022913474,
137,0,137,0,,,,,,,,,,,,,,,,,,,,,,,,,,,,,,,,,,,,473.759912,,471.27559429999997,471.27559429999997,471.27559429999997,471.27559429999997,,old_stationery_41.png,138,1.0,2.4875266999999894,,008,0,2024-10-02_16h12.43.708,Surprise recog test,2023.1.3,59.859235022913474,
138,0,138,0,,,,,,,,,,,,,,,,,,,,,,,,,,,,,,,,,,,,476.55458109999995,477.57200549999993,474.7851998,474.7851998,474.7851998,474.7851998,,new_fruit_23.png,139,3.0,1.7695185000000038,,008,0,2024-10-02_16h12.43.708,Surprise recog test,2023.1.3,59.859235022913474,
139,0,139,0,,,,,,,,,,,,,,,,,,,,,,,,,,,,,,,,,,,,479.5686558,480.5932063,477.57200549999993,477.57200549999993,477.57200549999993,477.57200549999993,,new_sceneOut_16.png,140,4.0,1.996688400000039,,008,0,2024-10-02_16h12.43.708,Surprise recog test,2023.1.3,59.859235022913474,
140,0,140,0,,,,,,,,,,,,,,,,,,,,,,,,,,,,,,,,,,,,481.9979122,483.0038483999999,480.5932063,480.5932063,480.5932063,480.5932063,,old_sceneOut_30.png,141,4.0,1.4076364999999669,,008,0,2024-10-02_16h12.43.708,Surprise recog test,2023.1.3,59.859235022913474,
141,0,141,0,,,,,,,,,,,,,,,,,,,,,,,,,,,,,,,,,,,,485.23479729999997,486.2532049,483.0038483999999,483.0038483999999,483.0038483999999,483.0038483999999,,old_stationery_45.png,142,4.0,2.22634400000004,,008,0,2024-10-02_16h12.43.708,Surprise recog test,2023.1.3,59.859235022913474,
142,0,142,0,,,,,,,,,,,,,,,,,,,,,,,,,,,,,,,,,,,,488.0938814,489.1181781,486.2532049,486.2532049,486.2532049,486.2532049,,new_sceneOut_15.png,143,4.0,1.8438597999999047,,008,0,2024-10-02_16h12.43.708,Surprise recog test,2023.1.3,59.859235022913474,
143,0,143,0,,,,,,,,,,,,,,,,,,,,,,,,,,,,,,,,,,,,490.9425046,491.9609285,489.1181781,489.1181781,489.1181781,489.1181781,,old_stationery_18.png,144,4.0,1.8254679000000351,,008,0,2024-10-02_16h12.43.708,Surprise recog test,2023.1.3,59.859235022913474,
144,0,144,0,,,,,,,,,,,,,,,,,,,,,,,,,,,,,,,,,,,,494.8603249,,491.9609285,491.9609285,491.9609285,491.9609285,,new_sceneOut_1.png,145,4.0,2.8947463999999172,,008,0,2024-10-02_16h12.43.708,Surprise recog test,2023.1.3,59.859235022913474,
145,0,145,0,,,,,,,,,,,,,,,,,,,,,,,,,,,,,,,,,,,,498.36896579999996,499.3967825,495.89336749999995,495.89336749999995,495.89336749999995,495.89336749999995,,old_fruit_7.png,146,1.0,2.4774660000000495,,008,0,2024-10-02_16h12.43.708,Surprise recog test,2023.1.3,59.859235022913474,
146,0,146,0,,,,,,,,,,,,,,,,,,,,,,,,,,,,,,,,,,,,500.23914349999995,501.2672163,499.3967825,499.3967825,499.3967825,499.3967825,,old_fruit_1.png,147,1.0,0.8431378000000223,,008,0,2024-10-02_16h12.43.708,Surprise recog test,2023.1.3,59.859235022913474,
147,0,147,0,,,,,,,,,,,,,,,,,,,,,,,,,,,,,,,,,,,,502.82196379999993,503.84969979999994,501.2672163,501.2672163,501.2672163,501.2672163,,old_sceneOut_8.png,148,4.0,1.5577948000000106,,008,0,2024-10-02_16h12.43.708,Surprise recog test,2023.1.3,59.859235022913474,
148,0,148,0,,,,,,,,,,,,,,,,,,,,,,,,,,,,,,,,,,,,505.8338884,506.83917199999996,503.84969979999994,503.84969979999994,503.84969979999994,503.84969979999994,,new_stationery_21.png,149,3.0,1.9840672000000268,,008,0,2024-10-02_16h12.43.708,Surprise recog test,2023.1.3,59.859235022913474,
149,0,149,0,,,,,,,,,,,,,,,,,,,,,,,,,,,,,,,,,,,,508.336184,509.3557938,506.83917199999996,506.83917199999996,506.83917199999996,506.83917199999996,,new_sceneIn_50.png,150,4.0,1.4914274000000205,,008,0,2024-10-02_16h12.43.708,Surprise recog test,2023.1.3,59.859235022913474,
150,0,150,0,,,,,,,,,,,,,,,,,,,,,,,,,,,,,,,,,,,,510.6096367,511.64242649999994,509.3557938,509.3557938,509.3557938,509.3557938,,new_sceneOut_35.png,151,4.0,1.2561348000000407,,008,0,2024-10-02_16h12.43.708,Surprise recog test,2023.1.3,59.859235022913474,
151,0,151,0,,,,,,,,,,,,,,,,,,,,,,,,,,,,,,,,,,,,513.1599113999999,,511.64242649999994,511.64242649999994,511.64242649999994,511.64242649999994,,old_fruit_19.png,152,1.0,1.5185696000000917,,008,0,2024-10-02_16h12.43.708,Surprise recog test,2023.1.3,59.859235022913474,
152,0,152,0,,,,,,,,,,,,,,,,,,,,,,,,,,,,,,,,,,,,515.6047249,516.6274631,514.1796766,514.1796766,514.1796766,514.1796766,,old_fruit_13.png,153,1.0,1.419908200000009,,008,0,2024-10-02_16h12.43.708,Surprise recog test,2023.1.3,59.859235022913474,
153,0,153,0,,,,,,,,,,,,,,,,,,,,,,,,,,,,,,,,,,,,519.2699997,520.2987828,516.6274631,516.6274631,516.6274631,516.6274631,,new_sceneOut_50.png,154,4.0,2.6470291000000543,,008,0,2024-10-02_16h12.43.708,Surprise recog test,2023.1.3,59.859235022913474,
154,0,154,0,,,,,,,,,,,,,,,,,,,,,,,,,,,,,,,,,,,,521.5464946999999,522.568441,520.2987828,520.2987828,520.2987828,520.2987828,,old_stationery_35.png,155,1.0,1.2480052999999316,,008,0,2024-10-02_16h12.43.708,Surprise recog test,2023.1.3,59.859235022913474,
155,0,155,0,,,,,,,,,,,,,,,,,,,,,,,,,,,,,,,,,,,,523.3771442,524.4021783,522.568441,522.568441,522.568441,522.568441,,new_fruit_14.png,156,1.0,0.8103952000000163,,008,0,2024-10-02_16h12.43.708,Surprise recog test,2023.1.3,59.859235022913474,
156,0,156,0,,,,,,,,,,,,,,,,,,,,,,,,,,,,,,,,,,,,526.1357666,,524.4021783,524.4021783,524.4021783,524.4021783,,old_sceneIn_4.png,157,3.0,1.7369814000001043,,008,0,2024-10-02_16h12.43.708,Surprise recog test,2023.1.3,59.859235022913474,
157,0,157,0,,,,,,,,,,,,,,,,,,,,,,,,,,,,,,,,,,,,528.6048849,,527.1734933,527.1734933,527.1734933,527.1734933,,old_fruit_45.png,158,2.0,1.434989900000005,,008,0,2024-10-02_16h12.43.708,Surprise recog test,2023.1.3,59.859235022913474,
158,0,158,0,,,,,,,,,,,,,,,,,,,,,,,,,,,,,,,,,,,,531.6632129,532.6861443,529.6395982,529.6395982,529.6395982,529.6395982,,new_fruit_44.png,159,1.0,2.0234795999999733,,008,0,2024-10-02_16h12.43.708,Surprise recog test,2023.1.3,59.859235022913474,
159,0,159,0,,,,,,,,,,,,,,,,,,,,,,,,,,,,,,,,,,,,534.9839986,536.0079043,532.6861443,532.6861443,532.6861443,532.6861443,,new_sceneIn_22.png,160,4.0,2.298146900000006,,008,0,2024-10-02_16h12.43.708,Surprise recog test,2023.1.3,59.859235022913474,
160,0,160,0,,,,,,,,,,,,,,,,,,,,,,,,,,,,,,,,,,,,537.9572218,538.9825478,536.0079043,536.0079043,536.0079043,536.0079043,,old_sceneOut_21.png,161,4.0,1.9511798999999428,,008,0,2024-10-02_16h12.43.708,Surprise recog test,2023.1.3,59.859235022913474,
161,0,161,0,,,,,,,,,,,,,,,,,,,,,,,,,,,,,,,,,,,,540.1137219,541.1372140999999,538.9825478,538.9825478,538.9825478,538.9825478,,old_sceneOut_31.png,162,3.0,1.1344503999999915,,008,0,2024-10-02_16h12.43.708,Surprise recog test,2023.1.3,59.859235022913474,
162,0,162,0,,,,,,,,,,,,,,,,,,,,,,,,,,,,,,,,,,,,542.4659177999999,,541.1372140999999,541.1372140999999,541.1372140999999,541.1372140999999,,new_stationery_33.png,163,1.0,1.3308399000000009,,008,0,2024-10-02_16h12.43.708,Surprise recog test,2023.1.3,59.859235022913474,
163,0,163,0,,,,,,,,,,,,,,,,,,,,,,,,,,,,,,,,,,,,545.1739514999999,546.1892844,543.4958611,543.4958611,543.4958611,543.4958611,,new_sceneOut_33.png,164,4.0,1.6785575000000108,,008,0,2024-10-02_16h12.43.708,Surprise recog test,2023.1.3,59.859235022913474,
164,0,164,0,,,,,,,,,,,,,,,,,,,,,,,,,,,,,,,,,,,,547.5993727,548.6098062,546.1892844,546.1892844,546.1892844,546.1892844,,old_sceneIn_5.png,165,3.0,1.4044858999999406,,008,0,2024-10-02_16h12.43.708,Surprise recog test,2023.1.3,59.859235022913474,
165,0,165,0,,,,,,,,,,,,,,,,,,,,,,,,,,,,,,,,,,,,551.3710133999999,552.3786566,548.6098062,548.6098062,548.6098062,548.6098062,,old_sceneIn_11.png,166,2.0,2.7505588999999873,,008,0,2024-10-02_16h12.43.708,Surprise recog test,2023.1.3,59.859235022913474,
166,0,166,0,,,,,,,,,,,,,,,,,,,,,,,,,,,,,,,,,,,,554.1066718,555.1121105,552.3786566,552.3786566,552.3786566,552.3786566,,new_sceneIn_11.png,167,4.0,1.7215314999999691,,008,0,2024-10-02_16h12.43.708,Surprise recog test,2023.1.3,59.859235022913474,
167,0,167,0,,,,,,,,,,,,,,,,,,,,,,,,,,,,,,,,,,,,556.4585432,557.4641425,555.1121105,555.1121105,555.1121105,555.1121105,,old_stationery_39.png,168,4.0,1.3373935999999276,,008,0,2024-10-02_16h12.43.708,Surprise recog test,2023.1.3,59.859235022913474,
168,0,168,0,,,,,,,,,,,,,,,,,,,,,,,,,,,,,,,,,,,,559.1275344,560.1327269999999,557.4641425,557.4641425,557.4641425,557.4641425,,new_stationery_30.png,169,4.0,1.6544440999999779,,008,0,2024-10-02_16h12.43.708,Surprise recog test,2023.1.3,59.859235022913474,
169,0,169,0,,,,,,,,,,,,,,,,,,,,,,,,,,,,,,,,,,,,561.5961871,562.6011221,560.1327269999999,560.1327269999999,560.1327269999999,560.1327269999999,,new_stationery_36.png,170,3.0,1.4554908000000069,,008,0,2024-10-02_16h12.43.708,Surprise recog test,2023.1.3,59.859235022913474,
170,0,170,0,,,,,,,,,,,,,,,,,,,,,,,,,,,,,,,,,,,,565.0657203,566.0717159999999,562.6011221,562.6011221,562.6011221,562.6011221,,old_stationery_49.png,171,4.0,2.454949299999953,,008,0,2024-10-02_16h12.43.708,Surprise recog test,2023.1.3,59.859235022913474,
171,0,171,0,,,,,,,,,,,,,,,,,,,,,,,,,,,,,,,,,,,,570.3389195999999,,566.0717159999999,566.0717159999999,566.0717159999999,566.0717159999999,,old_sceneIn_15.png,172,3.0,4.26221570000007,,008,0,2024-10-02_16h12.43.708,Surprise recog test,2023.1.3,59.859235022913474,
172,0,172,0,,,,,,,,,,,,,,,,,,,,,,,,,,,,,,,,,,,,573.2726691,574.2782027,571.3600388,571.3600388,571.3600388,571.3600388,,old_sceneIn_6.png,173,4.0,1.9055547000000388,,008,0,2024-10-02_16h12.43.708,Surprise recog test,2023.1.3,59.859235022913474,
173,0,173,0,,,,,,,,,,,,,,,,,,,,,,,,,,,,,,,,,,,,576.0082004,577.0131484,574.2782027,574.2782027,574.2782027,574.2782027,,old_sceneIn_42.png,174,4.0,1.7216717000000017,,008,0,2024-10-02_16h12.43.708,Surprise recog test,2023.1.3,59.859235022913474,
174,0,174,0,,,,,,,,,,,,,,,,,,,,,,,,,,,,,,,,,,,,578.8940916,579.8986358,577.0131484,577.0131484,577.0131484,577.0131484,,old_sceneOut_11.png,175,4.0,1.8728009999999813,,008,0,2024-10-02_16h12.43.708,Surprise recog test,2023.1.3,59.859235022913474,
175,0,175,0,,,,,,,,,,,,,,,,,,,,,,,,,,,,,,,,,,,,581.2291782,582.2342871999999,579.8986358,579.8986358,579.8986358,579.8986358,,new_stationery_7.png,176,3.0,1.3209966000000577,,008,0,2024-10-02_16h12.43.708,Surprise recog test,2023.1.3,59.859235022913474,
176,0,176,0,,,,,,,,,,,,,,,,,,,,,,,,,,,,,,,,,,,,583.1974936,584.2027421,582.2342871999999,582.2342871999999,582.2342871999999,582.2342871999999,,new_fruit_10.png,177,3.0,0.9531720999999607,,008,0,2024-10-02_16h12.43.708,Surprise recog test,2023.1.3,59.859235022913474,
177,0,177,0,,,,,,,,,,,,,,,,,,,,,,,,,,,,,,,,,,,,586.2166955,587.2213037,584.2027421,584.2027421,584.2027421,584.2027421,,new_fruit_30.png,178,1.0,2.0042064000000437,,008,0,2024-10-02_16h12.43.708,Surprise recog test,2023.1.3,59.859235022913474,
178,0,178,0,,,,,,,,,,,,,,,,,,,,,,,,,,,,,,,,,,,,589.2025158,590.2071123,587.2213037,587.2213037,587.2213037,587.2213037,,old_stationery_19.png,179,2.0,1.9707290999999714,,008,0,2024-10-02_16h12.43.708,Surprise recog test,2023.1.3,59.859235022913474,
179,0,179,0,,,,,,,,,,,,,,,,,,,,,,,,,,,,,,,,,,,,591.6045968,592.6093124,590.2071123,590.2071123,590.2071123,590.2071123,,new_sceneOut_8.png,180,4.0,1.3889087999999674,,008,0,2024-10-02_16h12.43.708,Surprise recog test,2023.1.3,59.859235022913474,
180,0,180,0,,,,,,,,,,,,,,,,,,,,,,,,,,,,,,,,,,,,593.5561491999999,594.5618496,592.6093124,592.6093124,592.6093124,592.6093124,,new_sceneOut_29.png,181,4.0,0.9364947000000257,,008,0,2024-10-02_16h12.43.708,Surprise recog test,2023.1.3,59.859235022913474,
181,0,181,0,,,,,,,,,,,,,,,,,,,,,,,,,,,,,,,,,,,,595.908093,596.9128152999999,594.5618496,594.5618496,594.5618496,594.5618496,,new_stationery_14.png,182,3.0,1.3392242999999553,,008,0,2024-10-02_16h12.43.708,Surprise recog test,2023.1.3,59.859235022913474,
182,0,182,0,,,,,,,,,,,,,,,,,,,,,,,,,,,,,,,,,,,,598.2100356,599.2154082,596.9128152999999,596.9128152999999,596.9128152999999,596.9128152999999,,old_fruit_43.png,183,2.0,1.2872237999999925,,008,0,2024-10-02_16h12.43.708,Surprise recog test,2023.1.3,59.859235022913474,
183,0,183,0,,,,,,,,,,,,,,,,,,,,,,,,,,,,,,,,,,,,600.7788319,601.7850708999999,599.2154082,599.2154082,599.2154082,599.2154082,,old_sceneIn_23.png,184,4.0,1.5542539000000488,,008,0,2024-10-02_16h12.43.708,Surprise recog test,2023.1.3,59.859235022913474,
184,0,184,0,,,,,,,,,,,,,,,,,,,,,,,,,,,,,,,,,,,,603.8814161,604.8859198,601.7850708999999,601.7850708999999,601.7850708999999,601.7850708999999,,old_stationery_46.png,185,1.0,2.0874692999999525,,008,0,2024-10-02_16h12.43.708,Surprise recog test,2023.1.3,59.859235022913474,
185,0,185,0,,,,,,,,,,,,,,,,,,,,,,,,,,,,,,,,,,,,607.8847496,608.8904794,604.8859198,604.8859198,604.8859198,604.8859198,,old_stationery_16.png,186,4.0,2.989029100000039,,008,0,2024-10-02_16h12.43.708,Surprise recog test,2023.1.3,59.859235022913474,
186,0,186,0,,,,,,,,,,,,,,,,,,,,,,,,,,,,,,,,,,,,612.4051764,613.4098546,608.8904794,608.8904794,608.8904794,608.8904794,,new_sceneIn_30.png,187,4.0,3.5057021000000077,,008,0,2024-10-02_16h12.43.708,Surprise recog test,2023.1.3,59.859235022913474,
187,0,187,0,,,,,,,,,,,,,,,,,,,,,,,,,,,,,,,,,,,,615.3575519999999,616.3630428,613.4098546,613.4098546,613.4098546,613.4098546,,old_stationery_10.png,188,1.0,1.9372841000000562,,008,0,2024-10-02_16h12.43.708,Surprise recog test,2023.1.3,59.859235022913474,
188,0,188,0,,,,,,,,,,,,,,,,,,,,,,,,,,,,,,,,,,,,617.7429045,618.7486808,616.3630428,616.3630428,616.3630428,616.3630428,,old_stationery_40.png,189,4.0,1.3705147999999099,,008,0,2024-10-02_16h12.43.708,Surprise recog test,2023.1.3,59.859235022913474,
189,0,189,0,,,,,,,,,,,,,,,,,,,,,,,,,,,,,,,,,,,,620.1949111,621.2006408999999,618.7486808,618.7486808,618.7486808,618.7486808,,old_stationery_17.png,190,4.0,1.4368355000000292,,008,0,2024-10-02_16h12.43.708,Surprise recog test,2023.1.3,59.859235022913474,
190,0,190,0,,,,,,,,,,,,,,,,,,,,,,,,,,,,,,,,,,,,622.8971945,623.9021204,621.2006408999999,621.2006408999999,621.2006408999999,621.2006408999999,,old_stationery_34.png,191,1.0,1.687161299999957,,008,0,2024-10-02_16h12.43.708,Surprise recog test,2023.1.3,59.859235022913474,
191,0,191,0,,,,,,,,,,,,,,,,,,,,,,,,,,,,,,,,,,,,625.89973,626.9047687,623.9021204,623.9021204,623.9021204,623.9021204,,new_stationery_11.png,192,4.0,1.9872216999999637,,008,0,2024-10-02_16h12.43.708,Surprise recog test,2023.1.3,59.859235022913474,
192,0,192,0,,,,,,,,,,,,,,,,,,,,,,,,,,,,,,,,,,,,629.0275497,630.0416008999999,626.9047687,626.9047687,626.9047687,626.9047687,,old_sceneIn_48.png,193,4.0,2.116588200000024,,008,0,2024-10-02_16h12.43.708,Surprise recog test,2023.1.3,59.859235022913474,
193,0,193,0,,,,,,,,,,,,,,,,,,,,,,,,,,,,,,,,,,,,631.2874770999999,632.2942628,630.0416008999999,630.0416008999999,630.0416008999999,630.0416008999999,,old_stationery_32.png,194,4.0,1.2404248999999936,,008,0,2024-10-02_16h12.43.708,Surprise recog test,2023.1.3,59.859235022913474,
194,0,194,0,,,,,,,,,,,,,,,,,,,,,,,,,,,,,,,,,,,,633.6770425,,632.2942628,632.2942628,632.2942628,632.2942628,,old_sceneOut_24.png,195,4.0,1.37858319999998,,008,0,2024-10-02_16h12.43.708,Surprise recog test,2023.1.3,59.859235022913474,
195,0,195,0,,,,,,,,,,,,,,,,,,,,,,,,,,,,,,,,,,,,635.6819575999999,636.7097401999999,634.6966461999999,634.6966461999999,634.6966461999999,634.6966461999999,,new_sceneIn_45.png,196,4.0,0.9811625999999478,,008,0,2024-10-02_16h12.43.708,Surprise recog test,2023.1.3,59.859235022913474,
196,0,196,0,,,,,,,,,,,,,,,,,,,,,,,,,,,,,,,,,,,,638.9572142999999,639.9652686,636.7097401999999,636.7097401999999,636.7097401999999,636.7097401999999,,new_fruit_35.png,197,2.0,2.2481430000000273,,008,0,2024-10-02_16h12.43.708,Surprise recog test,2023.1.3,59.859235022913474,
197,0,197,0,,,,,,,,,,,,,,,,,,,,,,,,,,,,,,,,,,,,642.386401,643.4040288,639.9652686,639.9652686,639.9652686,639.9652686,,new_sceneOut_24.png,198,3.0,2.4164812999999867,,008,0,2024-10-02_16h12.43.708,Surprise recog test,2023.1.3,59.859235022913474,
198,0,198,0,,,,,,,,,,,,,,,,,,,,,,,,,,,,,,,,,,,,645.73195,646.7433328999999,643.4040288,643.4040288,643.4040288,643.4040288,,old_sceneIn_27.png,199,3.0,2.323650900000075,,008,0,2024-10-02_16h12.43.708,Surprise recog test,2023.1.3,59.859235022913474,
199,0,199,0,,,,,,,,,,,,,,,,,,,,,,,,,,,,,,,,,,,,648.6723198,,646.7433328999999,646.7433328999999,646.7433328999999,646.7433328999999,,new_sceneIn_27.png,200,4.0,1.9272971000000325,,008,0,2024-10-02_16h12.43.708,Surprise recog test,2023.1.3,59.859235022913474,
200,0,200,0,,,,,,,,,,,,,,,,,,,,,,,,,,,,,,,,,,,,651.9627909999999,652.9878252999999,649.6933564999999,649.6933564999999,649.6933564999999,649.6933564999999,,old_sceneIn_38.png,201,4.0,2.265653899999961,,008,0,2024-10-02_16h12.43.708,Surprise recog test,2023.1.3,59.859235022913474,
201,0,201,0,,,,,,,,,,,,,,,,,,,,,,,,,,,,,,,,,,,,655.9173356,656.9476652999999,652.9878252999999,652.9878252999999,652.9878252999999,652.9878252999999,,old_stationery_25.png,202,3.0,2.9256606999999804,,008,0,2024-10-02_16h12.43.708,Surprise recog test,2023.1.3,59.859235022913474,
202,0,202,0,,,,,,,,,,,,,,,,,,,,,,,,,,,,,,,,,,,,659.3921795,660.4031076,656.9476652999999,656.9476652999999,656.9476652999999,656.9476652999999,,new_sceneIn_31.png,203,4.0,2.447014999999965,,008,0,2024-10-02_16h12.43.708,Surprise recog test,2023.1.3,59.859235022913474,
203,0,203,0,,,,,,,,,,,,,,,,,,,,,,,,,,,,,,,,,,,,662.0694683,663.0926751999999,660.4031076,660.4031076,660.4031076,660.4031076,,new_sceneIn_20.png,204,4.0,1.6621632999999747,,008,0,2024-10-02_16h12.43.708,Surprise recog test,2023.1.3,59.859235022913474,
204,0,204,0,,,,,,,,,,,,,,,,,,,,,,,,,,,,,,,,,,,,664.9454367,665.9690360999999,663.0926751999999,663.0926751999999,663.0926751999999,663.0926751999999,,new_sceneIn_8.png,205,3.0,1.8524644999999964,,008,0,2024-10-02_16h12.43.708,Surprise recog test,2023.1.3,59.859235022913474,
205,0,205,0,,,,,,,,,,,,,,,,,,,,,,,,,,,,,,,,,,,,667.3870966999999,,665.9690360999999,665.9690360999999,665.9690360999999,665.9690360999999,,new_fruit_12.png,206,1.0,1.4192182000001594,,008,0,2024-10-02_16h12.43.708,Surprise recog test,2023.1.3,59.859235022913474,
206,0,206,0,,,,,,,,,,,,,,,,,,,,,,,,,,,,,,,,,,,,671.6875211999999,672.7046449999999,668.4059452999999,668.4059452999999,668.4059452999999,668.4059452999999,,new_stationery_29.png,207,5.0,3.274607999999944,,008,0,2024-10-02_16h12.43.708,Surprise recog test,2023.1.3,59.859235022913474,
207,0,207,0,,,,,,,,,,,,,,,,,,,,,,,,,,,,,,,,,,,,674.3295453,675.3493070999999,672.7046449999999,672.7046449999999,672.7046449999999,672.7046449999999,,old_fruit_28.png,208,1.0,1.6271586000000298,,008,0,2024-10-02_16h12.43.708,Surprise recog test,2023.1.3,59.859235022913474,
208,0,208,0,,,,,,,,,,,,,,,,,,,,,,,,,,,,,,,,,,,,677.8640761,678.8947563,675.3493070999999,675.3493070999999,675.3493070999999,675.3493070999999,,new_stationery_16.png,209,4.0,2.510906800000157,,008,0,2024-10-02_16h12.43.708,Surprise recog test,2023.1.3,59.859235022913474,
209,0,209,0,,,,,,,,,,,,,,,,,,,,,,,,,,,,,,,,,,,,680.865222,,678.8947563,678.8947563,678.8947563,678.8947563,,old_stationery_20.png,210,4.0,1.9694342000000233,,008,0,2024-10-02_16h12.43.708,Surprise recog test,2023.1.3,59.859235022913474,
210,0,210,0,,,,,,,,,,,,,,,,,,,,,,,,,,,,,,,,,,,,686.449704,687.4717543999999,681.8892301,681.8892301,681.8892301,681.8892301,,new_fruit_33.png,211,2.0,4.557911300000114,,008,0,2024-10-02_16h12.43.708,Surprise recog test,2023.1.3,59.859235022913474,
211,0,211,0,,,,,,,,,,,,,,,,,,,,,,,,,,,,,,,,,,,,688.9944234000001,690.0204130000001,687.4717543999999,687.4717543999999,687.4717543999999,687.4717543999999,,old_sceneOut_34.png,212,3.0,1.5255396000000019,,008,0,2024-10-02_16h12.43.708,Surprise recog test,2023.1.3,59.859235022913474,
212,0,212,0,,,,,,,,,,,,,,,,,,,,,,,,,,,,,,,,,,,,691.5924908999999,692.6194179,690.0204130000001,690.0204130000001,690.0204130000001,690.0204130000001,,old_fruit_49.png,213,1.0,1.5711810000000241,,008,0,2024-10-02_16h12.43.708,Surprise recog test,2023.1.3,59.859235022913474,
213,0,213,0,,,,,,,,,,,,,,,,,,,,,,,,,,,,,,,,,,,,694.3472641,695.3772519999999,692.6194179,692.6194179,692.6194179,692.6194179,,old_stationery_28.png,214,3.0,1.7275472000001173,,008,0,2024-10-02_16h12.43.708,Surprise recog test,2023.1.3,59.859235022913474,
214,0,214,0,,,,,,,,,,,,,,,,,,,,,,,,,,,,,,,,,,,,697.9626331999999,,695.3772519999999,695.3772519999999,695.3772519999999,695.3772519999999,,old_fruit_50.png,215,2.0,2.585318900000175,,008,0,2024-10-02_16h12.43.708,Surprise recog test,2023.1.3,59.859235022913474,
215,0,215,0,,,,,,,,,,,,,,,,,,,,,,,,,,,,,,,,,,,,700.7910857,701.8048580999999,698.9819704999999,698.9819704999999,698.9819704999999,698.9819704999999,,new_sceneOut_39.png,216,4.0,1.8063525000000027,,008,0,2024-10-02_16h12.43.708,Surprise recog test,2023.1.3,59.859235022913474,
216,0,216,0,,,,,,,,,,,,,,,,,,,,,,,,,,,,,,,,,,,,703.9329217000001,704.9382248000001,701.8048580999999,701.8048580999999,701.8048580999999,701.8048580999999,,old_stationery_9.png,217,2.0,2.123674999999821,,008,0,2024-10-02_16h12.43.708,Surprise recog test,2023.1.3,59.859235022913474,
217,0,217,0,,,,,,,,,,,,,,,,,,,,,,,,,,,,,,,,,,,,707.2340978999999,708.2526161,704.9382248000001,704.9382248000001,704.9382248000001,704.9382248000001,,new_fruit_19.png,218,3.0,2.291395100000045,,008,0,2024-10-02_16h12.43.708,Surprise recog test,2023.1.3,59.859235022913474,
218,0,218,0,,,,,,,,,,,,,,,,,,,,,,,,,,,,,,,,,,,,710.5046956,711.5175026999999,708.2526161,708.2526161,708.2526161,708.2526161,,new_fruit_49.png,219,2.0,2.253570299999865,,008,0,2024-10-02_16h12.43.708,Surprise recog test,2023.1.3,59.859235022913474,
219,0,219,0,,,,,,,,,,,,,,,,,,,,,,,,,,,,,,,,,,,,712.6151097999999,713.6395398999999,711.5175026999999,711.5175026999999,711.5175026999999,711.5175026999999,,new_fruit_15.png,220,2.0,1.0987427000000025,,008,0,2024-10-02_16h12.43.708,Surprise recog test,2023.1.3,59.859235022913474,
220,0,220,0,,,,,,,,,,,,,,,,,,,,,,,,,,,,,,,,,,,,714.8240883,715.8405569999999,713.6395398999999,713.6395398999999,713.6395398999999,713.6395398999999,,new_stationery_4.png,221,3.0,1.1873599000000468,,008,0,2024-10-02_16h12.43.708,Surprise recog test,2023.1.3,59.859235022913474,
221,0,221,0,,,,,,,,,,,,,,,,,,,,,,,,,,,,,,,,,,,,717.1690459999999,718.1951664,715.8405569999999,715.8405569999999,715.8405569999999,715.8405569999999,,new_fruit_47.png,222,4.0,1.3280868000001647,,008,0,2024-10-02_16h12.43.708,Surprise recog test,2023.1.3,59.859235022913474,
222,0,222,0,,,,,,,,,,,,,,,,,,,,,,,,,,,,,,,,,,,,720.3371851999999,721.3546961999999,718.1951664,718.1951664,718.1951664,718.1951664,,old_stationery_21.png,223,1.0,2.141236499999877,,008,0,2024-10-02_16h12.43.708,Surprise recog test,2023.1.3,59.859235022913474,
223,0,223,0,,,,,,,,,,,,,,,,,,,,,,,,,,,,,,,,,,,,722.8020389,723.8247640000001,721.3546961999999,721.3546961999999,721.3546961999999,721.3546961999999,,new_fruit_42.png,224,4.0,1.4451208999998926,,008,0,2024-10-02_16h12.43.708,Surprise recog test,2023.1.3,59.859235022913474,
224,0,224,0,,,,,,,,,,,,,,,,,,,,,,,,,,,,,,,,,,,,724.9511964,,723.8247640000001,723.8247640000001,723.8247640000001,723.8247640000001,,new_sceneOut_4.png,225,4.0,1.1261414999999033,,008,0,2024-10-02_16h12.43.708,Surprise recog test,2023.1.3,59.859235022913474,
225,0,225,0,,,,,,,,,,,,,,,,,,,,,,,,,,,,,,,,,,,,727.6432025,728.6721822000001,725.987921,725.987921,725.987921,725.987921,,new_sceneIn_36.png,226,3.0,1.6563219000001936,,008,0,2024-10-02_16h12.43.708,Surprise recog test,2023.1.3,59.859235022913474,
226,0,226,0,,,,,,,,,,,,,,,,,,,,,,,,,,,,,,,,,,,,730.1025974,731.125197,728.6721822000001,728.6721822000001,728.6721822000001,728.6721822000001,,old_fruit_4.png,227,4.0,1.4313180999999986,,008,0,2024-10-02_16h12.43.708,Surprise recog test,2023.1.3,59.859235022913474,
227,0,227,0,,,,,,,,,,,,,,,,,,,,,,,,,,,,,,,,,,,,733.1120817,734.1382176999999,731.125197,731.125197,731.125197,731.125197,,new_fruit_17.png,228,4.0,1.9888989000000947,,008,0,2024-10-02_16h12.43.708,Surprise recog test,2023.1.3,59.859235022913474,
228,0,228,0,,,,,,,,,,,,,,,,,,,,,,,,,,,,,,,,,,,,736.4699600999999,737.4980216999999,734.1382176999999,734.1382176999999,734.1382176999999,734.1382176999999,,new_sceneOut_31.png,229,3.0,2.3313757000000805,,008,0,2024-10-02_16h12.43.708,Surprise recog test,2023.1.3,59.859235022913474,
229,0,229,0,,,,,,,,,,,,,,,,,,,,,,,,,,,,,,,,,,,,739.1057689,740.1322019,737.4980216999999,737.4980216999999,737.4980216999999,737.4980216999999,,new_sceneIn_48.png,230,3.0,1.6099311000000398,,008,0,2024-10-02_16h12.43.708,Surprise recog test,2023.1.3,59.859235022913474,
230,0,230,0,,,,,,,,,,,,,,,,,,,,,,,,,,,,,,,,,,,,741.8627808,742.8725897,740.1322019,740.1322019,740.1322019,740.1322019,,new_stationery_35.png,231,1.0,1.7270885000000362,,008,0,2024-10-02_16h12.43.708,Surprise recog test,2023.1.3,59.859235022913474,
231,0,231,0,,,,,,,,,,,,,,,,,,,,,,,,,,,,,,,,,,,,744.5401473999999,745.5683134,742.8725897,742.8725897,742.8725897,742.8725897,,old_stationery_30.png,232,2.0,1.666724499999873,,008,0,2024-10-02_16h12.43.708,Surprise recog test,2023.1.3,59.859235022913474,
232,0,232,0,,,,,,,,,,,,,,,,,,,,,,,,,,,,,,,,,,,,746.7037283999999,,745.5683134,745.5683134,745.5683134,745.5683134,,new_sceneIn_43.png,233,2.0,1.1357837999998992,,008,0,2024-10-02_16h12.43.708,Surprise recog test,2023.1.3,59.859235022913474,
233,0,233,0,,,,,,,,,,,,,,,,,,,,,,,,,,,,,,,,,,,,749.7497376,750.7710942,747.7345337999999,747.7345337999999,747.7345337999999,747.7345337999999,,old_sceneIn_49.png,234,4.0,2.014838800000007,,008,0,2024-10-02_16h12.43.708,Surprise recog test,2023.1.3,59.859235022913474,
234,0,234,0,,,,,,,,,,,,,,,,,,,,,,,,,,,,,,,,,,,,752.3147886999999,753.3411144999999,750.7710942,750.7710942,750.7710942,750.7710942,,new_stationery_39.png,235,4.0,1.543985799999973,,008,0,2024-10-02_16h12.43.708,Surprise recog test,2023.1.3,59.859235022913474,
235,0,235,0,,,,,,,,,,,,,,,,,,,,,,,,,,,,,,,,,,,,754.4266481999999,,753.3411144999999,753.3411144999999,753.3411144999999,753.3411144999999,,new_stationery_41.png,236,4.0,1.0870668000000023,,008,0,2024-10-02_16h12.43.708,Surprise recog test,2023.1.3,59.859235022913474,
236,0,236,0,,,,,,,,,,,,,,,,,,,,,,,,,,,,,,,,,,,,756.8391782,757.8640262999999,755.4479408000001,755.4479408000001,755.4479408000001,755.4479408000001,,old_stationery_36.png,237,3.0,1.3868629000000965,,008,0,2024-10-02_16h12.43.708,Surprise recog test,2023.1.3,59.859235022913474,
237,0,237,0,,,,,,,,,,,,,,,,,,,,,,,,,,,,,,,,,,,,758.9485888,,757.8640262999999,757.8640262999999,757.8640262999999,757.8640262999999,,old_stationery_26.png,238,3.0,1.0875311000002057,,008,0,2024-10-02_16h12.43.708,Surprise recog test,2023.1.3,59.859235022913474,
238,0,238,0,,,,,,,,,,,,,,,,,,,,,,,,,,,,,,,,,,,,762.2797112,763.2842152,759.9813284,759.9813284,759.9813284,759.9813284,,new_sceneOut_5.png,239,4.0,2.2978255999998964,,008,0,2024-10-02_16h12.43.708,Surprise recog test,2023.1.3,59.859235022913474,
239,0,239,0,,,,,,,,,,,,,,,,,,,,,,,,,,,,,,,,,,,,765.3323856999999,766.3370415999999,763.2842152,763.2842152,763.2842152,763.2842152,,new_fruit_29.png,240,2.0,2.0374224999998205,,008,0,2024-10-02_16h12.43.708,Surprise recog test,2023.1.3,59.859235022913474,
240,0,240,0,,,,,,,,,,,,,,,,,,,,,,,,,,,,,,,,,,,,768.7016568999999,769.706849,766.3370415999999,766.3370415999999,766.3370415999999,766.3370415999999,,new_fruit_21.png,241,1.0,2.355647699999963,,008,0,2024-10-02_16h12.43.708,Surprise recog test,2023.1.3,59.859235022913474,
241,0,241,0,,,,,,,,,,,,,,,,,,,,,,,,,,,,,,,,,,,,771.8165915000001,772.8294735999999,769.706849,769.706849,769.706849,769.706849,,new_fruit_24.png,242,5.0,2.103755599999886,,008,0,2024-10-02_16h12.43.708,Surprise recog test,2023.1.3,59.859235022913474,
242,0,242,0,,,,,,,,,,,,,,,,,,,,,,,,,,,,,,,,,,,,775.092395,,772.8294735999999,772.8294735999999,772.8294735999999,772.8294735999999,,old_stationery_29.png,243,1.0,2.2560832000001483,,008,0,2024-10-02_16h12.43.708,Surprise recog test,2023.1.3,59.859235022913474,
243,0,243,0,,,,,,,,,,,,,,,,,,,,,,,,,,,,,,,,,,,,777.6465245999999,,776.1136123,776.1136123,776.1136123,776.1136123,,old_sceneOut_15.png,244,4.0,1.5268940999999359,,008,0,2024-10-02_16h12.43.708,Surprise recog test,2023.1.3,59.859235022913474,
244,0,244,0,,,,,,,,,,,,,,,,,,,,,,,,,,,,,,,,,,,,780.4782816999999,781.4840851,778.6657035,778.6657035,778.6657035,778.6657035,,new_fruit_1.png,245,1.0,1.8080588000000262,,008,0,2024-10-02_16h12.43.708,Surprise recog test,2023.1.3,59.859235022913474,
245,0,245,0,,,,,,,,,,,,,,,,,,,,,,,,,,,,,,,,,,,,783.5536670999999,784.5723219999999,781.4840851,781.4840851,781.4840851,781.4840851,,old_sceneOut_9.png,246,4.0,2.0621527000000697,,008,0,2024-10-02_16h12.43.708,Surprise recog test,2023.1.3,59.859235022913474,
246,0,246,0,,,,,,,,,,,,,,,,,,,,,,,,,,,,,,,,,,,,787.3951430999999,788.4108198,784.5723219999999,784.5723219999999,784.5723219999999,784.5723219999999,,old_sceneOut_48.png,247,4.0,2.8181772000000365,,008,0,2024-10-02_16h12.43.708,Surprise recog test,2023.1.3,59.859235022913474,
247,0,247,0,,,,,,,,,,,,,,,,,,,,,,,,,,,,,,,,,,,,790.0684439999999,791.0753788999999,788.4108198,788.4108198,788.4108198,788.4108198,,old_stationery_1.png,248,2.0,1.6557287000000542,,008,0,2024-10-02_16h12.43.708,Surprise recog test,2023.1.3,59.859235022913474,
248,0,248,0,,,,,,,,,,,,,,,,,,,,,,,,,,,,,,,,,,,,794.1895079,795.1943439999999,791.0753788999999,791.0753788999999,791.0753788999999,791.0753788999999,,new_sceneIn_4.png,249,4.0,3.105892600000061,,008,0,2024-10-02_16h12.43.708,Surprise recog test,2023.1.3,59.859235022913474,
249,0,249,0,,,,,,,,,,,,,,,,,,,,,,,,,,,,,,,,,,,,796.4414286,797.4464291,795.1943439999999,795.1943439999999,795.1943439999999,795.1943439999999,,new_fruit_11.png,250,4.0,1.2371335000000272,,008,0,2024-10-02_16h12.43.708,Surprise recog test,2023.1.3,59.859235022913474,
250,0,250,0,,,,,,,,,,,,,,,,,,,,,,,,,,,,,,,,,,,,799.1771024999999,800.1822252999999,797.4464291,797.4464291,797.4464291,797.4464291,,old_stationery_23.png,251,4.0,1.7206639000000905,,008,0,2024-10-02_16h12.43.708,Surprise recog test,2023.1.3,59.859235022913474,
251,0,251,0,,,,,,,,,,,,,,,,,,,,,,,,,,,,,,,,,,,,801.6957693,802.7005578,800.1822252999999,800.1822252999999,800.1822252999999,800.1822252999999,,new_fruit_39.png,252,2.0,1.5036087999999381,,008,0,2024-10-02_16h12.43.708,Surprise recog test,2023.1.3,59.859235022913474,
252,0,252,0,,,,,,,,,,,,,,,,,,,,,,,,,,,,,,,,,,,,804.3980419000001,805.4038436,802.7005578,802.7005578,802.7005578,802.7005578,,old_sceneIn_26.png,253,4.0,1.6885698000000957,,008,0,2024-10-02_16h12.43.708,Surprise recog test,2023.1.3,59.859235022913474,
253,0,253,0,,,,,,,,,,,,,,,,,,,,,,,,,,,,,,,,,,,,807.3181086000001,808.323209,805.4038436,805.4038436,805.4038436,805.4038436,,new_sceneOut_17.png,254,4.0,1.9099246999999195,,008,0,2024-10-02_16h12.43.708,Surprise recog test,2023.1.3,59.859235022913474,
254,0,254,0,,,,,,,,,,,,,,,,,,,,,,,,,,,,,,,,,,,,810.5033546999999,811.5095823,808.323209,808.323209,808.323209,808.323209,,new_stationery_34.png,255,1.0,2.1766534999999294,,008,0,2024-10-02_16h12.43.708,Surprise recog test,2023.1.3,59.859235022913474,
255,0,255,0,,,,,,,,,,,,,,,,,,,,,,,,,,,,,,,,,,,,813.2135651,814.2452654,811.5095823,811.5095823,811.5095823,811.5095823,,old_sceneIn_35.png,256,3.0,1.6986958999998478,,008,0,2024-10-02_16h12.43.708,Surprise recog test,2023.1.3,59.859235022913474,
256,0,256,0,,,,,,,,,,,,,,,,,,,,,,,,,,,,,,,,,,,,815.5830106,816.6053579000001,814.2452654,814.2452654,814.2452654,814.2452654,,old_fruit_3.png,257,3.0,1.3404511999999613,,008,0,2024-10-02_16h12.43.708,Surprise recog test,2023.1.3,59.859235022913474,
257,0,257,0,,,,,,,,,,,,,,,,,,,,,,,,,,,,,,,,,,,,817.8093256000001,818.8178961,816.6053579000001,816.6053579000001,816.6053579000001,816.6053579000001,,new_stationery_31.png,258,3.0,1.204112699999996,,008,0,2024-10-02_16h12.43.708,Surprise recog test,2023.1.3,59.859235022913474,
258,0,258,0,,,,,,,,,,,,,,,,,,,,,,,,,,,,,,,,,,,,820.5872344,821.617914,818.8178961,818.8178961,818.8178961,818.8178961,,old_stationery_50.png,259,1.0,1.7652401999998801,,008,0,2024-10-02_16h12.43.708,Surprise recog test,2023.1.3,59.859235022913474,
259,0,259,0,,,,,,,,,,,,,,,,,,,,,,,,,,,,,,,,,,,,823.9593188,824.9780251000001,821.617914,821.617914,821.617914,821.617914,,new_stationery_20.png,260,4.0,2.344489099999919,,008,0,2024-10-02_16h12.43.708,Surprise recog test,2023.1.3,59.859235022913474,
260,0,260,0,,,,,,,,,,,,,,,,,,,,,,,,,,,,,,,,,,,,826.5834076,827.6032094000001,824.9780251000001,824.9780251000001,824.9780251000001,824.9780251000001,,old_stationery_3.png,261,1.0,1.599202699999978,,008,0,2024-10-02_16h12.43.708,Surprise recog test,2023.1.3,59.859235022913474,
261,0,261,0,,,,,,,,,,,,,,,,,,,,,,,,,,,,,,,,,,,,828.849482,829.8738198,827.6032094000001,827.6032094000001,827.6032094000001,827.6032094000001,,old_fruit_34.png,262,1.0,1.2480021999999735,,008,0,2024-10-02_16h12.43.708,Surprise recog test,2023.1.3,59.859235022913474,
262,0,262,0,,,,,,,,,,,,,,,,,,,,,,,,,,,,,,,,,,,,831.6812798,832.7077853,829.8738198,829.8738198,829.8738198,829.8738198,,old_sceneOut_20.png,263,4.0,1.8099403999999595,,008,0,2024-10-02_16h12.43.708,Surprise recog test,2023.1.3,59.859235022913474,
263,0,263,0,,,,,,,,,,,,,,,,,,,,,,,,,,,,,,,,,,,,834.4648693,835.4902417,832.7077853,832.7077853,832.7077853,832.7077853,,old_fruit_15.png,264,1.0,1.7585229999999683,,008,0,2024-10-02_16h12.43.708,Surprise recog test,2023.1.3,59.859235022913474,
264,0,264,0,,,,,,,,,,,,,,,,,,,,,,,,,,,,,,,,,,,,837.3254959,838.3461446,835.4902417,835.4902417,835.4902417,835.4902417,,old_sceneOut_36.png,265,4.0,1.8332915000000867,,008,0,2024-10-02_16h12.43.708,Surprise recog test,2023.1.3,59.859235022913474,
265,0,265,0,,,,,,,,,,,,,,,,,,,,,,,,,,,,,,,,,,,,839.4969104,,838.3461446,838.3461446,838.3461446,838.3461446,,old_sceneOut_45.png,266,4.0,1.1494669999999587,,008,0,2024-10-02_16h12.43.708,Surprise recog test,2023.1.3,59.859235022913474,
266,0,266,0,,,,,,,,,,,,,,,,,,,,,,,,,,,,,,,,,,,,842.3641497,843.3833073,840.5341571999999,840.5341571999999,840.5341571999999,840.5341571999999,,old_fruit_47.png,267,1.0,1.832726300000104,,008,0,2024-10-02_16h12.43.708,Surprise recog test,2023.1.3,59.859235022913474,
267,0,267,0,,,,,,,,,,,,,,,,,,,,,,,,,,,,,,,,,,,,845.2796433,846.2972745000001,843.3833073,843.3833073,843.3833073,843.3833073,,new_sceneIn_39.png,268,4.0,1.8974945999998454,,008,0,2024-10-02_16h12.43.708,Surprise recog test,2023.1.3,59.859235022913474,
268,0,268,0,,,,,,,,,,,,,,,,,,,,,,,,,,,,,,,,,,,,847.9529153,848.9737511,846.2972745000001,846.2972745000001,846.2972745000001,846.2972745000001,,new_sceneOut_13.png,269,4.0,1.6548073999999815,,008,0,2024-10-02_16h12.43.708,Surprise recog test,2023.1.3,59.859235022913474,
269,0,269,0,,,,,,,,,,,,,,,,,,,,,,,,,,,,,,,,,,,,851.5771501999999,852.5978650000001,848.9737511,848.9737511,848.9737511,848.9737511,,old_sceneOut_13.png,270,4.0,2.606284599999981,,008,0,2024-10-02_16h12.43.708,Surprise recog test,2023.1.3,59.859235022913474,
270,0,270,0,,,,,,,,,,,,,,,,,,,,,,,,,,,,,,,,,,,,854.4868390999999,855.5104614999999,852.5978650000001,852.5978650000001,852.5978650000001,852.5978650000001,,new_fruit_16.png,271,1.0,1.886689400000023,,008,0,2024-10-02_16h12.43.708,Surprise recog test,2023.1.3,59.859235022913474,
271,0,271,0,,,,,,,,,,,,,,,,,,,,,,,,,,,,,,,,,,,,857.3396511,858.3623974000001,855.5104614999999,855.5104614999999,855.5104614999999,855.5104614999999,,old_stationery_48.png,272,1.0,1.8274150999998255,,008,0,2024-10-02_16h12.43.708,Surprise recog test,2023.1.3,59.859235022913474,
272,0,272,0,,,,,,,,,,,,,,,,,,,,,,,,,,,,,,,,,,,,859.219506,860.2485404,858.3623974000001,858.3623974000001,858.3623974000001,858.3623974000001,,new_stationery_2.png,273,1.0,0.857914300000175,,008,0,2024-10-02_16h12.43.708,Surprise recog test,2023.1.3,59.859235022913474,
273,0,273,0,,,,,,,,,,,,,,,,,,,,,,,,,,,,,,,,,,,,861.8625837000001,862.8727187999999,860.2485404,860.2485404,860.2485404,860.2485404,,old_sceneIn_1.png,274,4.0,1.6108449000000746,,008,0,2024-10-02_16h12.43.708,Surprise recog test,2023.1.3,59.859235022913474,
274,0,274,0,,,,,,,,,,,,,,,,,,,,,,,,,,,,,,,,,,,,864.5868816000001,865.6065674999999,862.8727187999999,862.8727187999999,862.8727187999999,862.8727187999999,,old_sceneIn_30.png,275,4.0,1.7100687999998172,,008,0,2024-10-02_16h12.43.708,Surprise recog test,2023.1.3,59.859235022913474,
275,0,275,0,,,,,,,,,,,,,,,,,,,,,,,,,,,,,,,,,,,,868.1550077999999,,865.6065674999999,865.6065674999999,865.6065674999999,865.6065674999999,,old_sceneOut_25.png,276,4.0,2.544078799999852,,008,0,2024-10-02_16h12.43.708,Surprise recog test,2023.1.3,59.859235022913474,
276,0,276,0,,,,,,,,,,,,,,,,,,,,,,,,,,,,,,,,,,,,871.4644608,872.4926930999999,869.1850358,869.1850358,869.1850358,869.1850358,,old_sceneOut_17.png,277,2.0,2.281908700000031,,008,0,2024-10-02_16h12.43.708,Surprise recog test,2023.1.3,59.859235022913474,
277,0,277,0,,,,,,,,,,,,,,,,,,,,,,,,,,,,,,,,,,,,873.6505601,874.6747369000001,872.4926930999999,872.4926930999999,872.4926930999999,872.4926930999999,,new_sceneOut_9.png,278,1.0,1.1606391000000258,,008,0,2024-10-02_16h12.43.708,Surprise recog test,2023.1.3,59.859235022913474,
278,0,278,0,,,,,,,,,,,,,,,,,,,,,,,,,,,,,,,,,,,,876.552468,877.565757,874.6747369000001,874.6747369000001,874.6747369000001,874.6747369000001,,new_sceneIn_6.png,279,4.0,1.877136500000006,,008,0,2024-10-02_16h12.43.708,Surprise recog test,2023.1.3,59.859235022913474,
279,0,279,0,,,,,,,,,,,,,,,,,,,,,,,,,,,,,,,,,,,,879.1498662,880.1687392,877.565757,877.565757,877.565757,877.565757,,old_fruit_2.png,280,1.0,1.5801962000000458,,008,0,2024-10-02_16h12.43.708,Surprise recog test,2023.1.3,59.859235022913474,
280,0,280,0,,,,,,,,,,,,,,,,,,,,,,,,,,,,,,,,,,,,881.7715778,882.7983794,880.1687392,880.1687392,880.1687392,880.1687392,,old_sceneOut_42.png,281,4.0,1.5982237999999143,,008,0,2024-10-02_16h12.43.708,Surprise recog test,2023.1.3,59.859235022913474,
281,0,281,0,,,,,,,,,,,,,,,,,,,,,,,,,,,,,,,,,,,,885.0218919,886.0509900000001,882.7983794,882.7983794,882.7983794,882.7983794,,new_sceneIn_44.png,282,4.0,2.2236488999999438,,008,0,2024-10-02_16h12.43.708,Surprise recog test,2023.1.3,59.859235022913474,
282,0,282,0,,,,,,,,,,,,,,,,,,,,,,,,,,,,,,,,,,,,887.8938751,888.9198872000001,886.0509900000001,886.0509900000001,886.0509900000001,886.0509900000001,,old_sceneIn_39.png,283,1.0,1.8437618000000384,,008,0,2024-10-02_16h12.43.708,Surprise recog test,2023.1.3,59.859235022913474,
283,0,283,0,,,,,,,,,,,,,,,,,,,,,,,,,,,,,,,,,,,,891.8923841,892.9186982,888.9198872000001,888.9198872000001,888.9198872000001,888.9198872000001,,new_sceneOut_21.png,284,2.0,2.9742777999999817,,008,0,2024-10-02_16h12.43.708,Surprise recog test,2023.1.3,59.859235022913474,
284,0,284,0,,,,,,,,,,,,,,,,,,,,,,,,,,,,,,,,,,,,894.5241559,895.5388018,892.9186982,892.9186982,892.9186982,892.9186982,,old_fruit_10.png,285,1.0,1.6033058999998957,,008,0,2024-10-02_16h12.43.708,Surprise recog test,2023.1.3,59.859235022913474,
285,0,285,0,,,,,,,,,,,,,,,,,,,,,,,,,,,,,,,,,,,,896.5299315999999,897.5579870999999,895.5388018,895.5388018,895.5388018,895.5388018,,old_fruit_35.png,286,1.0,0.9936106000000109,,008,0,2024-10-02_16h12.43.708,Surprise recog test,2023.1.3,59.859235022913474,
286,0,286,0,,,,,,,,,,,,,,,,,,,,,,,,,,,,,,,,,,,,899.2195986999999,900.2413465000001,897.5579870999999,897.5579870999999,897.5579870999999,897.5579870999999,,new_stationery_26.png,287,4.0,1.6573675000001913,,008,0,2024-10-02_16h12.43.708,Surprise recog test,2023.1.3,59.859235022913474,
287,0,287,0,,,,,,,,,,,,,,,,,,,,,,,,,,,,,,,,,,,,903.4160105,,900.2413465000001,900.2413465000001,900.2413465000001,900.2413465000001,,old_sceneIn_34.png,288,3.0,3.1752744999998868,,008,0,2024-10-02_16h12.43.708,Surprise recog test,2023.1.3,59.859235022913474,
288,0,288,0,,,,,,,,,,,,,,,,,,,,,,,,,,,,,,,,,,,,906.0514803,,904.447125,904.447125,904.447125,904.447125,,new_fruit_20.png,289,1.0,1.6012842000000092,,008,0,2024-10-02_16h12.43.708,Surprise recog test,2023.1.3,59.859235022913474,
289,0,289,0,,,,,,,,,,,,,,,,,,,,,,,,,,,,,,,,,,,,908.5847643000001,909.6056981,907.0840734,907.0840734,907.0840734,907.0840734,,new_sceneIn_25.png,290,4.0,1.4972413000000415,,008,0,2024-10-02_16h12.43.708,Surprise recog test,2023.1.3,59.859235022913474,
290,0,290,0,,,,,,,,,,,,,,,,,,,,,,,,,,,,,,,,,,,,910.7600956,911.7890386,909.6056981,909.6056981,909.6056981,909.6056981,,old_sceneOut_50.png,291,4.0,1.1566848999998456,,008,0,2024-10-02_16h12.43.708,Surprise recog test,2023.1.3,59.859235022913474,
291,0,291,0,,,,,,,,,,,,,,,,,,,,,,,,,,,,,,,,,,,,913.4337171999999,914.4615433999999,911.7890386,911.7890386,911.7890386,911.7890386,,old_sceneIn_36.png,292,4.0,1.646114599999919,,008,0,2024-10-02_16h12.43.708,Surprise recog test,2023.1.3,59.859235022913474,
292,0,292,0,,,,,,,,,,,,,,,,,,,,,,,,,,,,,,,,,,,,916.7246051999999,917.7468783,914.4615433999999,914.4615433999999,914.4615433999999,914.4615433999999,,old_sceneIn_41.png,293,3.0,2.2613976000000093,,008,0,2024-10-02_16h12.43.708,Surprise recog test,2023.1.3,59.859235022913474,
293,0,293,0,,,,,,,,,,,,,,,,,,,,,,,,,,,,,,,,,,,,919.532053,920.5658789,917.7468783,917.7468783,917.7468783,917.7468783,,new_fruit_5.png,294,1.0,1.7877822000000378,,008,0,2024-10-02_16h12.43.708,Surprise recog test,2023.1.3,59.859235022913474,
294,0,294,0,,,,,,,,,,,,,,,,,,,,,,,,,,,,,,,,,,,,922.1296619000001,923.1390553,920.5658789,920.5658789,920.5658789,920.5658789,,new_sceneOut_23.png,295,4.0,1.5662800000000061,,008,0,2024-10-02_16h12.43.708,Surprise recog test,2023.1.3,59.859235022913474,
295,0,295,0,,,,,,,,,,,,,,,,,,,,,,,,,,,,,,,,,,,,924.8566173,925.8807298,923.1390553,923.1390553,923.1390553,923.1390553,,old_sceneOut_12.png,296,3.0,1.7132656999999654,,008,0,2024-10-02_16h12.43.708,Surprise recog test,2023.1.3,59.859235022913474,
296,0,296,0,,,,,,,,,,,,,,,,,,,,,,,,,,,,,,,,,,,,927.1207436999999,,925.8807298,925.8807298,925.8807298,925.8807298,,new_sceneIn_37.png,297,2.0,1.2379940999999235,,008,0,2024-10-02_16h12.43.708,Surprise recog test,2023.1.3,59.859235022913474,
297,0,297,0,,,,,,,,,,,,,,,,,,,,,,,,,,,,,,,,,,,,929.435425,930.4572892,928.1562233999999,928.1562233999999,928.1562233999999,928.1562233999999,,new_fruit_38.png,298,1.0,1.2800070999999207,,008,0,2024-10-02_16h12.43.708,Surprise recog test,2023.1.3,59.859235022913474,
298,0,298,0,,,,,,,,,,,,,,,,,,,,,,,,,,,,,,,,,,,,932.7194324000001,933.7438162,930.4572892,930.4572892,930.4572892,930.4572892,,old_sceneIn_28.png,299,4.0,2.263390300000083,,008,0,2024-10-02_16h12.43.708,Surprise recog test,2023.1.3,59.859235022913474,
299,0,299,0,,,,,,,,,,,,,,,,,,,,,,,,,,,,,,,,,,,,935.2226416,936.2295644,933.7438162,933.7438162,933.7438162,933.7438162,,new_sceneOut_47.png,300,4.0,1.4809205999999904,,008,0,2024-10-02_16h12.43.708,Surprise recog test,2023.1.3,59.859235022913474,
300,0,300,0,,,,,,,,,,,,,,,,,,,,,,,,,,,,,,,,,,,,937.9197078999999,938.9465231999999,936.2295644,936.2295644,936.2295644,936.2295644,,new_fruit_7.png,301,4.0,1.6860639999999876,,008,0,2024-10-02_16h12.43.708,Surprise recog test,2023.1.3,59.859235022913474,
301,0,301,0,,,,,,,,,,,,,,,,,,,,,,,,,,,,,,,,,,,,940.1650708000001,,938.9465231999999,938.9465231999999,938.9465231999999,938.9465231999999,,old_fruit_46.png,302,4.0,1.2210387999998602,,008,0,2024-10-02_16h12.43.708,Surprise recog test,2023.1.3,59.859235022913474,
302,0,302,0,,,,,,,,,,,,,,,,,,,,,,,,,,,,,,,,,,,,943.4276074999999,944.450309,941.1963158,941.1963158,941.1963158,941.1963158,,new_sceneIn_46.png,303,2.0,2.233194600000161,,008,0,2024-10-02_16h12.43.708,Surprise recog test,2023.1.3,59.859235022913474,
303,0,303,0,,,,,,,,,,,,,,,,,,,,,,,,,,,,,,,,,,,,946.3175381,947.3365674999999,944.450309,944.450309,944.450309,944.450309,,new_fruit_25.png,304,2.0,1.869343100000151,,008,0,2024-10-02_16h12.43.708,Surprise recog test,2023.1.3,59.859235022913474,
304,0,304,0,,,,,,,,,,,,,,,,,,,,,,,,,,,,,,,,,,,,948.7563253,949.7861202,947.3365674999999,947.3365674999999,947.3365674999999,947.3365674999999,,old_fruit_21.png,305,1.0,1.421815400000014,,008,0,2024-10-02_16h12.43.708,Surprise recog test,2023.1.3,59.859235022913474,
305,0,305,0,,,,,,,,,,,,,,,,,,,,,,,,,,,,,,,,,,,,951.2409776999999,,949.7861202,949.7861202,949.7861202,949.7861202,,new_sceneOut_32.png,306,4.0,1.4534146000000874,,008,0,2024-10-02_16h12.43.708,Surprise recog test,2023.1.3,59.859235022913474,
306,0,306,0,,,,,,,,,,,,,,,,,,,,,,,,,,,,,,,,,,,,953.7570041,954.7771415999999,952.2709601,952.2709601,952.2709601,952.2709601,,old_fruit_40.png,307,3.0,1.4763015000000905,,008,0,2024-10-02_16h12.43.708,Surprise recog test,2023.1.3,59.859235022913474,
307,0,307,0,,,,,,,,,,,,,,,,,,,,,,,,,,,,,,,,,,,,956.9474915,957.9664767999999,954.7771415999999,954.7771415999999,954.7771415999999,954.7771415999999,,old_fruit_48.png,308,1.0,2.1731735000000754,,008,0,2024-10-02_16h12.43.708,Surprise recog test,2023.1.3,59.859235022913474,
308,0,308,0,,,,,,,,,,,,,,,,,,,,,,,,,,,,,,,,,,,,959.6952278,960.7137271,957.9664767999999,957.9664767999999,957.9664767999999,957.9664767999999,,new_stationery_32.png,309,4.0,1.7246443999999883,,008,0,2024-10-02_16h12.43.708,Surprise recog test,2023.1.3,59.859235022913474,
309,0,309,0,,,,,,,,,,,,,,,,,,,,,,,,,,,,,,,,,,,,962.6210508,963.6393046,960.7137271,960.7137271,960.7137271,960.7137271,,old_stationery_7.png,310,1.0,1.9066718000001401,,008,0,2024-10-02_16h12.43.708,Surprise recog test,2023.1.3,59.859235022913474,
310,0,310,0,,,,,,,,,,,,,,,,,,,,,,,,,,,,,,,,,,,,965.0570348,966.0739835,963.6393046,963.6393046,963.6393046,963.6393046,,old_sceneOut_32.png,311,4.0,1.4112679000002117,,008,0,2024-10-02_16h12.43.708,Surprise recog test,2023.1.3,59.859235022913474,
311,0,311,0,,,,,,,,,,,,,,,,,,,,,,,,,,,,,,,,,,,,967.8461197999999,968.8722475999999,966.0739835,966.0739835,966.0739835,966.0739835,,new_sceneOut_11.png,312,4.0,1.7654614000000493,,008,0,2024-10-02_16h12.43.708,Surprise recog test,2023.1.3,59.859235022913474,
312,0,312,0,,,,,,,,,,,,,,,,,,,,,,,,,,,,,,,,,,,,970.4799231999999,971.5063071999999,968.8722475999999,968.8722475999999,968.8722475999999,968.8722475999999,,old_fruit_5.png,313,1.0,1.6091606999998476,,008,0,2024-10-02_16h12.43.708,Surprise recog test,2023.1.3,59.859235022913474,
313,0,313,0,,,,,,,,,,,,,,,,,,,,,,,,,,,,,,,,,,,,974.1854026,975.1977135999999,971.5063071999999,971.5063071999999,971.5063071999999,971.5063071999999,,new_sceneIn_17.png,314,4.0,2.6805985000000874,,008,0,2024-10-02_16h12.43.708,Surprise recog test,2023.1.3,59.859235022913474,
314,0,314,0,,,,,,,,,,,,,,,,,,,,,,,,,,,,,,,,,,,,976.6348575999999,977.6500124999999,975.1977135999999,975.1977135999999,975.1977135999999,975.1977135999999,,old_sceneIn_37.png,315,4.0,1.4330929000000197,,008,0,2024-10-02_16h12.43.708,Surprise recog test,2023.1.3,59.859235022913474,
315,0,315,0,,,,,,,,,,,,,,,,,,,,,,,,,,,,,,,,,,,,978.5960759000001,,977.6500124999999,977.6500124999999,977.6500124999999,977.6500124999999,,old_sceneOut_7.png,316,3.0,0.9420709999999417,,008,0,2024-10-02_16h12.43.708,Surprise recog test,2023.1.3,59.859235022913474,
316,0,316,0,,,,,,,,,,,,,,,,,,,,,,,,,,,,,,,,,,,,981.2579683999999,982.2820677999999,979.6279622000001,979.6279622000001,979.6279622000001,979.6279622000001,,old_sceneIn_31.png,317,1.0,1.6289179000000331,,008,0,2024-10-02_16h12.43.708,Surprise recog test,2023.1.3,59.859235022913474,
317,0,317,0,,,,,,,,,,,,,,,,,,,,,,,,,,,,,,,,,,,,983.8873256,984.9080680999999,982.2820677999999,982.2820677999999,982.2820677999999,982.2820677999999,,new_sceneOut_37.png,318,4.0,1.606562699999813,,008,0,2024-10-02_16h12.43.708,Surprise recog test,2023.1.3,59.859235022913474,
318,0,318,0,,,,,,,,,,,,,,,,,,,,,,,,,,,,,,,,,,,,986.6756042999999,987.7021656999999,984.9080680999999,984.9080680999999,984.9080680999999,984.9080680999999,,new_fruit_50.png,319,1.0,1.7639297999999144,,008,0,2024-10-02_16h12.43.708,Surprise recog test,2023.1.3,59.859235022913474,
319,0,319,0,,,,,,,,,,,,,,,,,,,,,,,,,,,,,,,,,,,,988.6479714999999,989.6708858999999,987.7021656999999,987.7021656999999,987.7021656999999,987.7021656999999,,old_fruit_41.png,320,1.0,0.9481654000001072,,008,0,2024-10-02_16h12.43.708,Surprise recog test,2023.1.3,59.859235022913474,
320,0,320,0,,,,,,,,,,,,,,,,,,,,,,,,,,,,,,,,,,,,992.4380004000001,993.4569362999999,989.6708858999999,989.6708858999999,989.6708858999999,989.6708858999999,,new_sceneOut_46.png,321,4.0,2.7663870999999745,,008,0,2024-10-02_16h12.43.708,Surprise recog test,2023.1.3,59.859235022913474,
321,0,321,0,,,,,,,,,,,,,,,,,,,,,,,,,,,,,,,,,,,,995.3907720999999,996.4116708999999,993.4569362999999,993.4569362999999,993.4569362999999,993.4569362999999,,old_fruit_6.png,322,1.0,1.9327017000000524,,008,0,2024-10-02_16h12.43.708,Surprise recog test,2023.1.3,59.859235022913474,
322,0,322,0,,,,,,,,,,,,,,,,,,,,,,,,,,,,,,,,,,,,998.8498943999999,999.8692276999999,996.4116708999999,996.4116708999999,996.4116708999999,996.4116708999999,,old_sceneIn_46.png,323,5.0,2.44036159999996,,008,0,2024-10-02_16h12.43.708,Surprise recog test,2023.1.3,59.859235022913474,
323,0,323,0,,,,,,,,,,,,,,,,,,,,,,,,,,,,,,,,,,,,1001.1085489999999,1002.1204701999999,999.8692276999999,999.8692276999999,999.8692276999999,999.8692276999999,,old_sceneOut_18.png,324,4.0,1.2373528000000533,,008,0,2024-10-02_16h12.43.708,Surprise recog test,2023.1.3,59.859235022913474,
324,0,324,0,,,,,,,,,,,,,,,,,,,,,,,,,,,,,,,,,,,,1003.2894144999999,1004.3144868,1002.1204701999999,1002.1204701999999,1002.1204701999999,1002.1204701999999,,new_sceneIn_15.png,325,3.0,1.1628169999999045,,008,0,2024-10-02_16h12.43.708,Surprise recog test,2023.1.3,59.859235022913474,
325,0,325,0,,,,,,,,,,,,,,,,,,,,,,,,,,,,,,,,,,,,1006.2826412999999,1007.2973105,1004.3144868,1004.3144868,1004.3144868,1004.3144868,,new_stationery_49.png,326,1.0,1.9661843999999746,,008,0,2024-10-02_16h12.43.708,Surprise recog test,2023.1.3,59.859235022913474,
326,0,326,0,,,,,,,,,,,,,,,,,,,,,,,,,,,,,,,,,,,,1011.1991055,1012.2236975,1007.2973105,1007.2973105,1007.2973105,1007.2973105,,old_sceneOut_4.png,327,2.0,3.9028339000001324,,008,0,2024-10-02_16h12.43.708,Surprise recog test,2023.1.3,59.859235022913474,
327,0,327,0,,,,,,,,,,,,,,,,,,,,,,,,,,,,,,,,,,,,1013.1424971999999,,1012.2236975,1012.2236975,1012.2236975,1012.2236975,,old_sceneIn_29.png,328,3.0,0.9207397000000128,,008,0,2024-10-02_16h12.43.708,Surprise recog test,2023.1.3,59.859235022913474,
328,0,328,0,,,,,,,,,,,,,,,,,,,,,,,,,,,,,,,,,,,,1016.3923237,1017.4152092999999,1014.1625409,1014.1625409,1014.1625409,1014.1625409,,new_stationery_19.png,329,2.0,2.2253661999998258,,008,0,2024-10-02_16h12.43.708,Surprise recog test,2023.1.3,59.859235022913474,
329,0,329,0,,,,,,,,,,,,,,,,,,,,,,,,,,,,,,,,,,,,1019.2882667,1020.3027387000001,1017.4152092999999,1017.4152092999999,1017.4152092999999,1017.4152092999999,,old_sceneOut_6.png,330,1.0,1.8768462000000454,,008,0,2024-10-02_16h12.43.708,Surprise recog test,2023.1.3,59.859235022913474,
330,0,330,0,,,,,,,,,,,,,,,,,,,,,,,,,,,,,,,,,,,,1022.6243039,1023.6478774000001,1020.3027387000001,1020.3027387000001,1020.3027387000001,1020.3027387000001,,old_sceneIn_2.png,331,2.0,2.3174503000000186,,008,0,2024-10-02_16h12.43.708,Surprise recog test,2023.1.3,59.859235022913474,
331,0,331,0,,,,,,,,,,,,,,,,,,,,,,,,,,,,,,,,,,,,1025.4651279999998,1026.4732703999998,1023.6478774000001,1023.6478774000001,1023.6478774000001,1023.6478774000001,,new_stationery_12.png,332,1.0,1.8130171999998765,,008,0,2024-10-02_16h12.43.708,Surprise recog test,2023.1.3,59.859235022913474,
332,0,332,0,,,,,,,,,,,,,,,,,,,,,,,,,,,,,,,,,,,,1028.2342273999998,1029.2552176,1026.4732703999998,1026.4732703999998,1026.4732703999998,1026.4732703999998,,new_stationery_50.png,333,4.0,1.7534269999998742,,008,0,2024-10-02_16h12.43.708,Surprise recog test,2023.1.3,59.859235022913474,
333,0,333,0,,,,,,,,,,,,,,,,,,,,,,,,,,,,,,,,,,,,1031.4985075999998,1032.5229005,1029.2552176,1029.2552176,1029.2552176,1029.2552176,,new_sceneIn_26.png,334,3.0,2.2438280999999733,,008,0,2024-10-02_16h12.43.708,Surprise recog test,2023.1.3,59.859235022913474,
334,0,334,0,,,,,,,,,,,,,,,,,,,,,,,,,,,,,,,,,,,,1034.0641047,1035.0810665,1032.5229005,1032.5229005,1032.5229005,1032.5229005,,old_sceneOut_29.png,335,4.0,1.5387753999998495,,008,0,2024-10-02_16h12.43.708,Surprise recog test,2023.1.3,59.859235022913474,
335,0,335,0,,,,,,,,,,,,,,,,,,,,,,,,,,,,,,,,,,,,1037.4146952,1038.4432782,1035.0810665,1035.0810665,1035.0810665,1035.0810665,,old_fruit_42.png,336,5.0,2.328189699999939,,008,0,2024-10-02_16h12.43.708,Surprise recog test,2023.1.3,59.859235022913474,
336,0,336,0,,,,,,,,,,,,,,,,,,,,,,,,,,,,,,,,,,,,1040.5079549000002,1041.5346541,1038.4432782,1038.4432782,1038.4432782,1038.4432782,,old_sceneIn_20.png,337,1.0,2.0652001999999356,,008,0,2024-10-02_16h12.43.708,Surprise recog test,2023.1.3,59.859235022913474,
337,0,337,0,,,,,,,,,,,,,,,,,,,,,,,,,,,,,,,,,,,,1043.1651502999998,1044.171766,1041.5346541,1041.5346541,1041.5346541,1041.5346541,,new_sceneIn_2.png,338,3.0,1.6330833000001803,,008,0,2024-10-02_16h12.43.708,Surprise recog test,2023.1.3,59.859235022913474,
338,0,338,0,,,,,,,,,,,,,,,,,,,,,,,,,,,,,,,,,,,,1045.5015847999998,,1044.171766,1044.171766,1044.171766,1044.171766,,new_sceneOut_34.png,339,4.0,1.326056600000129,,008,0,2024-10-02_16h12.43.708,Surprise recog test,2023.1.3,59.859235022913474,
339,0,339,0,,,,,,,,,,,,,,,,,,,,,,,,,,,,,,,,,,,,1048.4241256,1049.4577054000001,1046.5417547000002,1046.5417547000002,1046.5417547000002,1046.5417547000002,,new_sceneIn_47.png,340,2.0,1.886797500000057,,008,0,2024-10-02_16h12.43.708,Surprise recog test,2023.1.3,59.859235022913474,
340,0,340,0,,,,,,,,,,,,,,,,,,,,,,,,,,,,,,,,,,,,1050.9156151000002,1051.9258629,1049.4577054000001,1049.4577054000001,1049.4577054000001,1049.4577054000001,,old_fruit_39.png,341,1.0,1.4602410999998483,,008,0,2024-10-02_16h12.43.708,Surprise recog test,2023.1.3,59.859235022913474,
341,0,341,0,,,,,,,,,,,,,,,,,,,,,,,,,,,,,,,,,,,,1052.8807210999998,1053.9061382,1051.9258629,1051.9258629,1051.9258629,1051.9258629,,new_fruit_2.png,342,1.0,0.9507759000000533,,008,0,2024-10-02_16h12.43.708,Surprise recog test,2023.1.3,59.859235022913474,
342,0,342,0,,,,,,,,,,,,,,,,,,,,,,,,,,,,,,,,,,,,1054.8459484999998,1055.8823174999998,1053.9061382,1053.9061382,1053.9061382,1053.9061382,,new_fruit_34.png,343,1.0,0.9424348000000009,,008,0,2024-10-02_16h12.43.708,Surprise recog test,2023.1.3,59.859235022913474,
343,0,343,0,,,,,,,,,,,,,,,,,,,,,,,,,,,,,,,,,,,,1057.5744651,1058.5839431,1055.8823174999998,1055.8823174999998,1055.8823174999998,1055.8823174999998,,old_sceneIn_40.png,344,4.0,1.691622099999904,,008,0,2024-10-02_16h12.43.708,Surprise recog test,2023.1.3,59.859235022913474,
344,0,344,0,,,,,,,,,,,,,,,,,,,,,,,,,,,,,,,,,,,,1060.6578024,1061.6766361,1058.5839431,1058.5839431,1058.5839431,1058.5839431,,old_sceneOut_1.png,345,3.0,2.0699388000000454,,008,0,2024-10-02_16h12.43.708,Surprise recog test,2023.1.3,59.859235022913474,
345,0,345,0,,,,,,,,,,,,,,,,,,,,,,,,,,,,,,,,,,,,1063.7812807,1064.7969862,1061.6766361,1061.6766361,1061.6766361,1061.6766361,,old_stationery_33.png,346,1.0,2.1003330000000915,,008,0,2024-10-02_16h12.43.708,Surprise recog test,2023.1.3,59.859235022913474,
346,0,346,0,,,,,,,,,,,,,,,,,,,,,,,,,,,,,,,,,,,,1066.3561292,1067.3734881,1064.7969862,1064.7969862,1064.7969862,1064.7969862,,new_sceneIn_40.png,347,4.0,1.5580500999999458,,008,0,2024-10-02_16h12.43.708,Surprise recog test,2023.1.3,59.859235022913474,
347,0,347,0,,,,,,,,,,,,,,,,,,,,,,,,,,,,,,,,,,,,1068.3851221999998,1069.4045305999998,1067.3734881,1067.3734881,1067.3734881,1067.3734881,,old_sceneOut_2.png,348,4.0,1.0073883000000023,,008,0,2024-10-02_16h12.43.708,Surprise recog test,2023.1.3,59.859235022913474,
348,0,348,0,,,,,,,,,,,,,,,,,,,,,,,,,,,,,,,,,,,,1071.9298015999998,1072.9587756,1069.4045305999998,1069.4045305999998,1069.4045305999998,1069.4045305999998,,new_stationery_44.png,349,1.0,2.5260814999999184,,008,0,2024-10-02_16h12.43.708,Surprise recog test,2023.1.3,59.859235022913474,
349,0,349,0,,,,,,,,,,,,,,,,,,,,,,,,,,,,,,,,,,,,1075.2618222,1076.2806603,1072.9587756,1072.9587756,1072.9587756,1072.9587756,,new_stationery_3.png,350,2.0,2.3049146000000746,,008,0,2024-10-02_16h12.43.708,Surprise recog test,2023.1.3,59.859235022913474,
350,0,350,0,,,,,,,,,,,,,,,,,,,,,,,,,,,,,,,,,,,,1078.3180606,1079.3431448000001,1076.2806603,1076.2806603,1076.2806603,1076.2806603,,old_stationery_38.png,351,1.0,2.032863599999928,,008,0,2024-10-02_16h12.43.708,Surprise recog test,2023.1.3,59.859235022913474,
351,0,351,0,,,,,,,,,,,,,,,,,,,,,,,,,,,,,,,,,,,,1080.3901455,1081.4049442,1079.3431448000001,1079.3431448000001,1079.3431448000001,1079.3431448000001,,new_stationery_13.png,352,1.0,1.0486923999999362,,008,0,2024-10-02_16h12.43.708,Surprise recog test,2023.1.3,59.859235022913474,
352,0,352,0,,,,,,,,,,,,,,,,,,,,,,,,,,,,,,,,,,,,1084.427044,1085.4506096999999,1081.4049442,1081.4049442,1081.4049442,1081.4049442,,new_sceneOut_12.png,353,3.0,3.016921899999943,,008,0,2024-10-02_16h12.43.708,Surprise recog test,2023.1.3,59.859235022913474,
353,0,353,0,,,,,,,,,,,,,,,,,,,,,,,,,,,,,,,,,,,,1087.6551998,1088.6805611999998,1085.4506096999999,1085.4506096999999,1085.4506096999999,1085.4506096999999,,new_sceneIn_5.png,354,3.0,2.2061588999999913,,008,0,2024-10-02_16h12.43.708,Surprise recog test,2023.1.3,59.859235022913474,
354,0,354,0,,,,,,,,,,,,,,,,,,,,,,,,,,,,,,,,,,,,1090.8567533,,1088.6805611999998,1088.6805611999998,1088.6805611999998,1088.6805611999998,,new_fruit_45.png,355,1.0,2.1743168999998943,,008,0,2024-10-02_16h12.43.708,Surprise recog test,2023.1.3,59.859235022913474,
355,0,355,0,,,,,,,,,,,,,,,,,,,,,,,,,,,,,,,,,,,,1092.7538657,1093.7806560999998,1091.8911932,1091.8911932,1091.8911932,1091.8911932,,old_fruit_14.png,356,1.0,0.8622340999997959,,008,0,2024-10-02_16h12.43.708,Surprise recog test,2023.1.3,59.859235022913474,
356,0,356,0,,,,,,,,,,,,,,,,,,,,,,,,,,,,,,,,,,,,1095.4860176000002,1096.5119172999998,1093.7806560999998,1093.7806560999998,1093.7806560999998,1093.7806560999998,,old_sceneOut_46.png,357,4.0,1.708090600000105,,008,0,2024-10-02_16h12.43.708,Surprise recog test,2023.1.3,59.859235022913474,
357,0,357,0,,,,,,,,,,,,,,,,,,,,,,,,,,,,,,,,,,,,1098.2236349999998,1099.2340247000002,1096.5119172999998,1096.5119172999998,1096.5119172999998,1096.5119172999998,,old_fruit_22.png,358,1.0,1.7144303999998556,,008,0,2024-10-02_16h12.43.708,Surprise recog test,2023.1.3,59.859235022913474,
358,0,358,0,,,,,,,,,,,,,,,,,,,,,,,,,,,,,,,,,,,,1100.6086624999998,1101.6332025000002,1099.2340247000002,1099.2340247000002,1099.2340247000002,1099.2340247000002,,new_fruit_9.png,359,1.0,1.3702937000000475,,008,0,2024-10-02_16h12.43.708,Surprise recog test,2023.1.3,59.859235022913474,
359,0,359,0,,,,,,,,,,,,,,,,,,,,,,,,,,,,,,,,,,,,1103.1638647,1104.1834146,1101.6332025000002,1101.6332025000002,1101.6332025000002,1101.6332025000002,,old_sceneOut_49.png,360,4.0,1.5289101000000755,,008,0,2024-10-02_16h12.43.708,Surprise recog test,2023.1.3,59.859235022913474,
360,0,360,0,,,,,,,,,,,,,,,,,,,,,,,,,,,,,,,,,,,,1105.3835826,1106.3898123,1104.1834146,1104.1834146,1104.1834146,1104.1834146,,new_sceneIn_12.png,361,4.0,1.2021632999999383,,008,0,2024-10-02_16h12.43.708,Surprise recog test,2023.1.3,59.859235022913474,
361,0,361,0,,,,,,,,,,,,,,,,,,,,,,,,,,,,,,,,,,,,1108.5729256999998,1109.6043759,1106.3898123,1106.3898123,1106.3898123,1106.3898123,,old_stationery_44.png,362,1.0,2.178707399999894,,008,0,2024-10-02_16h12.43.708,Surprise recog test,2023.1.3,59.859235022913474,
362,0,362,0,,,,,,,,,,,,,,,,,,,,,,,,,,,,,,,,,,,,1111.8460786,1112.8627241999998,1109.6043759,1109.6043759,1109.6043759,1109.6043759,,old_sceneOut_40.png,363,2.0,2.243212000000085,,008,0,2024-10-02_16h12.43.708,Surprise recog test,2023.1.3,59.859235022913474,
363,0,363,0,,,,,,,,,,,,,,,,,,,,,,,,,,,,,,,,,,,,1114.3676255,1115.3942446,1112.8627241999998,1112.8627241999998,1112.8627241999998,1112.8627241999998,,new_fruit_13.png,364,3.0,1.4999950999999783,,008,0,2024-10-02_16h12.43.708,Surprise recog test,2023.1.3,59.859235022913474,
364,0,364,0,,,,,,,,,,,,,,,,,,,,,,,,,,,,,,,,,,,,1117.4766934999998,1118.4945747000002,1115.3942446,1115.3942446,1115.3942446,1115.3942446,,old_sceneIn_19.png,365,3.0,2.0831100000000333,,008,0,2024-10-02_16h12.43.708,Surprise recog test,2023.1.3,59.859235022913474,
365,0,365,0,,,,,,,,,,,,,,,,,,,,,,,,,,,,,,,,,,,,1119.3929703,1120.4086422,1118.4945747000002,1118.4945747000002,1118.4945747000002,1118.4945747000002,,old_stationery_12.png,366,3.0,0.8995568999998795,,008,0,2024-10-02_16h12.43.708,Surprise recog test,2023.1.3,59.859235022913474,
366,0,366,0,,,,,,,,,,,,,,,,,,,,,,,,,,,,,,,,,,,,1122.0660896999998,,1120.4086422,1120.4086422,1120.4086422,1120.4086422,,new_sceneOut_7.png,367,3.0,1.659208400000125,,008,0,2024-10-02_16h12.43.708,Surprise recog test,2023.1.3,59.859235022913474,
367,0,367,0,,,,,,,,,,,,,,,,,,,,,,,,,,,,,,,,,,,,1124.8311334,1125.8470908999998,1123.0878876000002,1123.0878876000002,1123.0878876000002,1123.0878876000002,,new_stationery_40.png,368,1.0,1.7337056999999731,,008,0,2024-10-02_16h12.43.708,Surprise recog test,2023.1.3,59.859235022913474,
368,0,368,0,,,,,,,,,,,,,,,,,,,,,,,,,,,,,,,,,,,,1126.5566457,1127.5890045,1125.8470908999998,1125.8470908999998,1125.8470908999998,1125.8470908999998,,new_sceneOut_45.png,369,1.0,0.711897800000088,,008,0,2024-10-02_16h12.43.708,Surprise recog test,2023.1.3,59.859235022913474,
369,0,369,0,,,,,,,,,,,,,,,,,,,,,,,,,,,,,,,,,,,,1128.7508776999998,1129.7714016,1127.5890045,1127.5890045,1127.5890045,1127.5890045,,new_stationery_28.png,370,1.0,1.1651692000000367,,008,0,2024-10-02_16h12.43.708,Surprise recog test,2023.1.3,59.859235022913474,
370,0,370,0,,,,,,,,,,,,,,,,,,,,,,,,,,,,,,,,,,,,1132.246729,1133.2761116000001,1129.7714016,1129.7714016,1129.7714016,1129.7714016,,old_sceneIn_45.png,371,1.0,2.4747251000001143,,008,0,2024-10-02_16h12.43.708,Surprise recog test,2023.1.3,59.859235022913474,
371,0,371,0,,,,,,,,,,,,,,,,,,,,,,,,,,,,,,,,,,,,1134.9408890999998,1135.9603692,1133.2761116000001,1133.2761116000001,1133.2761116000001,1133.2761116000001,,new_sceneOut_43.png,372,4.0,1.6658998999998857,,008,0,2024-10-02_16h12.43.708,Surprise recog test,2023.1.3,59.859235022913474,
372,0,372,0,,,,,,,,,,,,,,,,,,,,,,,,,,,,,,,,,,,,1138.2649083000001,1139.2837783999998,1135.9603692,1135.9603692,1135.9603692,1135.9603692,,old_sceneOut_5.png,373,3.0,2.306588000000147,,008,0,2024-10-02_16h12.43.708,Surprise recog test,2023.1.3,59.859235022913474,
