trial_loop.thisRepN,trial_loop.thisTrialN,trial_loop.thisN,trial_loop.thisIndex,VAS_slider.started,VAS_text.started,VAS_notstressed_text.started,VAS_stressed_text.started,continue_input.started,continue_text.started,label0.started,label10.started,label20.started,label30.started,label40.started,label50.started,label60.started,label70.started,label80.started,label90.started,label100.started,VAS_slider.response,VAS_slider.rt,VAS_slider.history,Answer_VAS,continue_input.keys,instruction_text.started,continue_text_2.started,continue_input_2.started,continue_input_2.keys,continue_input_2.rt,continue_input_2.duration,example_text.started,example_slider_2.started,example_image.started,example_slider_2.response,example_slider_2.rt,fixcross.started,fixcross.stopped,front_square.started,stim_images.started,trial_inst_images.started,slider_images.started,thisImg,trial_count,slider_images.response,slider_images.rt,outro.started,participant,condition,date,expName,psychopyVersion,frameRate,
,,,,325.5117140999064,325.5117140999064,325.5117140999064,325.5117140999064,325.5117140999064,325.5117140999064,325.5117140999064,325.5117140999064,325.5117140999064,325.5117140999064,325.5117140999064,325.5117140999064,325.5117140999064,325.5117140999064,325.5117140999064,325.5117140999064,325.5117140999064,5.866666666666667,27.165415700059384,"[(5.866666666666667, 27.165415700059384)]",5.866666666666667,None,,,,,,,,,,,,,,,,,,,,,,,009,1,2024-10-23_16h07.00.767,Surprise recog test,2023.1.3,59.98472792560985,
,,,,,,,,,,,,,,,,,,,,,,,,,,352.70412819995545,352.70412819995545,352.70412819995545,space,8.10987010016106,None,,,,,,,,,,,,,,,,,009,1,2024-10-23_16h07.00.767,Surprise recog test,2023.1.3,59.98472792560985,
0,0,0,0,,,,,,,,,,,,,,,,,,,,,,,,,,,,,360.9412279999815,360.9412279999815,360.9412279999815,5.0,36.353295899927616,401.1058854998555,402.11630559992045,398.2704232998658,398.2704232998658,398.2704232998658,398.2704232998658,new_fruit_34.png,1,1.0,2.842283600009978,,009,1,2024-10-23_16h07.00.767,Surprise recog test,2023.1.3,59.98472792560985,
1,0,1,0,,,,,,,,,,,,,,,,,,,,,,,,,,,,,,,,,,404.8370773999486,405.8526094998233,402.11630559992045,402.11630559992045,402.11630559992045,402.11630559992045,new_sceneIn_31.png,2,2.0,2.7168129000347108,,009,1,2024-10-23_16h07.00.767,Surprise recog test,2023.1.3,59.98472792560985,
2,0,2,0,,,,,,,,,,,,,,,,,,,,,,,,,,,,,,,,,,407.60764089995064,408.61837879987434,405.8526094998233,405.8526094998233,405.8526094998233,405.8526094998233,old_sceneIn_30.png,3,3.0,1.751999600091949,,009,1,2024-10-23_16h07.00.767,Surprise recog test,2023.1.3,59.98472792560985,
3,0,3,0,,,,,,,,,,,,,,,,,,,,,,,,,,,,,,,,,,410.63316369988024,411.65547939995304,408.61837879987434,408.61837879987434,408.61837879987434,408.61837879987434,old_sceneIn_12.png,4,1.0,2.011421100003645,,009,1,2024-10-23_16h07.00.767,Surprise recog test,2023.1.3,59.98472792560985,
4,0,4,0,,,,,,,,,,,,,,,,,,,,,,,,,,,,,,,,,,413.36892389995046,414.3883519999217,411.65547939995304,411.65547939995304,411.65547939995304,411.65547939995304,old_fruit_8.png,5,1.0,1.7160018000286072,,009,1,2024-10-23_16h07.00.767,Surprise recog test,2023.1.3,59.98472792560985,
5,0,5,0,,,,,,,,,,,,,,,,,,,,,,,,,,,,,,,,,,416.2404974999372,,414.3883519999217,414.3883519999217,414.3883519999217,414.3883519999217,old_sceneIn_13.png,6,3.0,1.8548022999893874,,009,1,2024-10-23_16h07.00.767,Surprise recog test,2023.1.3,59.98472792560985,
6,0,6,0,,,,,,,,,,,,,,,,,,,,,,,,,,,,,,,,,,419.60071449982934,420.6148506999016,417.2620700998232,417.2620700998232,417.2620700998232,417.2620700998232,new_stationery_50.png,7,1.0,2.3346553000155836,,009,1,2024-10-23_16h07.00.767,Surprise recog test,2023.1.3,59.98472792560985,
7,0,7,0,,,,,,,,,,,,,,,,,,,,,,,,,,,,,,,,,,422.39165199990384,423.4130055999849,420.6148506999016,420.6148506999016,420.6148506999016,420.6148506999016,new_stationery_7.png,8,4.0,1.7658669999800622,,009,1,2024-10-23_16h07.00.767,Surprise recog test,2023.1.3,59.98472792560985,
8,0,8,0,,,,,,,,,,,,,,,,,,,,,,,,,,,,,,,,,,425.3774776000064,426.4032142998185,423.4130055999849,423.4130055999849,423.4130055999849,423.4130055999849,old_sceneOut_43.png,9,2.0,1.9678710999432951,,009,1,2024-10-23_16h07.00.767,Surprise recog test,2023.1.3,59.98472792560985,
9,0,9,0,,,,,,,,,,,,,,,,,,,,,,,,,,,,,,,,,,427.83296149992384,,426.4032142998185,426.4032142998185,426.4032142998185,426.4032142998185,new_fruit_15.png,10,1.0,1.4316666999366134,,009,1,2024-10-23_16h07.00.767,Surprise recog test,2023.1.3,59.98472792560985,
10,0,10,0,,,,,,,,,,,,,,,,,,,,,,,,,,,,,,,,,,431.3311424998101,432.34066009987146,428.8518863997888,428.8518863997888,428.8518863997888,428.8518863997888,old_sceneOut_18.png,11,3.0,2.476681600091979,,009,1,2024-10-23_16h07.00.767,Surprise recog test,2023.1.3,59.98472792560985,
11,0,11,0,,,,,,,,,,,,,,,,,,,,,,,,,,,,,,,,,,433.76543419994414,434.7766852998175,432.34066009987146,432.34066009987146,432.34066009987146,432.34066009987146,old_stationery_29.png,12,1.0,1.4202354999724776,,009,1,2024-10-23_16h07.00.767,Surprise recog test,2023.1.3,59.98472792560985,
12,0,12,0,,,,,,,,,,,,,,,,,,,,,,,,,,,,,,,,,,437.0880745998584,438.095530499937,434.7766852998175,434.7766852998175,434.7766852998175,434.7766852998175,new_sceneOut_46.png,13,4.0,2.3073068000376225,,009,1,2024-10-23_16h07.00.767,Surprise recog test,2023.1.3,59.98472792560985,
13,0,13,0,,,,,,,,,,,,,,,,,,,,,,,,,,,,,,,,,,439.7341418999713,440.76097119995393,438.095530499937,438.095530499937,438.095530499937,438.095530499937,old_stationery_10.png,14,5.0,1.6347036000806838,,009,1,2024-10-23_16h07.00.767,Surprise recog test,2023.1.3,59.98472792560985,
14,0,14,0,,,,,,,,,,,,,,,,,,,,,,,,,,,,,,,,,,443.40917939995416,444.418302499922,440.76097119995393,440.76097119995393,440.76097119995393,440.76097119995393,new_fruit_5.png,15,2.0,2.6460216999985278,,009,1,2024-10-23_16h07.00.767,Surprise recog test,2023.1.3,59.98472792560985,
15,0,15,0,,,,,,,,,,,,,,,,,,,,,,,,,,,,,,,,,,446.70767479995266,447.73185799992643,444.418302499922,444.418302499922,444.418302499922,444.418302499922,new_sceneIn_16.png,16,5.0,2.2855456999968737,,009,1,2024-10-23_16h07.00.767,Surprise recog test,2023.1.3,59.98472792560985,
16,0,16,0,,,,,,,,,,,,,,,,,,,,,,,,,,,,,,,,,,449.5299777998589,450.54948539985344,447.73185799992643,447.73185799992643,447.73185799992643,447.73185799992643,new_stationery_34.png,17,4.0,1.8000364999752492,,009,1,2024-10-23_16h07.00.767,Surprise recog test,2023.1.3,59.98472792560985,
17,0,17,0,,,,,,,,,,,,,,,,,,,,,,,,,,,,,,,,,,452.15539039997384,453.1838443998713,450.54948539985344,450.54948539985344,450.54948539985344,450.54948539985344,old_fruit_7.png,18,1.0,1.6080972999334335,,009,1,2024-10-23_16h07.00.767,Surprise recog test,2023.1.3,59.98472792560985,
18,0,18,0,,,,,,,,,,,,,,,,,,,,,,,,,,,,,,,,,,455.9263012998272,456.9577028998174,453.1838443998713,453.1838443998713,453.1838443998713,453.1838443998713,new_sceneIn_9.png,19,5.0,2.7443866000976413,,009,1,2024-10-23_16h07.00.767,Surprise recog test,2023.1.3,59.98472792560985,
19,0,19,0,,,,,,,,,,,,,,,,,,,,,,,,,,,,,,,,,,458.3447475999128,459.37558349990286,456.9577028998174,456.9577028998174,456.9577028998174,456.9577028998174,old_fruit_24.png,20,1.0,1.3899107999168336,,009,1,2024-10-23_16h07.00.767,Surprise recog test,2023.1.3,59.98472792560985,
20,0,20,0,,,,,,,,,,,,,,,,,,,,,,,,,,,,,,,,,,460.9829725997988,462.01041609980166,459.37558349990286,459.37558349990286,459.37558349990286,459.37558349990286,old_sceneIn_25.png,21,4.0,1.6069537000730634,,009,1,2024-10-23_16h07.00.767,Surprise recog test,2023.1.3,59.98472792560985,
21,0,21,0,,,,,,,,,,,,,,,,,,,,,,,,,,,,,,,,,,463.4276111999061,464.43376179994084,462.01041609980166,462.01041609980166,462.01041609980166,462.01041609980166,new_stationery_49.png,22,4.0,1.419387700036168,,009,1,2024-10-23_16h07.00.767,Surprise recog test,2023.1.3,59.98472792560985,
22,0,22,0,,,,,,,,,,,,,,,,,,,,,,,,,,,,,,,,,,466.4320606999099,,464.43376179994084,464.43376179994084,464.43376179994084,464.43376179994084,new_stationery_43.png,23,5.0,1.9954270999878645,,009,1,2024-10-23_16h07.00.767,Surprise recog test,2023.1.3,59.98472792560985,
23,0,23,0,,,,,,,,,,,,,,,,,,,,,,,,,,,,,,,,,,469.9331649998203,,467.45018699998036,467.45018699998036,467.45018699998036,467.45018699998036,old_sceneIn_50.png,24,4.0,2.4775331001728773,,009,1,2024-10-23_16h07.00.767,Surprise recog test,2023.1.3,59.98472792560985,
24,0,24,0,,,,,,,,,,,,,,,,,,,,,,,,,,,,,,,,,,472.2262221998535,473.24176969984546,470.95520109985955,470.95520109985955,470.95520109985955,470.95520109985955,old_fruit_43.png,25,1.0,1.269291000207886,,009,1,2024-10-23_16h07.00.767,Surprise recog test,2023.1.3,59.98472792560985,
25,0,25,0,,,,,,,,,,,,,,,,,,,,,,,,,,,,,,,,,,475.0020810000133,476.01913939998485,473.24176969984546,473.24176969984546,473.24176969984546,473.24176969984546,old_stationery_34.png,26,4.0,1.7510691001079977,,009,1,2024-10-23_16h07.00.767,Surprise recog test,2023.1.3,59.98472792560985,
26,0,26,0,,,,,,,,,,,,,,,,,,,,,,,,,,,,,,,,,,477.1778765998315,478.1973929000087,476.01913939998485,476.01913939998485,476.01913939998485,476.01913939998485,new_fruit_12.png,27,1.0,1.1583147998899221,,009,1,2024-10-23_16h07.00.767,Surprise recog test,2023.1.3,59.98472792560985,
27,0,27,0,,,,,,,,,,,,,,,,,,,,,,,,,,,,,,,,,,479.6248366998043,,478.1973929000087,478.1973929000087,478.1973929000087,478.1973929000087,old_sceneIn_18.png,28,3.0,1.4224008000455797,,009,1,2024-10-23_16h07.00.767,Surprise recog test,2023.1.3,59.98472792560985,
28,0,28,0,,,,,,,,,,,,,,,,,,,,,,,,,,,,,,,,,,483.4869929999113,484.5183440998662,480.6578098000027,480.6578098000027,480.6578098000027,480.6578098000027,old_sceneOut_26.png,29,1.0,2.8302046998869628,,009,1,2024-10-23_16h07.00.767,Surprise recog test,2023.1.3,59.98472792560985,
29,0,29,0,,,,,,,,,,,,,,,,,,,,,,,,,,,,,,,,,,487.41496789990924,,484.5183440998662,484.5183440998662,484.5183440998662,484.5183440998662,old_sceneOut_3.png,30,2.0,2.898687900044024,,009,1,2024-10-23_16h07.00.767,Surprise recog test,2023.1.3,59.98472792560985,
30,0,30,0,,,,,,,,,,,,,,,,,,,,,,,,,,,,,,,,,,490.11462489981204,491.12368729989976,488.4497100999579,488.4497100999579,488.4497100999579,488.4497100999579,old_fruit_15.png,31,1.0,1.6631914000026882,,009,1,2024-10-23_16h07.00.767,Surprise recog test,2023.1.3,59.98472792560985,
31,0,31,0,,,,,,,,,,,,,,,,,,,,,,,,,,,,,,,,,,492.8357024998404,,491.12368729989976,491.12368729989976,491.12368729989976,491.12368729989976,old_sceneOut_8.png,32,2.0,1.7054032001178712,,009,1,2024-10-23_16h07.00.767,Surprise recog test,2023.1.3,59.98472792560985,
32,0,32,0,,,,,,,,,,,,,,,,,,,,,,,,,,,,,,,,,,495.16892279987223,496.19011319987476,493.8700116998516,493.8700116998516,493.8700116998516,493.8700116998516,new_stationery_35.png,33,1.0,1.298422000138089,,009,1,2024-10-23_16h07.00.767,Surprise recog test,2023.1.3,59.98472792560985,
33,0,33,0,,,,,,,,,,,,,,,,,,,,,,,,,,,,,,,,,,497.21813149983063,498.23076619999483,496.19011319987476,496.19011319987476,496.19011319987476,496.19011319987476,new_fruit_8.png,34,1.0,1.029266599798575,,009,1,2024-10-23_16h07.00.767,Surprise recog test,2023.1.3,59.98472792560985,
34,0,34,0,,,,,,,,,,,,,,,,,,,,,,,,,,,,,,,,,,499.54206789983436,,498.23076619999483,498.23076619999483,498.23076619999483,498.23076619999483,old_sceneIn_17.png,35,3.0,1.307606500107795,,009,1,2024-10-23_16h07.00.767,Surprise recog test,2023.1.3,59.98472792560985,
35,0,35,0,,,,,,,,,,,,,,,,,,,,,,,,,,,,,,,,,,502.62142579979263,503.64619140001014,500.5732538998127,500.5732538998127,500.5732538998127,500.5732538998127,new_sceneIn_39.png,36,4.0,2.046757400035858,,009,1,2024-10-23_16h07.00.767,Surprise recog test,2023.1.3,59.98472792560985,
36,0,36,0,,,,,,,,,,,,,,,,,,,,,,,,,,,,,,,,,,506.19904489978217,,503.64619140001014,503.64619140001014,503.64619140001014,503.64619140001014,new_stationery_32.png,37,4.0,2.553412500070408,,009,1,2024-10-23_16h07.00.767,Surprise recog test,2023.1.3,59.98472792560985,
37,0,37,0,,,,,,,,,,,,,,,,,,,,,,,,,,,,,,,,,,508.95434499997646,509.9875305998139,507.2190417998936,507.2190417998936,507.2190417998936,507.2190417998936,old_sceneIn_22.png,38,4.0,1.729001599829644,,009,1,2024-10-23_16h07.00.767,Surprise recog test,2023.1.3,59.98472792560985,
38,0,38,0,,,,,,,,,,,,,,,,,,,,,,,,,,,,,,,,,,511.5616176999174,512.586376799969,509.9875305998139,509.9875305998139,509.9875305998139,509.9875305998139,new_sceneOut_10.png,39,2.0,1.5768476999364793,,009,1,2024-10-23_16h07.00.767,Surprise recog test,2023.1.3,59.98472792560985,
39,0,39,0,,,,,,,,,,,,,,,,,,,,,,,,,,,,,,,,,,513.7551094999071,,512.586376799969,512.586376799969,512.586376799969,512.586376799969,old_sceneOut_39.png,40,2.0,1.1685230999719352,,009,1,2024-10-23_16h07.00.767,Surprise recog test,2023.1.3,59.98472792560985,
40,0,40,0,,,,,,,,,,,,,,,,,,,,,,,,,,,,,,,,,,516.133097599959,517.1599287998397,514.7934361998923,514.7934361998923,514.7934361998923,514.7934361998923,new_fruit_16.png,41,1.0,1.3423512000590563,,009,1,2024-10-23_16h07.00.767,Surprise recog test,2023.1.3,59.98472792560985,
41,0,41,0,,,,,,,,,,,,,,,,,,,,,,,,,,,,,,,,,,519.1232272000052,520.1306440997869,517.1599287998397,517.1599287998397,517.1599287998397,517.1599287998397,old_sceneOut_35.png,42,3.0,1.9645593999885023,,009,1,2024-10-23_16h07.00.767,Surprise recog test,2023.1.3,59.98472792560985,
42,0,42,0,,,,,,,,,,,,,,,,,,,,,,,,,,,,,,,,,,521.6622007999104,522.6786964999046,520.1306440997869,520.1306440997869,520.1306440997869,520.1306440997869,old_stationery_15.png,43,5.0,1.5276199001818895,,009,1,2024-10-23_16h07.00.767,Surprise recog test,2023.1.3,59.98472792560985,
43,0,43,0,,,,,,,,,,,,,,,,,,,,,,,,,,,,,,,,,,524.4340951999184,525.4588812999427,522.6786964999046,522.6786964999046,522.6786964999046,522.6786964999046,old_stationery_31.png,44,1.0,1.7519717002287507,,009,1,2024-10-23_16h07.00.767,Surprise recog test,2023.1.3,59.98472792560985,
44,0,44,0,,,,,,,,,,,,,,,,,,,,,,,,,,,,,,,,,,526.1276520998217,527.1501914998516,525.4588812999427,525.4588812999427,525.4588812999427,525.4588812999427,new_fruit_17.png,45,1.0,0.6715983999893069,,009,1,2024-10-23_16h07.00.767,Surprise recog test,2023.1.3,59.98472792560985,
45,0,45,0,,,,,,,,,,,,,,,,,,,,,,,,,,,,,,,,,,529.195261699846,530.2196133998223,527.1501914998516,527.1501914998516,527.1501914998516,527.1501914998516,old_stationery_23.png,46,1.0,2.048113000113517,,009,1,2024-10-23_16h07.00.767,Surprise recog test,2023.1.3,59.98472792560985,
46,0,46,0,,,,,,,,,,,,,,,,,,,,,,,,,,,,,,,,,,532.232244099956,533.2580304997973,530.2196133998223,530.2196133998223,530.2196133998223,530.2196133998223,old_stationery_49.png,47,2.0,2.016210699919611,,009,1,2024-10-23_16h07.00.767,Surprise recog test,2023.1.3,59.98472792560985,
47,0,47,0,,,,,,,,,,,,,,,,,,,,,,,,,,,,,,,,,,534.9462801998015,535.961965699913,533.2580304997973,533.2580304997973,533.2580304997973,533.2580304997973,old_fruit_1.png,48,1.0,1.689486199989915,,009,1,2024-10-23_16h07.00.767,Surprise recog test,2023.1.3,59.98472792560985,
48,0,48,0,,,,,,,,,,,,,,,,,,,,,,,,,,,,,,,,,,536.6866279998794,537.7076032999903,535.961965699913,535.961965699913,535.961965699913,535.961965699913,old_fruit_5.png,49,1.0,0.718418899923563,,009,1,2024-10-23_16h07.00.767,Surprise recog test,2023.1.3,59.98472792560985,
49,0,49,0,,,,,,,,,,,,,,,,,,,,,,,,,,,,,,,,,,538.490138299996,,537.7076032999903,537.7076032999903,537.7076032999903,537.7076032999903,new_fruit_19.png,50,1.0,0.7817291999235749,,009,1,2024-10-23_16h07.00.767,Surprise recog test,2023.1.3,59.98472792560985,
50,0,50,0,,,,,,,,,,,,,,,,,,,,,,,,,,,,,,,,,,541.207177199889,542.2272720998153,539.5155128999613,539.5155128999613,539.5155128999613,539.5155128999613,new_stationery_27.png,51,5.0,1.6890308000147343,,009,1,2024-10-23_16h07.00.767,Surprise recog test,2023.1.3,59.98472792560985,
51,0,51,0,,,,,,,,,,,,,,,,,,,,,,,,,,,,,,,,,,544.1525302999653,545.1797006998677,542.2272720998153,542.2272720998153,542.2272720998153,542.2272720998153,old_fruit_35.png,52,2.0,1.9263431997969747,,009,1,2024-10-23_16h07.00.767,Surprise recog test,2023.1.3,59.98472792560985,
52,0,52,0,,,,,,,,,,,,,,,,,,,,,,,,,,,,,,,,,,547.3837557998486,548.4197362998966,545.1797006998677,545.1797006998677,545.1797006998677,545.1797006998677,old_stationery_13.png,53,3.0,2.2062673999462277,,009,1,2024-10-23_16h07.00.767,Surprise recog test,2023.1.3,59.98472792560985,
53,0,53,0,,,,,,,,,,,,,,,,,,,,,,,,,,,,,,,,,,549.936232100008,550.9633335999679,548.4197362998966,548.4197362998966,548.4197362998966,548.4197362998966,new_stationery_46.png,54,5.0,1.5208412997890264,,009,1,2024-10-23_16h07.00.767,Surprise recog test,2023.1.3,59.98472792560985,
54,0,54,0,,,,,,,,,,,,,,,,,,,,,,,,,,,,,,,,,,552.6712094999384,,550.9633335999679,550.9633335999679,550.9633335999679,550.9633335999679,new_fruit_2.png,55,1.0,1.7030436999630183,,009,1,2024-10-23_16h07.00.767,Surprise recog test,2023.1.3,59.98472792560985,
55,0,55,0,,,,,,,,,,,,,,,,,,,,,,,,,,,,,,,,,,554.9861199997831,556.0123405999038,553.7022433998063,553.7022433998063,553.7022433998063,553.7022433998063,old_sceneIn_48.png,56,4.0,1.285634099971503,,009,1,2024-10-23_16h07.00.767,Surprise recog test,2023.1.3,59.98472792560985,
56,0,56,0,,,,,,,,,,,,,,,,,,,,,,,,,,,,,,,,,,558.178845499875,559.2017814000137,556.0123405999038,556.0123405999038,556.0123405999038,556.0123405999038,old_sceneIn_36.png,57,4.0,2.170095599954948,,009,1,2024-10-23_16h07.00.767,Surprise recog test,2023.1.3,59.98472792560985,
57,0,57,0,,,,,,,,,,,,,,,,,,,,,,,,,,,,,,,,,,561.4072790998034,562.4222342998255,559.2017814000137,559.2017814000137,559.2017814000137,559.2017814000137,new_fruit_10.png,58,4.0,2.2009399000089616,,009,1,2024-10-23_16h07.00.767,Surprise recog test,2023.1.3,59.98472792560985,
58,0,58,0,,,,,,,,,,,,,,,,,,,,,,,,,,,,,,,,,,563.4452733998187,,562.4222342998255,562.4222342998255,562.4222342998255,562.4222342998255,old_sceneIn_32.png,59,4.0,1.0175348001066595,,009,1,2024-10-23_16h07.00.767,Surprise recog test,2023.1.3,59.98472792560985,
59,0,59,0,,,,,,,,,,,,,,,,,,,,,,,,,,,,,,,,,,566.5670158998109,567.5996908999514,564.4671366999391,564.4671366999391,564.4671366999391,564.4671366999391,old_stationery_32.png,60,4.0,2.095834800042212,,009,1,2024-10-23_16h07.00.767,Surprise recog test,2023.1.3,59.98472792560985,
60,0,60,0,,,,,,,,,,,,,,,,,,,,,,,,,,,,,,,,,,569.2331233997829,,567.5996908999514,567.5996908999514,567.5996908999514,567.5996908999514,old_sceneOut_4.png,61,4.0,1.6333186000119895,,009,1,2024-10-23_16h07.00.767,Surprise recog test,2023.1.3,59.98472792560985,
61,0,61,0,,,,,,,,,,,,,,,,,,,,,,,,,,,,,,,,,,572.0667749999557,573.0735122999176,570.2645988999866,570.2645988999866,570.2645988999866,570.2645988999866,old_sceneIn_39.png,62,4.0,1.8018726999871433,,009,1,2024-10-23_16h07.00.767,Surprise recog test,2023.1.3,59.98472792560985,
62,0,62,0,,,,,,,,,,,,,,,,,,,,,,,,,,,,,,,,,,574.8999126998242,575.9109018999152,573.0735122999176,573.0735122999176,573.0735122999176,573.0735122999176,old_sceneIn_38.png,63,5.0,1.8218062999658287,,009,1,2024-10-23_16h07.00.767,Surprise recog test,2023.1.3,59.98472792560985,
63,0,63,0,,,,,,,,,,,,,,,,,,,,,,,,,,,,,,,,,,577.5155138999689,578.5259538998362,575.9109018999152,575.9109018999152,575.9109018999152,575.9109018999152,old_sceneOut_16.png,64,4.0,1.5995371998287737,,009,1,2024-10-23_16h07.00.767,Surprise recog test,2023.1.3,59.98472792560985,
64,0,64,0,,,,,,,,,,,,,,,,,,,,,,,,,,,,,,,,,,580.6416865999345,581.6607275998686,578.5259538998362,578.5259538998362,578.5259538998362,578.5259538998362,new_sceneIn_26.png,65,5.0,2.112917900085449,,009,1,2024-10-23_16h07.00.767,Surprise recog test,2023.1.3,59.98472792560985,
65,0,65,0,,,,,,,,,,,,,,,,,,,,,,,,,,,,,,,,,,582.7326517999172,583.7633883999661,581.6607275998686,581.6607275998686,581.6607275998686,581.6607275998686,old_sceneIn_7.png,66,5.0,1.0742485001683235,,009,1,2024-10-23_16h07.00.767,Surprise recog test,2023.1.3,59.98472792560985,
66,0,66,0,,,,,,,,,,,,,,,,,,,,,,,,,,,,,,,,,,586.0542883998714,587.0813515998889,583.7633883999661,583.7633883999661,583.7633883999661,583.7633883999661,new_fruit_7.png,67,2.0,2.2933160001412034,,009,1,2024-10-23_16h07.00.767,Surprise recog test,2023.1.3,59.98472792560985,
67,0,67,0,,,,,,,,,,,,,,,,,,,,,,,,,,,,,,,,,,589.3818776998669,590.3848953999113,587.0813515998889,587.0813515998889,587.0813515998889,587.0813515998889,new_sceneIn_4.png,68,4.0,2.3014661001507193,,009,1,2024-10-23_16h07.00.767,Surprise recog test,2023.1.3,59.98472792560985,
68,0,68,0,,,,,,,,,,,,,,,,,,,,,,,,,,,,,,,,,,592.1660392999183,593.1826459998265,590.3848953999113,590.3848953999113,590.3848953999113,590.3848953999113,new_sceneIn_29.png,69,4.0,1.7724449001252651,,009,1,2024-10-23_16h07.00.767,Surprise recog test,2023.1.3,59.98472792560985,
69,0,69,0,,,,,,,,,,,,,,,,,,,,,,,,,,,,,,,,,,595.1686197998933,596.1893042998854,593.1826459998265,593.1826459998265,593.1826459998265,593.1826459998265,new_stationery_18.png,70,3.0,1.9852205000352114,,009,1,2024-10-23_16h07.00.767,Surprise recog test,2023.1.3,59.98472792560985,
70,0,70,0,,,,,,,,,,,,,,,,,,,,,,,,,,,,,,,,,,597.3629652999807,598.3929835997988,596.1893042998854,596.1893042998854,596.1893042998854,596.1893042998854,new_stationery_15.png,71,3.0,1.1755297998897731,,009,1,2024-10-23_16h07.00.767,Surprise recog test,2023.1.3,59.98472792560985,
71,0,71,0,,,,,,,,,,,,,,,,,,,,,,,,,,,,,,,,,,600.1320465998724,601.1568088999484,598.3929835997988,598.3929835997988,598.3929835997988,598.3929835997988,old_sceneOut_50.png,72,3.0,1.7421355000697076,,009,1,2024-10-23_16h07.00.767,Surprise recog test,2023.1.3,59.98472792560985,
72,0,72,0,,,,,,,,,,,,,,,,,,,,,,,,,,,,,,,,,,602.0409884999972,603.0567333998624,601.1568088999484,601.1568088999484,601.1568088999484,601.1568088999484,new_sceneOut_42.png,73,3.0,0.8835180001333356,,009,1,2024-10-23_16h07.00.767,Surprise recog test,2023.1.3,59.98472792560985,
73,0,73,0,,,,,,,,,,,,,,,,,,,,,,,,,,,,,,,,,,605.5125282998197,606.5330649998505,603.0567333998624,603.0567333998624,603.0567333998624,603.0567333998624,old_stationery_20.png,74,4.0,2.456170199904591,,009,1,2024-10-23_16h07.00.767,Surprise recog test,2023.1.3,59.98472792560985,
74,0,74,0,,,,,,,,,,,,,,,,,,,,,,,,,,,,,,,,,,607.9649536998477,,606.5330649998505,606.5330649998505,606.5330649998505,606.5330649998505,new_sceneOut_27.png,75,4.0,1.432317900005728,,009,1,2024-10-23_16h07.00.767,Surprise recog test,2023.1.3,59.98472792560985,
75,0,75,0,,,,,,,,,,,,,,,,,,,,,,,,,,,,,,,,,,611.5517227000091,,608.9870607999619,608.9870607999619,608.9870607999619,608.9870607999619,old_sceneOut_1.png,76,4.0,2.558354299981147,,009,1,2024-10-23_16h07.00.767,Surprise recog test,2023.1.3,59.98472792560985,
76,0,76,0,,,,,,,,,,,,,,,,,,,,,,,,,,,,,,,,,,614.20593679999,615.2285861999262,612.5837194998749,612.5837194998749,612.5837194998749,612.5837194998749,old_sceneOut_2.png,77,3.0,1.6253006998449564,,009,1,2024-10-23_16h07.00.767,Surprise recog test,2023.1.3,59.98472792560985,
77,0,77,0,,,,,,,,,,,,,,,,,,,,,,,,,,,,,,,,,,617.4537894998211,618.4620451999363,615.2285861999262,615.2285861999262,615.2285861999262,615.2285861999262,new_stationery_19.png,78,4.0,2.2200462000910193,,009,1,2024-10-23_16h07.00.767,Surprise recog test,2023.1.3,59.98472792560985,
78,0,78,0,,,,,,,,,,,,,,,,,,,,,,,,,,,,,,,,,,619.9559610998258,620.9767839999404,618.4620451999363,618.4620451999363,618.4620451999363,618.4620451999363,new_fruit_29.png,79,1.0,1.482500199927017,,009,1,2024-10-23_16h07.00.767,Surprise recog test,2023.1.3,59.98472792560985,
79,0,79,0,,,,,,,,,,,,,,,,,,,,,,,,,,,,,,,,,,622.2770769998897,,620.9767839999404,620.9767839999404,620.9767839999404,620.9767839999404,new_stationery_22.png,80,3.0,1.2995575000531971,,009,1,2024-10-23_16h07.00.767,Surprise recog test,2023.1.3,59.98472792560985,
80,0,80,0,,,,,,,,,,,,,,,,,,,,,,,,,,,,,,,,,,625.3231498999521,626.3321655998006,623.3110195999034,623.3110195999034,623.3110195999034,623.3110195999034,new_fruit_50.png,81,2.0,2.0142882000654936,,009,1,2024-10-23_16h07.00.767,Surprise recog test,2023.1.3,59.98472792560985,
81,0,81,0,,,,,,,,,,,,,,,,,,,,,,,,,,,,,,,,,,629.1738628998864,630.2001303997822,626.3321655998006,626.3321655998006,626.3321655998006,626.3321655998006,new_stationery_24.png,82,3.0,2.8382842999417335,,009,1,2024-10-23_16h07.00.767,Surprise recog test,2023.1.3,59.98472792560985,
82,0,82,0,,,,,,,,,,,,,,,,,,,,,,,,,,,,,,,,,,632.1573497999925,633.1709640999325,630.2001303997822,630.2001303997822,630.2001303997822,630.2001303997822,old_stationery_36.png,83,1.0,1.959454600000754,,009,1,2024-10-23_16h07.00.767,Surprise recog test,2023.1.3,59.98472792560985,
83,0,83,0,,,,,,,,,,,,,,,,,,,,,,,,,,,,,,,,,,633.9674030998722,634.9889497999102,633.1709640999325,633.1709640999325,633.1709640999325,633.1709640999325,new_stationery_23.png,84,1.0,0.793406100012362,,009,1,2024-10-23_16h07.00.767,Surprise recog test,2023.1.3,59.98472792560985,
84,0,84,0,,,,,,,,,,,,,,,,,,,,,,,,,,,,,,,,,,636.6703177997842,637.6770428000018,634.9889497999102,634.9889497999102,634.9889497999102,634.9889497999102,old_sceneIn_10.png,85,3.0,1.682429099921137,,009,1,2024-10-23_16h07.00.767,Surprise recog test,2023.1.3,59.98472792560985,
85,0,85,0,,,,,,,,,,,,,,,,,,,,,,,,,,,,,,,,,,639.9781775998417,641.012630000012,637.6770428000018,637.6770428000018,637.6770428000018,637.6770428000018,new_stationery_4.png,86,3.0,2.2968198999296874,,009,1,2024-10-23_16h07.00.767,Surprise recog test,2023.1.3,59.98472792560985,
86,0,86,0,,,,,,,,,,,,,,,,,,,,,,,,,,,,,,,,,,642.824794499902,643.830042499816,641.012630000012,641.012630000012,641.012630000012,641.012630000012,old_sceneIn_15.png,87,4.0,1.8129958999343216,,009,1,2024-10-23_16h07.00.767,Surprise recog test,2023.1.3,59.98472792560985,
87,0,87,0,,,,,,,,,,,,,,,,,,,,,,,,,,,,,,,,,,645.0910900000017,646.1143643998075,643.830042499816,643.830042499816,643.830042499816,643.830042499816,new_stationery_33.png,88,4.0,1.2579934999812394,,009,1,2024-10-23_16h07.00.767,Surprise recog test,2023.1.3,59.98472792560985,
88,0,88,0,,,,,,,,,,,,,,,,,,,,,,,,,,,,,,,,,,648.7316313998308,649.7489861999638,646.1143643998075,646.1143643998075,646.1143643998075,646.1143643998075,new_fruit_4.png,89,1.0,2.616336700040847,,009,1,2024-10-23_16h07.00.767,Surprise recog test,2023.1.3,59.98472792560985,
89,0,89,0,,,,,,,,,,,,,,,,,,,,,,,,,,,,,,,,,,650.4067425997928,651.4364691998344,649.7489861999638,649.7489861999638,649.7489861999638,649.7489861999638,old_fruit_39.png,90,1.0,0.6590727001894265,,009,1,2024-10-23_16h07.00.767,Surprise recog test,2023.1.3,59.98472792560985,
90,0,90,0,,,,,,,,,,,,,,,,,,,,,,,,,,,,,,,,,,652.9750156998634,654.002507600002,651.4364691998344,651.4364691998344,651.4364691998344,651.4364691998344,new_sceneOut_16.png,91,4.0,1.5415501999668777,,009,1,2024-10-23_16h07.00.767,Surprise recog test,2023.1.3,59.98472792560985,
91,0,91,0,,,,,,,,,,,,,,,,,,,,,,,,,,,,,,,,,,656.0224200999364,,654.002507600002,654.002507600002,654.002507600002,654.002507600002,old_sceneIn_44.png,92,4.0,2.0216808998957276,,009,1,2024-10-23_16h07.00.767,Surprise recog test,2023.1.3,59.98472792560985,
92,0,92,0,,,,,,,,,,,,,,,,,,,,,,,,,,,,,,,,,,658.6188067998737,659.6259195997845,657.0423022999894,657.0423022999894,657.0423022999894,657.0423022999894,new_sceneIn_2.png,93,3.0,1.572294499957934,,009,1,2024-10-23_16h07.00.767,Surprise recog test,2023.1.3,59.98472792560985,
93,0,93,0,,,,,,,,,,,,,,,,,,,,,,,,,,,,,,,,,,660.9935510999057,,659.6259195997845,659.6259195997845,659.6259195997845,659.6259195997845,old_sceneIn_4.png,94,4.0,1.3632284000050277,,009,1,2024-10-23_16h07.00.767,Surprise recog test,2023.1.3,59.98472792560985,
94,0,94,0,,,,,,,,,,,,,,,,,,,,,,,,,,,,,,,,,,664.338209199952,665.3651137999259,662.0271264999174,662.0271264999174,662.0271264999174,662.0271264999174,old_sceneOut_21.png,95,4.0,2.313787499908358,,009,1,2024-10-23_16h07.00.767,Surprise recog test,2023.1.3,59.98472792560985,
95,0,95,0,,,,,,,,,,,,,,,,,,,,,,,,,,,,,,,,,,666.7117961999029,667.7331083999015,665.3651137999259,665.3651137999259,665.3651137999259,665.3651137999259,new_sceneIn_21.png,96,4.0,1.3485760998446494,,009,1,2024-10-23_16h07.00.767,Surprise recog test,2023.1.3,59.98472792560985,
96,0,96,0,,,,,,,,,,,,,,,,,,,,,,,,,,,,,,,,,,670.1368984999135,671.16928989999,667.7331083999015,667.7331083999015,667.7331083999015,667.7331083999015,old_sceneIn_1.png,97,4.0,2.405758500099182,,009,1,2024-10-23_16h07.00.767,Surprise recog test,2023.1.3,59.98472792560985,
97,0,97,0,,,,,,,,,,,,,,,,,,,,,,,,,,,,,,,,,,672.6272419998422,673.6492033000104,671.16928989999,671.16928989999,671.16928989999,671.16928989999,old_sceneIn_42.png,98,4.0,1.4580757999792695,,009,1,2024-10-23_16h07.00.767,Surprise recog test,2023.1.3,59.98472792560985,
98,0,98,0,,,,,,,,,,,,,,,,,,,,,,,,,,,,,,,,,,674.8956728999037,675.9164050999098,673.6492033000104,673.6492033000104,673.6492033000104,673.6492033000104,old_fruit_44.png,99,1.0,1.2458122000098228,,009,1,2024-10-23_16h07.00.767,Surprise recog test,2023.1.3,59.98472792560985,
99,0,99,0,,,,,,,,,,,,,,,,,,,,,,,,,,,,,,,,,,677.2293479999062,678.2414239000063,675.9164050999098,675.9164050999098,675.9164050999098,675.9164050999098,new_fruit_33.png,100,1.0,1.3138181001413614,,009,1,2024-10-23_16h07.00.767,Surprise recog test,2023.1.3,59.98472792560985,
100,0,100,0,,,,,,,,,,,,,,,,,,,,,,,,,,,,,,,,,,679.2227770998143,680.2284996998496,678.2414239000063,678.2414239000063,678.2414239000063,678.2414239000063,new_fruit_28.png,101,1.0,0.9749207999557257,,009,1,2024-10-23_16h07.00.767,Surprise recog test,2023.1.3,59.98472792560985,
101,0,101,0,,,,,,,,,,,,,,,,,,,,,,,,,,,,,,,,,,683.2418510999996,684.2626961998176,680.2284996998496,680.2284996998496,680.2284996998496,680.2284996998496,old_sceneIn_43.png,102,3.0,3.00618389993906,,009,1,2024-10-23_16h07.00.767,Surprise recog test,2023.1.3,59.98472792560985,
102,0,102,0,,,,,,,,,,,,,,,,,,,,,,,,,,,,,,,,,,686.4842961998656,687.5025620998349,684.2626961998176,684.2626961998176,684.2626961998176,684.2626961998176,old_stationery_40.png,103,2.0,2.2220173999667168,,009,1,2024-10-23_16h07.00.767,Surprise recog test,2023.1.3,59.98472792560985,
103,0,103,0,,,,,,,,,,,,,,,,,,,,,,,,,,,,,,,,,,689.1902638999745,690.2168590999208,687.5025620998349,687.5025620998349,687.5025620998349,687.5025620998349,old_stationery_17.png,104,2.0,1.6810999000445008,,009,1,2024-10-23_16h07.00.767,Surprise recog test,2023.1.3,59.98472792560985,
104,0,104,0,,,,,,,,,,,,,,,,,,,,,,,,,,,,,,,,,,691.4077624999918,692.4240555998404,690.2168590999208,690.2168590999208,690.2168590999208,690.2168590999208,old_fruit_17.png,105,1.0,1.1896047999616712,,009,1,2024-10-23_16h07.00.767,Surprise recog test,2023.1.3,59.98472792560985,
105,0,105,0,,,,,,,,,,,,,,,,,,,,,,,,,,,,,,,,,,693.1334344998468,694.1608886998147,692.4240555998404,692.4240555998404,692.4240555998404,692.4240555998404,old_fruit_14.png,106,1.0,0.7009151999372989,,009,1,2024-10-23_16h07.00.767,Surprise recog test,2023.1.3,59.98472792560985,
106,0,106,0,,,,,,,,,,,,,,,,,,,,,,,,,,,,,,,,,,696.350007899804,697.3663422998507,694.1608886998147,694.1608886998147,694.1608886998147,694.1608886998147,new_stationery_6.png,107,5.0,2.192039400106296,,009,1,2024-10-23_16h07.00.767,Surprise recog test,2023.1.3,59.98472792560985,
107,0,107,0,,,,,,,,,,,,,,,,,,,,,,,,,,,,,,,,,,700.2325789998285,701.2463553999551,697.3663422998507,697.3663422998507,697.3663422998507,697.3663422998507,old_sceneOut_9.png,108,4.0,2.8643056000582874,,009,1,2024-10-23_16h07.00.767,Surprise recog test,2023.1.3,59.98472792560985,
108,0,108,0,,,,,,,,,,,,,,,,,,,,,,,,,,,,,,,,,,703.879129299894,,701.2463553999551,701.2463553999551,701.2463553999551,701.2463553999551,new_sceneOut_35.png,109,3.0,2.6262710001319647,,009,1,2024-10-23_16h07.00.767,Surprise recog test,2023.1.3,59.98472792560985,
109,0,109,0,,,,,,,,,,,,,,,,,,,,,,,,,,,,,,,,,,707.4151611998677,,704.9126081999857,704.9126081999857,704.9126081999857,704.9126081999857,old_sceneIn_31.png,110,4.0,2.502668800065294,,009,1,2024-10-23_16h07.00.767,Surprise recog test,2023.1.3,59.98472792560985,
110,0,110,0,,,,,,,,,,,,,,,,,,,,,,,,,,,,,,,,,,709.5355262998492,710.5663366999943,708.4359619999304,708.4359619999304,708.4359619999304,708.4359619999304,new_sceneOut_50.png,111,4.0,1.0939634998794645,,009,1,2024-10-23_16h07.00.767,Surprise recog test,2023.1.3,59.98472792560985,
111,0,111,0,,,,,,,,,,,,,,,,,,,,,,,,,,,,,,,,,,711.8602320998907,712.8704599000048,710.5663366999943,710.5663366999943,710.5663366999943,710.5663366999943,new_fruit_24.png,112,4.0,1.2956765000708401,,009,1,2024-10-23_16h07.00.767,Surprise recog test,2023.1.3,59.98472792560985,
112,0,112,0,,,,,,,,,,,,,,,,,,,,,,,,,,,,,,,,,,714.6596833998337,715.6770933999214,712.8704599000048,712.8704599000048,712.8704599000048,712.8704599000048,new_fruit_18.png,113,1.0,1.7857334001455456,,009,1,2024-10-23_16h07.00.767,Surprise recog test,2023.1.3,59.98472792560985,
113,0,113,0,,,,,,,,,,,,,,,,,,,,,,,,,,,,,,,,,,718.5286991999019,719.5598515998572,715.6770933999214,715.6770933999214,715.6770933999214,715.6770933999214,new_sceneOut_40.png,114,2.0,2.847105600172654,,009,1,2024-10-23_16h07.00.767,Surprise recog test,2023.1.3,59.98472792560985,
114,0,114,0,,,,,,,,,,,,,,,,,,,,,,,,,,,,,,,,,,722.050121099921,723.0672545998823,719.5598515998572,719.5598515998572,719.5598515998572,719.5598515998572,new_sceneOut_23.png,115,2.0,2.4916474998462945,,009,1,2024-10-23_16h07.00.767,Surprise recog test,2023.1.3,59.98472792560985,
115,0,115,0,,,,,,,,,,,,,,,,,,,,,,,,,,,,,,,,,,724.688770899782,725.7139430998359,723.0672545998823,723.0672545998823,723.0672545998823,723.0672545998823,old_fruit_48.png,116,1.0,1.6194172000978142,,009,1,2024-10-23_16h07.00.767,Surprise recog test,2023.1.3,59.98472792560985,
116,0,116,0,,,,,,,,,,,,,,,,,,,,,,,,,,,,,,,,,,727.1679394999519,728.1889305999503,725.7139430998359,725.7139430998359,725.7139430998359,725.7139430998359,new_sceneOut_34.png,117,4.0,1.4576087000314146,,009,1,2024-10-23_16h07.00.767,Surprise recog test,2023.1.3,59.98472792560985,
117,0,117,0,,,,,,,,,,,,,,,,,,,,,,,,,,,,,,,,,,730.2638969998807,731.2857650998048,728.1889305999503,728.1889305999503,728.1889305999503,728.1889305999503,new_sceneOut_21.png,118,4.0,2.0723330001346767,,009,1,2024-10-23_16h07.00.767,Surprise recog test,2023.1.3,59.98472792560985,
118,0,118,0,,,,,,,,,,,,,,,,,,,,,,,,,,,,,,,,,,733.031280899886,734.0414268998429,731.2857650998048,731.2857650998048,731.2857650998048,731.2857650998048,new_fruit_47.png,119,5.0,1.7495506000705063,,009,1,2024-10-23_16h07.00.767,Surprise recog test,2023.1.3,59.98472792560985,
119,0,119,0,,,,,,,,,,,,,,,,,,,,,,,,,,,,,,,,,,736.1239667998161,737.1640619998798,734.0414268998429,734.0414268998429,734.0414268998429,734.0414268998429,new_sceneIn_46.png,120,5.0,2.078730799956247,,009,1,2024-10-23_16h07.00.767,Surprise recog test,2023.1.3,59.98472792560985,
120,0,120,0,,,,,,,,,,,,,,,,,,,,,,,,,,,,,,,,,,740.0651026999112,741.0805815998465,737.1640619998798,737.1640619998798,737.1640619998798,737.1640619998798,old_stationery_37.png,121,5.0,2.904809199972078,,009,1,2024-10-23_16h07.00.767,Surprise recog test,2023.1.3,59.98472792560985,
121,0,121,0,,,,,,,,,,,,,,,,,,,,,,,,,,,,,,,,,,742.7061950999778,743.7160268998705,741.0805815998465,741.0805815998465,741.0805815998465,741.0805815998465,new_stationery_2.png,122,5.0,1.6214755999390036,,009,1,2024-10-23_16h07.00.767,Surprise recog test,2023.1.3,59.98472792560985,
122,0,122,0,,,,,,,,,,,,,,,,,,,,,,,,,,,,,,,,,,745.7517604997847,746.7692236998118,743.7160268998705,743.7160268998705,743.7160268998705,743.7160268998705,old_sceneOut_44.png,123,4.0,2.0317722999025136,,009,1,2024-10-23_16h07.00.767,Surprise recog test,2023.1.3,59.98472792560985,
123,0,123,0,,,,,,,,,,,,,,,,,,,,,,,,,,,,,,,,,,748.131511699874,,746.7692236998118,746.7692236998118,746.7692236998118,746.7692236998118,new_fruit_40.png,124,1.0,1.358566600130871,,009,1,2024-10-23_16h07.00.767,Surprise recog test,2023.1.3,59.98472792560985,
124,0,124,0,,,,,,,,,,,,,,,,,,,,,,,,,,,,,,,,,,750.4930497999303,751.5053438998293,749.1541092998814,749.1541092998814,749.1541092998814,749.1541092998814,new_sceneOut_8.png,125,2.0,1.3349605000112206,,009,1,2024-10-23_16h07.00.767,Surprise recog test,2023.1.3,59.98472792560985,
125,0,125,0,,,,,,,,,,,,,,,,,,,,,,,,,,,,,,,,,,754.8740557997953,755.9057028999086,751.5053438998293,751.5053438998293,751.5053438998293,751.5053438998293,new_stationery_31.png,126,5.0,3.3626713000703603,,009,1,2024-10-23_16h07.00.767,Surprise recog test,2023.1.3,59.98472792560985,
126,0,126,0,,,,,,,,,,,,,,,,,,,,,,,,,,,,,,,,,,757.6537530999631,758.6741112999152,755.9057028999086,755.9057028999086,755.9057028999086,755.9057028999086,new_fruit_35.png,127,1.0,1.7437293999828398,,009,1,2024-10-23_16h07.00.767,Surprise recog test,2023.1.3,59.98472792560985,
127,0,127,0,,,,,,,,,,,,,,,,,,,,,,,,,,,,,,,,,,760.5060500998516,761.514801699901,758.6741112999152,758.6741112999152,758.6741112999152,758.6741112999152,new_fruit_37.png,128,2.0,1.8285481000784785,,009,1,2024-10-23_16h07.00.767,Surprise recog test,2023.1.3,59.98472792560985,
128,0,128,0,,,,,,,,,,,,,,,,,,,,,,,,,,,,,,,,,,762.8922141999938,763.8965797999408,761.514801699901,761.514801699901,761.514801699901,761.514801699901,old_sceneIn_41.png,129,4.0,1.3707907001953572,,009,1,2024-10-23_16h07.00.767,Surprise recog test,2023.1.3,59.98472792560985,
129,0,129,0,,,,,,,,,,,,,,,,,,,,,,,,,,,,,,,,,,765.8756360998377,766.8859122998547,763.8965797999408,763.8965797999408,763.8965797999408,763.8965797999408,new_stationery_20.png,130,5.0,1.9758770999033004,,009,1,2024-10-23_16h07.00.767,Surprise recog test,2023.1.3,59.98472792560985,
130,0,130,0,,,,,,,,,,,,,,,,,,,,,,,,,,,,,,,,,,767.9204350998625,768.9496743998025,766.8859122998547,766.8859122998547,766.8859122998547,766.8859122998547,new_stationery_11.png,131,5.0,1.0307183000259101,,009,1,2024-10-23_16h07.00.767,Surprise recog test,2023.1.3,59.98472792560985,
131,0,131,0,,,,,,,,,,,,,,,,,,,,,,,,,,,,,,,,,,770.76392269996,771.7822992999572,768.9496743998025,768.9496743998025,768.9496743998025,768.9496743998025,old_stationery_38.png,132,2.0,1.8137618000619113,,009,1,2024-10-23_16h07.00.767,Surprise recog test,2023.1.3,59.98472792560985,
132,0,132,0,,,,,,,,,,,,,,,,,,,,,,,,,,,,,,,,,,773.1321851999965,774.142337199999,771.7822992999572,771.7822992999572,771.7822992999572,771.7822992999572,old_fruit_50.png,133,2.0,1.3506051001604646,,009,1,2024-10-23_16h07.00.767,Surprise recog test,2023.1.3,59.98472792560985,
133,0,133,0,,,,,,,,,,,,,,,,,,,,,,,,,,,,,,,,,,776.4925712998956,777.5188924998511,774.142337199999,774.142337199999,774.142337199999,774.142337199999,new_sceneOut_20.png,134,3.0,2.3455654999706894,,009,1,2024-10-23_16h07.00.767,Surprise recog test,2023.1.3,59.98472792560985,
134,0,134,0,,,,,,,,,,,,,,,,,,,,,,,,,,,,,,,,,,778.9963055998087,780.0259173999075,777.5188924998511,777.5188924998511,777.5188924998511,777.5188924998511,new_sceneOut_44.png,135,4.0,1.4767421998549253,,009,1,2024-10-23_16h07.00.767,Surprise recog test,2023.1.3,59.98472792560985,
135,0,135,0,,,,,,,,,,,,,,,,,,,,,,,,,,,,,,,,,,781.3641626997851,782.3799909998197,780.0259173999075,780.0259173999075,780.0259173999075,780.0259173999075,new_fruit_13.png,136,1.0,1.3394637999590486,,009,1,2024-10-23_16h07.00.767,Surprise recog test,2023.1.3,59.98472792560985,
136,0,136,0,,,,,,,,,,,,,,,,,,,,,,,,,,,,,,,,,,783.2813654998317,784.3107574998867,782.3799909998197,782.3799909998197,782.3799909998197,782.3799909998197,old_fruit_49.png,137,1.0,0.8966576000675559,,009,1,2024-10-23_16h07.00.767,Surprise recog test,2023.1.3,59.98472792560985,
137,0,137,0,,,,,,,,,,,,,,,,,,,,,,,,,,,,,,,,,,785.8352139999624,786.8638370998669,784.3107574998867,784.3107574998867,784.3107574998867,784.3107574998867,old_stationery_47.png,138,5.0,1.5260818998795003,,009,1,2024-10-23_16h07.00.767,Surprise recog test,2023.1.3,59.98472792560985,
138,0,138,0,,,,,,,,,,,,,,,,,,,,,,,,,,,,,,,,,,788.521408099914,789.5535846999846,786.8638370998669,786.8638370998669,786.8638370998669,786.8638370998669,old_stationery_12.png,139,1.0,1.6602306000422686,,009,1,2024-10-23_16h07.00.767,Surprise recog test,2023.1.3,59.98472792560985,
139,0,139,0,,,,,,,,,,,,,,,,,,,,,,,,,,,,,,,,,,791.5897412998602,792.6233712998219,789.5535846999846,789.5535846999846,789.5535846999846,789.5535846999846,new_stationery_29.png,140,4.0,2.0359059998299927,,009,1,2024-10-23_16h07.00.767,Surprise recog test,2023.1.3,59.98472792560985,
140,0,140,0,,,,,,,,,,,,,,,,,,,,,,,,,,,,,,,,,,793.8724433998577,794.9035679998342,792.6233712998219,792.6233712998219,792.6233712998219,792.6233712998219,new_sceneIn_20.png,141,4.0,1.2484098998829722,,009,1,2024-10-23_16h07.00.767,Surprise recog test,2023.1.3,59.98472792560985,
141,0,141,0,,,,,,,,,,,,,,,,,,,,,,,,,,,,,,,,,,797.0531212999485,798.0761837998871,794.9035679998342,794.9035679998342,794.9035679998342,794.9035679998342,old_stationery_41.png,142,2.0,2.149665500037372,,009,1,2024-10-23_16h07.00.767,Surprise recog test,2023.1.3,59.98472792560985,
142,0,142,0,,,,,,,,,,,,,,,,,,,,,,,,,,,,,,,,,,800.143127999967,,798.0761837998871,798.0761837998871,798.0761837998871,798.0761837998871,new_sceneIn_43.png,143,4.0,2.0711159000638872,,009,1,2024-10-23_16h07.00.767,Surprise recog test,2023.1.3,59.98472792560985,
143,0,143,0,,,,,,,,,,,,,,,,,,,,,,,,,,,,,,,,,,804.8807095999364,,801.1741708999034,801.1741708999034,801.1741708999034,801.1741708999034,new_sceneOut_32.png,144,4.0,3.7065541001502424,,009,1,2024-10-23_16h07.00.767,Surprise recog test,2023.1.3,59.98472792560985,
144,0,144,0,,,,,,,,,,,,,,,,,,,,,,,,,,,,,,,,,,807.7355047999881,808.7548460999969,805.9080401998945,805.9080401998945,805.9080401998945,805.9080401998945,old_sceneIn_14.png,145,1.0,1.829787899972871,,009,1,2024-10-23_16h07.00.767,Surprise recog test,2023.1.3,59.98472792560985,
145,0,145,0,,,,,,,,,,,,,,,,,,,,,,,,,,,,,,,,,,811.3336788997985,,808.7548460999969,808.7548460999969,808.7548460999969,808.7548460999969,new_sceneIn_38.png,146,2.0,2.5773381001781672,,009,1,2024-10-23_16h07.00.767,Surprise recog test,2023.1.3,59.98472792560985,
146,0,146,0,,,,,,,,,,,,,,,,,,,,,,,,,,,,,,,,,,813.4383050999604,814.4658490999136,812.3543788997922,812.3543788997922,812.3543788997922,812.3543788997922,old_fruit_25.png,147,1.0,1.0803098999895155,,009,1,2024-10-23_16h07.00.767,Surprise recog test,2023.1.3,59.98472792560985,
147,0,147,0,,,,,,,,,,,,,,,,,,,,,,,,,,,,,,,,,,815.4279735998716,816.4551316997968,814.4658490999136,814.4658490999136,814.4658490999136,814.4658490999136,old_fruit_4.png,148,1.0,0.9646054999902844,,009,1,2024-10-23_16h07.00.767,Surprise recog test,2023.1.3,59.98472792560985,
148,0,148,0,,,,,,,,,,,,,,,,,,,,,,,,,,,,,,,,,,817.9716699998826,818.9906949999277,816.4551316997968,816.4551316997968,816.4551316997968,816.4551316997968,old_fruit_10.png,149,1.0,1.5163827000651509,,009,1,2024-10-23_16h07.00.767,Surprise recog test,2023.1.3,59.98472792560985,
149,0,149,0,,,,,,,,,,,,,,,,,,,,,,,,,,,,,,,,,,820.8818988997955,821.8978789998218,818.9906949999277,818.9906949999277,818.9906949999277,818.9906949999277,old_stationery_25.png,150,4.0,1.890535700134933,,009,1,2024-10-23_16h07.00.767,Surprise recog test,2023.1.3,59.98472792560985,
150,0,150,0,,,,,,,,,,,,,,,,,,,,,,,,,,,,,,,,,,823.9494568998925,824.9631951998454,821.8978789998218,821.8978789998218,821.8978789998218,821.8978789998218,old_stationery_8.png,151,4.0,2.0450438000261784,,009,1,2024-10-23_16h07.00.767,Surprise recog test,2023.1.3,59.98472792560985,
151,0,151,0,,,,,,,,,,,,,,,,,,,,,,,,,,,,,,,,,,825.9939396998379,826.9987961999141,824.9631951998454,824.9631951998454,824.9631951998454,824.9631951998454,new_stationery_12.png,152,4.0,1.024417500011623,,009,1,2024-10-23_16h07.00.767,Surprise recog test,2023.1.3,59.98472792560985,
152,0,152,0,,,,,,,,,,,,,,,,,,,,,,,,,,,,,,,,,,827.9665733999573,,826.9987961999141,826.9987961999141,826.9987961999141,826.9987961999141,new_stationery_44.png,153,4.0,0.9647993999533355,,009,1,2024-10-23_16h07.00.767,Surprise recog test,2023.1.3,59.98472792560985,
153,0,153,0,,,,,,,,,,,,,,,,,,,,,,,,,,,,,,,,,,831.6543517999817,832.6858970997855,828.9980132998899,828.9980132998899,828.9980132998899,828.9980132998899,new_stationery_37.png,154,4.0,2.6580669002141804,,009,1,2024-10-23_16h07.00.767,Surprise recog test,2023.1.3,59.98472792560985,
154,0,154,0,,,,,,,,,,,,,,,,,,,,,,,,,,,,,,,,,,834.0334767999593,835.0485355998389,832.6858970997855,832.6858970997855,832.6858970997855,832.6858970997855,new_fruit_27.png,155,1.0,1.3495914998929948,,009,1,2024-10-23_16h07.00.767,Surprise recog test,2023.1.3,59.98472792560985,
155,0,155,0,,,,,,,,,,,,,,,,,,,,,,,,,,,,,,,,,,836.0271870999131,837.0598129997961,835.0485355998389,835.0485355998389,835.0485355998389,835.0485355998389,old_stationery_14.png,156,1.0,0.9802485001273453,,009,1,2024-10-23_16h07.00.767,Surprise recog test,2023.1.3,59.98472792560985,
156,0,156,0,,,,,,,,,,,,,,,,,,,,,,,,,,,,,,,,,,838.7616422998253,839.7905061999336,837.0598129997961,837.0598129997961,837.0598129997961,837.0598129997961,new_sceneIn_6.png,157,5.0,1.7040280001237988,,009,1,2024-10-23_16h07.00.767,Surprise recog test,2023.1.3,59.98472792560985,
157,0,157,0,,,,,,,,,,,,,,,,,,,,,,,,,,,,,,,,,,842.0162594998255,843.0328424999025,839.7905061999336,839.7905061999336,839.7905061999336,839.7905061999336,new_stationery_9.png,158,3.0,2.2279533999972045,,009,1,2024-10-23_16h07.00.767,Surprise recog test,2023.1.3,59.98472792560985,
158,0,158,0,,,,,,,,,,,,,,,,,,,,,,,,,,,,,,,,,,845.4788023999427,,843.0328424999025,843.0328424999025,843.0328424999025,843.0328424999025,new_sceneOut_25.png,159,4.0,2.4401196998078376,,009,1,2024-10-23_16h07.00.767,Surprise recog test,2023.1.3,59.98472792560985,
159,0,159,0,,,,,,,,,,,,,,,,,,,,,,,,,,,,,,,,,,848.8257199998479,849.8335758999456,846.5144971997943,846.5144971997943,846.5144971997943,846.5144971997943,new_sceneIn_11.png,160,5.0,2.313804999925196,,009,1,2024-10-23_16h07.00.767,Surprise recog test,2023.1.3,59.98472792560985,
160,0,160,0,,,,,,,,,,,,,,,,,,,,,,,,,,,,,,,,,,851.5683238999918,,849.8335758999456,849.8335758999456,849.8335758999456,849.8335758999456,old_sceneOut_40.png,161,2.0,1.7296184001024812,,009,1,2024-10-23_16h07.00.767,Surprise recog test,2023.1.3,59.98472792560985,
161,0,161,0,,,,,,,,,,,,,,,,,,,,,,,,,,,,,,,,,,853.9003626999911,854.9070254999679,852.5865284998436,852.5865284998436,852.5865284998436,852.5865284998436,new_fruit_3.png,162,1.0,1.303864800138399,,009,1,2024-10-23_16h07.00.767,Surprise recog test,2023.1.3,59.98472792560985,
162,0,162,0,,,,,,,,,,,,,,,,,,,,,,,,,,,,,,,,,,856.4565278999507,,854.9070254999679,854.9070254999679,854.9070254999679,854.9070254999679,old_sceneIn_37.png,163,5.0,1.5453389999456704,,009,1,2024-10-23_16h07.00.767,Surprise recog test,2023.1.3,59.98472792560985,
163,0,163,0,,,,,,,,,,,,,,,,,,,,,,,,,,,,,,,,,,859.1880982997827,860.1943647000007,857.4733621999621,857.4733621999621,857.4733621999621,857.4733621999621,new_stationery_28.png,164,2.0,1.7042203999590129,,009,1,2024-10-23_16h07.00.767,Surprise recog test,2023.1.3,59.98472792560985,
164,0,164,0,,,,,,,,,,,,,,,,,,,,,,,,,,,,,,,,,,861.289703699993,862.2948425000068,860.1943647000007,860.1943647000007,860.1943647000007,860.1943647000007,old_fruit_3.png,165,1.0,1.0877357998397201,,009,1,2024-10-23_16h07.00.767,Surprise recog test,2023.1.3,59.98472792560985,
165,0,165,0,,,,,,,,,,,,,,,,,,,,,,,,,,,,,,,,,,863.7250576999504,864.7299919999205,862.2948425000068,862.2948425000068,862.2948425000068,862.2948425000068,old_stationery_6.png,166,5.0,1.42107899999246,,009,1,2024-10-23_16h07.00.767,Surprise recog test,2023.1.3,59.98472792560985,
166,0,166,0,,,,,,,,,,,,,,,,,,,,,,,,,,,,,,,,,,865.9102340999525,866.9153114999644,864.7299919999205,864.7299919999205,864.7299919999205,864.7299919999205,new_fruit_39.png,167,1.0,1.1699624999891967,,009,1,2024-10-23_16h07.00.767,Surprise recog test,2023.1.3,59.98472792560985,
167,0,167,0,,,,,,,,,,,,,,,,,,,,,,,,,,,,,,,,,,868.0954526998103,869.1006650999188,866.9153114999644,866.9153114999644,866.9153114999644,866.9153114999644,old_stationery_46.png,168,1.0,1.1699763000942767,,009,1,2024-10-23_16h07.00.767,Surprise recog test,2023.1.3,59.98472792560985,
168,0,168,0,,,,,,,,,,,,,,,,,,,,,,,,,,,,,,,,,,871.0979586998001,872.1032784997951,869.1006650999188,869.1006650999188,869.1006650999188,869.1006650999188,old_sceneIn_27.png,169,4.0,1.987953499890864,,009,1,2024-10-23_16h07.00.767,Surprise recog test,2023.1.3,59.98472792560985,
169,0,169,0,,,,,,,,,,,,,,,,,,,,,,,,,,,,,,,,,,873.0828791998792,874.0880399998277,872.1032784997951,872.1032784997951,872.1032784997951,872.1032784997951,old_sceneOut_31.png,170,4.0,0.9707027999684215,,009,1,2024-10-23_16h07.00.767,Surprise recog test,2023.1.3,59.98472792560985,
170,0,170,0,,,,,,,,,,,,,,,,,,,,,,,,,,,,,,,,,,875.401495500002,876.406120999949,874.0880399998277,874.0880399998277,874.0880399998277,874.0880399998277,new_sceneIn_48.png,171,4.0,1.303544599795714,,009,1,2024-10-23_16h07.00.767,Surprise recog test,2023.1.3,59.98472792560985,
171,0,171,0,,,,,,,,,,,,,,,,,,,,,,,,,,,,,,,,,,877.9869845998473,878.9920124998316,876.406120999949,876.406120999949,876.406120999949,876.406120999949,new_sceneIn_13.png,172,5.0,1.5709319000598043,,009,1,2024-10-23_16h07.00.767,Surprise recog test,2023.1.3,59.98472792560985,
172,0,172,0,,,,,,,,,,,,,,,,,,,,,,,,,,,,,,,,,,880.9060555999167,881.9111003999133,878.9920124998316,878.9920124998316,878.9920124998316,878.9920124998316,new_sceneOut_6.png,173,4.0,1.904393499949947,,009,1,2024-10-23_16h07.00.767,Surprise recog test,2023.1.3,59.98472792560985,
173,0,173,0,,,,,,,,,,,,,,,,,,,,,,,,,,,,,,,,,,885.0095133997966,886.0151633999776,881.9111003999133,881.9111003999133,881.9111003999133,881.9111003999133,old_sceneOut_22.png,174,5.0,3.088670799974352,,009,1,2024-10-23_16h07.00.767,Surprise recog test,2023.1.3,59.98472792560985,
174,0,174,0,,,,,,,,,,,,,,,,,,,,,,,,,,,,,,,,,,887.0778628999833,888.0830565998331,886.0151633999776,886.0151633999776,886.0151633999776,886.0151633999776,new_sceneIn_50.png,175,5.0,1.053503599949181,,009,1,2024-10-23_16h07.00.767,Surprise recog test,2023.1.3,59.98472792560985,
175,0,175,0,,,,,,,,,,,,,,,,,,,,,,,,,,,,,,,,,,888.8292766998056,889.8335015999619,888.0830565998331,888.0830565998331,888.0830565998331,888.0830565998331,old_sceneOut_6.png,176,5.0,0.7371956999413669,,009,1,2024-10-23_16h07.00.767,Surprise recog test,2023.1.3,59.98472792560985,
176,0,176,0,,,,,,,,,,,,,,,,,,,,,,,,,,,,,,,,,,891.3481715999078,892.3547549999785,889.8335015999619,889.8335015999619,889.8335015999619,889.8335015999619,new_stationery_5.png,177,5.0,1.504115599906072,,009,1,2024-10-23_16h07.00.767,Surprise recog test,2023.1.3,59.98472792560985,
177,0,177,0,,,,,,,,,,,,,,,,,,,,,,,,,,,,,,,,,,894.0169549998827,895.0224541998468,892.3547549999785,892.3547549999785,892.3547549999785,892.3547549999785,new_sceneOut_48.png,178,5.0,1.6552615000400692,,009,1,2024-10-23_16h07.00.767,Surprise recog test,2023.1.3,59.98472792560985,
178,0,178,0,,,,,,,,,,,,,,,,,,,,,,,,,,,,,,,,,,896.3691092999652,897.3779527998995,895.0224541998468,895.0224541998468,895.0224541998468,895.0224541998468,old_fruit_27.png,179,1.0,1.336828599916771,,009,1,2024-10-23_16h07.00.767,Surprise recog test,2023.1.3,59.98472792560985,
179,0,179,0,,,,,,,,,,,,,,,,,,,,,,,,,,,,,,,,,,898.6980527997948,899.7261668997817,897.3779527998995,897.3779527998995,897.3779527998995,897.3779527998995,old_sceneOut_27.png,180,4.0,1.31293010013178,,009,1,2024-10-23_16h07.00.767,Surprise recog test,2023.1.3,59.98472792560985,
180,0,180,0,,,,,,,,,,,,,,,,,,,,,,,,,,,,,,,,,,900.8317167998757,901.8478447999805,899.7261668997817,899.7261668997817,899.7261668997817,899.7261668997817,old_fruit_32.png,181,1.0,1.1073320000432432,,009,1,2024-10-23_16h07.00.767,Surprise recog test,2023.1.3,59.98472792560985,
181,0,181,0,,,,,,,,,,,,,,,,,,,,,,,,,,,,,,,,,,904.0054861998651,905.0282314999495,901.8478447999805,901.8478447999805,901.8478447999805,901.8478447999805,old_sceneOut_17.png,182,4.0,2.1509846998378634,,009,1,2024-10-23_16h07.00.767,Surprise recog test,2023.1.3,59.98472792560985,
182,0,182,0,,,,,,,,,,,,,,,,,,,,,,,,,,,,,,,,,,906.0278142997995,907.0356316999532,905.0282314999495,905.0282314999495,905.0282314999495,905.0282314999495,new_sceneIn_41.png,183,4.0,1.000160199822858,,009,1,2024-10-23_16h07.00.767,Surprise recog test,2023.1.3,59.98472792560985,
183,0,183,0,,,,,,,,,,,,,,,,,,,,,,,,,,,,,,,,,,908.6203101999126,909.6481884999666,907.0356316999532,907.0356316999532,907.0356316999532,907.0356316999532,new_stationery_42.png,184,2.0,1.5807660999707878,,009,1,2024-10-23_16h07.00.767,Surprise recog test,2023.1.3,59.98472792560985,
184,0,184,0,,,,,,,,,,,,,,,,,,,,,,,,,,,,,,,,,,912.2029132999014,,909.6481884999666,909.6481884999666,909.6481884999666,909.6481884999666,new_sceneIn_17.png,185,4.0,2.5558239000383765,,009,1,2024-10-23_16h07.00.767,Surprise recog test,2023.1.3,59.98472792560985,
185,0,185,0,,,,,,,,,,,,,,,,,,,,,,,,,,,,,,,,,,915.6674875000026,916.6889278998133,913.2352727998514,913.2352727998514,913.2352727998514,913.2352727998514,new_sceneOut_49.png,186,3.0,2.4339012999553233,,009,1,2024-10-23_16h07.00.767,Surprise recog test,2023.1.3,59.98472792560985,
186,0,186,0,,,,,,,,,,,,,,,,,,,,,,,,,,,,,,,,,,917.9254156998359,918.9615025999956,916.6889278998133,916.6889278998133,916.6889278998133,916.6889278998133,old_fruit_46.png,187,1.0,1.2388689999934286,,009,1,2024-10-23_16h07.00.767,Surprise recog test,2023.1.3,59.98472792560985,
187,0,187,0,,,,,,,,,,,,,,,,,,,,,,,,,,,,,,,,,,919.7551396999042,920.7729673997965,918.9615025999956,918.9615025999956,918.9615025999956,918.9615025999956,new_fruit_41.png,188,1.0,0.7967205999884754,,009,1,2024-10-23_16h07.00.767,Surprise recog test,2023.1.3,59.98472792560985,
188,0,188,0,,,,,,,,,,,,,,,,,,,,,,,,,,,,,,,,,,922.3706303997897,923.3980270999018,920.7729673997965,920.7729673997965,920.7729673997965,920.7729673997965,old_sceneIn_16.png,189,5.0,1.5972398000303656,,009,1,2024-10-23_16h07.00.767,Surprise recog test,2023.1.3,59.98472792560985,
189,0,189,0,,,,,,,,,,,,,,,,,,,,,,,,,,,,,,,,,,924.3664758999366,925.3978970998432,923.3980270999018,923.3980270999018,923.3980270999018,923.3980270999018,new_sceneIn_25.png,190,5.0,0.9692021999508142,,009,1,2024-10-23_16h07.00.767,Surprise recog test,2023.1.3,59.98472792560985,
190,0,190,0,,,,,,,,,,,,,,,,,,,,,,,,,,,,,,,,,,927.7630341998301,928.7797951998655,925.3978970998432,925.3978970998432,925.3978970998432,925.3978970998432,old_stationery_30.png,191,1.0,2.365909299813211,,009,1,2024-10-23_16h07.00.767,Surprise recog test,2023.1.3,59.98472792560985,
191,0,191,0,,,,,,,,,,,,,,,,,,,,,,,,,,,,,,,,,,929.5795740999747,930.6045863998588,928.7797951998655,928.7797951998655,928.7797951998655,928.7797951998655,new_stationery_1.png,192,1.0,0.803363700164482,,009,1,2024-10-23_16h07.00.767,Surprise recog test,2023.1.3,59.98472792560985,
192,0,192,0,,,,,,,,,,,,,,,,,,,,,,,,,,,,,,,,,,931.9655610998161,932.969880499877,930.6045863998588,930.6045863998588,930.6045863998588,930.6045863998588,new_stationery_30.png,193,2.0,1.3643426999915391,,009,1,2024-10-23_16h07.00.767,Surprise recog test,2023.1.3,59.98472792560985,
193,0,193,0,,,,,,,,,,,,,,,,,,,,,,,,,,,,,,,,,,934.4340593998786,935.4448141998146,932.969880499877,932.969880499877,932.969880499877,932.969880499877,old_sceneIn_21.png,194,4.0,1.4547047999221832,,009,1,2024-10-23_16h07.00.767,Surprise recog test,2023.1.3,59.98472792560985,
194,0,194,0,,,,,,,,,,,,,,,,,,,,,,,,,,,,,,,,,,937.5413137997966,938.5604203999974,935.4448141998146,935.4448141998146,935.4448141998146,935.4448141998146,new_stationery_48.png,195,1.0,2.0934630997944623,,009,1,2024-10-23_16h07.00.767,Surprise recog test,2023.1.3,59.98472792560985,
195,0,195,0,,,,,,,,,,,,,,,,,,,,,,,,,,,,,,,,,,940.2411950000096,,938.5604203999974,938.5604203999974,938.5604203999974,938.5604203999974,new_sceneIn_27.png,196,4.0,1.6772460998035967,,009,1,2024-10-23_16h07.00.767,Surprise recog test,2023.1.3,59.98472792560985,
196,0,196,0,,,,,,,,,,,,,,,,,,,,,,,,,,,,,,,,,,942.1910959999077,943.2125554999802,941.2592354998924,941.2592354998924,941.2592354998924,941.2592354998924,old_stationery_28.png,197,4.0,0.9278309000656009,,009,1,2024-10-23_16h07.00.767,Surprise recog test,2023.1.3,59.98472792560985,
197,0,197,0,,,,,,,,,,,,,,,,,,,,,,,,,,,,,,,,,,945.779043099843,,943.2125554999802,943.2125554999802,943.2125554999802,943.2125554999802,new_fruit_42.png,198,3.0,2.570237100124359,,009,1,2024-10-23_16h07.00.767,Surprise recog test,2023.1.3,59.98472792560985,
198,0,198,0,,,,,,,,,,,,,,,,,,,,,,,,,,,,,,,,,,948.2120949998498,949.2349234998692,946.812159499852,946.812159499852,946.812159499852,946.812159499852,new_sceneIn_35.png,199,4.0,1.399793199962005,,009,1,2024-10-23_16h07.00.767,Surprise recog test,2023.1.3,59.98472792560985,
199,0,199,0,,,,,,,,,,,,,,,,,,,,,,,,,,,,,,,,,,950.2237350998912,951.2497419998981,949.2349234998692,949.2349234998692,949.2349234998692,949.2349234998692,new_sceneOut_26.png,200,4.0,0.9906067999545485,,009,1,2024-10-23_16h07.00.767,Surprise recog test,2023.1.3,59.98472792560985,
200,0,200,0,,,,,,,,,,,,,,,,,,,,,,,,,,,,,,,,,,952.6071141997818,953.6339495999273,951.2497419998981,951.2497419998981,951.2497419998981,951.2497419998981,old_stationery_42.png,201,4.0,1.357890099985525,,009,1,2024-10-23_16h07.00.767,Surprise recog test,2023.1.3,59.98472792560985,
201,0,201,0,,,,,,,,,,,,,,,,,,,,,,,,,,,,,,,,,,954.4741674999241,955.5031753999647,953.6339495999273,953.6339495999273,953.6339495999273,953.6339495999273,new_sceneOut_18.png,202,4.0,0.8420533000025898,,009,1,2024-10-23_16h07.00.767,Surprise recog test,2023.1.3,59.98472792560985,
202,0,202,0,,,,,,,,,,,,,,,,,,,,,,,,,,,,,,,,,,956.8901569999289,,955.5031753999647,955.5031753999647,955.5031753999647,955.5031753999647,old_sceneIn_24.png,203,5.0,1.3885114002041519,,009,1,2024-10-23_16h07.00.767,Surprise recog test,2023.1.3,59.98472792560985,
203,0,203,0,,,,,,,,,,,,,,,,,,,,,,,,,,,,,,,,,,959.7027425998822,960.7116516998503,957.9224605998024,957.9224605998024,957.9224605998024,957.9224605998024,old_stationery_18.png,204,5.0,1.7816445000935346,,009,1,2024-10-23_16h07.00.767,Surprise recog test,2023.1.3,59.98472792560985,
204,0,204,0,,,,,,,,,,,,,,,,,,,,,,,,,,,,,,,,,,962.5406714999117,963.5455803999212,960.7116516998503,960.7116516998503,960.7116516998503,960.7116516998503,new_stationery_45.png,205,5.0,1.8250005000736564,,009,1,2024-10-23_16h07.00.767,Surprise recog test,2023.1.3,59.98472792560985,
205,0,205,0,,,,,,,,,,,,,,,,,,,,,,,,,,,,,,,,,,964.4974812997971,965.526130199898,963.5455803999212,963.5455803999212,963.5455803999212,963.5455803999212,new_sceneIn_8.png,206,5.0,0.9480073999147862,,009,1,2024-10-23_16h07.00.767,Surprise recog test,2023.1.3,59.98472792560985,
206,0,206,0,,,,,,,,,,,,,,,,,,,,,,,,,,,,,,,,,,966.3224841000047,967.3355572998989,965.526130199898,965.526130199898,965.526130199898,965.526130199898,old_sceneOut_13.png,207,5.0,0.7930233001243323,,009,1,2024-10-23_16h07.00.767,Surprise recog test,2023.1.3,59.98472792560985,
207,0,207,0,,,,,,,,,,,,,,,,,,,,,,,,,,,,,,,,,,968.3304734998383,969.3366496998351,967.3355572998989,967.3355572998989,967.3355572998989,967.3355572998989,old_sceneIn_49.png,208,5.0,0.9902973000425845,,009,1,2024-10-23_16h07.00.767,Surprise recog test,2023.1.3,59.98472792560985,
208,0,208,0,,,,,,,,,,,,,,,,,,,,,,,,,,,,,,,,,,971.3907555998303,972.4173210998997,969.3366496998351,969.3366496998351,969.3366496998351,969.3366496998351,old_sceneIn_8.png,209,5.0,2.0503546001855284,,009,1,2024-10-23_16h07.00.767,Surprise recog test,2023.1.3,59.98472792560985,
209,0,209,0,,,,,,,,,,,,,,,,,,,,,,,,,,,,,,,,,,974.5551191999111,,972.4173210998997,972.4173210998997,972.4173210998997,972.4173210998997,old_stationery_21.png,210,2.0,2.140336899785325,,009,1,2024-10-23_16h07.00.767,Surprise recog test,2023.1.3,59.98472792560985,
210,0,210,0,,,,,,,,,,,,,,,,,,,,,,,,,,,,,,,,,,976.4137130999006,977.4426738999318,975.5864583000075,975.5864583000075,975.5864583000075,975.5864583000075,old_stationery_4.png,211,2.0,0.8272121001500636,,009,1,2024-10-23_16h07.00.767,Surprise recog test,2023.1.3,59.98472792560985,
211,0,211,0,,,,,,,,,,,,,,,,,,,,,,,,,,,,,,,,,,978.6544753999915,979.6756712999195,977.4426738999318,977.4426738999318,977.4426738999318,977.4426738999318,old_fruit_36.png,212,1.0,1.2143117999657989,,009,1,2024-10-23_16h07.00.767,Surprise recog test,2023.1.3,59.98472792560985,
212,0,212,0,,,,,,,,,,,,,,,,,,,,,,,,,,,,,,,,,,981.2161021998618,982.232812399976,979.6756712999195,979.6756712999195,979.6756712999195,979.6756712999195,new_sceneIn_33.png,213,5.0,1.5435178999323398,,009,1,2024-10-23_16h07.00.767,Surprise recog test,2023.1.3,59.98472792560985,
213,0,213,0,,,,,,,,,,,,,,,,,,,,,,,,,,,,,,,,,,983.8629644999746,984.8882565998938,982.232812399976,982.232812399976,982.232812399976,982.232812399976,new_sceneIn_49.png,214,5.0,1.6266956999897957,,009,1,2024-10-23_16h07.00.767,Surprise recog test,2023.1.3,59.98472792560985,
214,0,214,0,,,,,,,,,,,,,,,,,,,,,,,,,,,,,,,,,,985.9363274998032,986.9717451999895,984.8882565998938,984.8882565998938,984.8882565998938,984.8882565998938,old_stationery_7.png,215,5.0,1.045268699992448,,009,1,2024-10-23_16h07.00.767,Surprise recog test,2023.1.3,59.98472792560985,
215,0,215,0,,,,,,,,,,,,,,,,,,,,,,,,,,,,,,,,,,989.0749460000079,990.1014394999947,986.9717451999895,986.9717451999895,986.9717451999895,986.9717451999895,new_stationery_36.png,216,3.0,2.1084431998897344,,009,1,2024-10-23_16h07.00.767,Surprise recog test,2023.1.3,59.98472792560985,
216,0,216,0,,,,,,,,,,,,,,,,,,,,,,,,,,,,,,,,,,991.2841577997897,,990.1014394999947,990.1014394999947,990.1014394999947,990.1014394999947,new_sceneOut_12.png,217,4.0,1.1846990999765694,,009,1,2024-10-23_16h07.00.767,Surprise recog test,2023.1.3,59.98472792560985,
217,0,217,0,,,,,,,,,,,,,,,,,,,,,,,,,,,,,,,,,,994.0751662999392,995.0939004998654,992.3187700000126,992.3187700000126,992.3187700000126,992.3187700000126,old_stationery_39.png,218,4.0,1.7575898000504822,,009,1,2024-10-23_16h07.00.767,Surprise recog test,2023.1.3,59.98472792560985,
218,0,218,0,,,,,,,,,,,,,,,,,,,,,,,,,,,,,,,,,,997.9658211998176,998.9754131999798,995.0939004998654,995.0939004998654,995.0939004998654,995.0939004998654,old_stationery_44.png,219,4.0,2.8692469999659806,,009,1,2024-10-23_16h07.00.767,Surprise recog test,2023.1.3,59.98472792560985,
219,0,219,0,,,,,,,,,,,,,,,,,,,,,,,,,,,,,,,,,,1000.2204147998709,1001.2310415999964,998.9754131999798,998.9754131999798,998.9754131999798,998.9754131999798,new_fruit_31.png,220,1.0,1.240218399791047,,009,1,2024-10-23_16h07.00.767,Surprise recog test,2023.1.3,59.98472792560985,
220,0,220,0,,,,,,,,,,,,,,,,,,,,,,,,,,,,,,,,,,1003.1516108999494,1004.1738896998577,1001.2310415999964,1001.2310415999964,1001.2310415999964,1001.2310415999964,new_sceneOut_3.png,221,2.0,1.9151260999497026,,009,1,2024-10-23_16h07.00.767,Surprise recog test,2023.1.3,59.98472792560985,
221,0,221,0,,,,,,,,,,,,,,,,,,,,,,,,,,,,,,,,,,1006.0130828998517,,1004.1738896998577,1004.1738896998577,1004.1738896998577,1004.1738896998577,new_sceneIn_28.png,222,4.0,1.8392262000124902,,009,1,2024-10-23_16h07.00.767,Surprise recog test,2023.1.3,59.98472792560985,
222,0,222,0,,,,,,,,,,,,,,,,,,,,,,,,,,,,,,,,,,1009.084382099798,1010.1113212998025,1007.0338790998794,1007.0338790998794,1007.0338790998794,1007.0338790998794,new_sceneOut_11.png,223,3.0,2.0474636999424547,,009,1,2024-10-23_16h07.00.767,Surprise recog test,2023.1.3,59.98472792560985,
223,0,223,0,,,,,,,,,,,,,,,,,,,,,,,,,,,,,,,,,,1011.4479867999908,1012.4660094999708,1010.1113212998025,1010.1113212998025,1010.1113212998025,1010.1113212998025,old_sceneOut_37.png,224,4.0,1.3383631000760943,,009,1,2024-10-23_16h07.00.767,Surprise recog test,2023.1.3,59.98472792560985,
224,0,224,0,,,,,,,,,,,,,,,,,,,,,,,,,,,,,,,,,,1013.5783626998309,1014.6057144999504,1012.4660094999708,1012.4660094999708,1012.4660094999708,1012.4660094999708,old_fruit_41.png,225,1.0,1.114069800125435,,009,1,2024-10-23_16h07.00.767,Surprise recog test,2023.1.3,59.98472792560985,
225,0,225,0,,,,,,,,,,,,,,,,,,,,,,,,,,,,,,,,,,1016.592501499923,1017.6111316999886,1014.6057144999504,1014.6057144999504,1014.6057144999504,1014.6057144999504,new_sceneIn_32.png,226,5.0,1.990197000093758,,009,1,2024-10-23_16h07.00.767,Surprise recog test,2023.1.3,59.98472792560985,
226,0,226,0,,,,,,,,,,,,,,,,,,,,,,,,,,,,,,,,,,1019.7850398998708,1020.806058799848,1017.6111316999886,1017.6111316999886,1017.6111316999886,1017.6111316999886,old_sceneOut_38.png,227,4.0,2.1695431999396533,,009,1,2024-10-23_16h07.00.767,Surprise recog test,2023.1.3,59.98472792560985,
227,0,227,0,,,,,,,,,,,,,,,,,,,,,,,,,,,,,,,,,,1022.4042501999065,1023.4274816999678,1020.806058799848,1020.806058799848,1020.806058799848,1020.806058799848,new_sceneOut_1.png,228,4.0,1.6005470999516547,,009,1,2024-10-23_16h07.00.767,Surprise recog test,2023.1.3,59.98472792560985,
228,0,228,0,,,,,,,,,,,,,,,,,,,,,,,,,,,,,,,,,,1025.0005487999879,1026.0320127999876,1023.4274816999678,1023.4274816999678,1023.4274816999678,1023.4274816999678,new_sceneIn_34.png,229,5.0,1.5732245000544935,,009,1,2024-10-23_16h07.00.767,Surprise recog test,2023.1.3,59.98472792560985,
229,0,229,0,,,,,,,,,,,,,,,,,,,,,,,,,,,,,,,,,,1028.1561561999843,1029.1833815998398,1026.0320127999876,1026.0320127999876,1026.0320127999876,1026.0320127999876,old_sceneIn_29.png,230,5.0,2.126303100027144,,009,1,2024-10-23_16h07.00.767,Surprise recog test,2023.1.3,59.98472792560985,
230,0,230,0,,,,,,,,,,,,,,,,,,,,,,,,,,,,,,,,,,1031.0545461999718,1032.0721965997946,1029.1833815998398,1029.1833815998398,1029.1833815998398,1029.1833815998398,old_stationery_45.png,231,5.0,1.875119399977848,,009,1,2024-10-23_16h07.00.767,Surprise recog test,2023.1.3,59.98472792560985,
231,0,231,0,,,,,,,,,,,,,,,,,,,,,,,,,,,,,,,,,,1033.7109479999635,1034.7296184999868,1032.0721965997946,1032.0721965997946,1032.0721965997946,1032.0721965997946,old_sceneIn_46.png,232,5.0,1.6324857999570668,,009,1,2024-10-23_16h07.00.767,Surprise recog test,2023.1.3,59.98472792560985,
232,0,232,0,,,,,,,,,,,,,,,,,,,,,,,,,,,,,,,,,,1036.3942048999015,1037.424619199941,1034.7296184999868,1034.7296184999868,1034.7296184999868,1034.7296184999868,new_fruit_14.png,233,1.0,1.6619591999333352,,009,1,2024-10-23_16h07.00.767,Surprise recog test,2023.1.3,59.98472792560985,
233,0,233,0,,,,,,,,,,,,,,,,,,,,,,,,,,,,,,,,,,1038.4622767998371,1039.4897999998648,1037.424619199941,1037.424619199941,1037.424619199941,1037.424619199941,old_stationery_16.png,234,1.0,1.0411483000498265,,009,1,2024-10-23_16h07.00.767,Surprise recog test,2023.1.3,59.98472792560985,
234,0,234,0,,,,,,,,,,,,,,,,,,,,,,,,,,,,,,,,,,1041.3315732998308,1042.3575819998514,1039.4897999998648,1039.4897999998648,1039.4897999998648,1039.4897999998648,old_sceneIn_20.png,235,2.0,1.8460230000782758,,009,1,2024-10-23_16h07.00.767,Surprise recog test,2023.1.3,59.98472792560985,
235,0,235,0,,,,,,,,,,,,,,,,,,,,,,,,,,,,,,,,,,1043.7917411997914,1044.797840599902,1042.3575819998514,1042.3575819998514,1042.3575819998514,1042.3575819998514,new_stationery_21.png,236,2.0,1.431052900152281,,009,1,2024-10-23_16h07.00.767,Surprise recog test,2023.1.3,59.98472792560985,
236,0,236,0,,,,,,,,,,,,,,,,,,,,,,,,,,,,,,,,,,1047.4280819999985,1048.4486400999594,1044.797840599902,1044.797840599902,1044.797840599902,1044.797840599902,old_stationery_5.png,237,3.0,2.6273450998123735,,009,1,2024-10-23_16h07.00.767,Surprise recog test,2023.1.3,59.98472792560985,
237,0,237,0,,,,,,,,,,,,,,,,,,,,,,,,,,,,,,,,,,1050.5367081998847,1051.5711955998559,1048.4486400999594,1048.4486400999594,1048.4486400999594,1048.4486400999594,new_sceneIn_37.png,238,4.0,2.0895281000994146,,009,1,2024-10-23_16h07.00.767,Surprise recog test,2023.1.3,59.98472792560985,
238,0,238,0,,,,,,,,,,,,,,,,,,,,,,,,,,,,,,,,,,1052.4361378999893,,1051.5711955998559,1051.5711955998559,1051.5711955998559,1051.5711955998559,old_sceneOut_48.png,239,4.0,0.8675768999382854,,009,1,2024-10-23_16h07.00.767,Surprise recog test,2023.1.3,59.98472792560985,
239,0,239,0,,,,,,,,,,,,,,,,,,,,,,,,,,,,,,,,,,1054.3509621999692,1055.3734029999468,1053.4738576998934,1053.4738576998934,1053.4738576998934,1053.4738576998934,new_sceneIn_5.png,240,4.0,0.8815022001508623,,009,1,2024-10-23_16h07.00.767,Surprise recog test,2023.1.3,59.98472792560985,
240,0,240,0,,,,,,,,,,,,,,,,,,,,,,,,,,,,,,,,,,1056.2422993998043,1057.2634618999436,1055.3734029999468,1055.3734029999468,1055.3734029999468,1055.3734029999468,new_sceneIn_45.png,241,4.0,0.8694654998835176,,009,1,2024-10-23_16h07.00.767,Surprise recog test,2023.1.3,59.98472792560985,
241,0,241,0,,,,,,,,,,,,,,,,,,,,,,,,,,,,,,,,,,1058.2999968999065,1059.308216799982,1057.2634618999436,1057.2634618999436,1057.2634618999436,1057.2634618999436,new_sceneIn_15.png,242,4.0,1.0369337999727577,,009,1,2024-10-23_16h07.00.767,Surprise recog test,2023.1.3,59.98472792560985,
242,0,242,0,,,,,,,,,,,,,,,,,,,,,,,,,,,,,,,,,,1060.6192375998944,1061.636888799956,1059.308216799982,1059.308216799982,1059.308216799982,1059.308216799982,new_fruit_36.png,243,1.0,1.3073144999798387,,009,1,2024-10-23_16h07.00.767,Surprise recog test,2023.1.3,59.98472792560985,
243,0,243,0,,,,,,,,,,,,,,,,,,,,,,,,,,,,,,,,,,1062.6431020998862,,1061.636888799956,1061.636888799956,1061.636888799956,1061.636888799956,old_fruit_31.png,244,1.0,1.0078656000550836,,009,1,2024-10-23_16h07.00.767,Surprise recog test,2023.1.3,59.98472792560985,
244,0,244,0,,,,,,,,,,,,,,,,,,,,,,,,,,,,,,,,,,1065.559767199913,1066.5791171998717,1063.6722030998208,1063.6722030998208,1063.6722030998208,1063.6722030998208,new_sceneOut_2.png,245,3.0,1.8877248000353575,,009,1,2024-10-23_16h07.00.767,Surprise recog test,2023.1.3,59.98472792560985,
245,0,245,0,,,,,,,,,,,,,,,,,,,,,,,,,,,,,,,,,,1068.936760299839,1069.9648546997923,1066.5791171998717,1066.5791171998717,1066.5791171998717,1066.5791171998717,old_stationery_27.png,246,2.0,2.357219399884343,,009,1,2024-10-23_16h07.00.767,Surprise recog test,2023.1.3,59.98472792560985,
246,0,246,0,,,,,,,,,,,,,,,,,,,,,,,,,,,,,,,,,,1071.2208705998491,1072.2523387998808,1069.9648546997923,1069.9648546997923,1069.9648546997923,1069.9648546997923,old_fruit_16.png,247,1.0,1.2576675000600517,,009,1,2024-10-23_16h07.00.767,Surprise recog test,2023.1.3,59.98472792560985,
247,0,247,0,,,,,,,,,,,,,,,,,,,,,,,,,,,,,,,,,,1073.0717914998531,1074.0925474998076,1072.2523387998808,1072.2523387998808,1072.2523387998808,1072.2523387998808,new_fruit_45.png,248,1.0,0.8201263998635113,,009,1,2024-10-23_16h07.00.767,Surprise recog test,2023.1.3,59.98472792560985,
248,0,248,0,,,,,,,,,,,,,,,,,,,,,,,,,,,,,,,,,,1075.3924066999462,1076.410202999832,1074.0925474998076,1074.0925474998076,1074.0925474998076,1074.0925474998076,new_sceneOut_15.png,249,2.0,1.297571900067851,,009,1,2024-10-23_16h07.00.767,Surprise recog test,2023.1.3,59.98472792560985,
249,0,249,0,,,,,,,,,,,,,,,,,,,,,,,,,,,,,,,,,,1079.182303099893,1080.2098373998888,1076.410202999832,1076.410202999832,1076.410202999832,1076.410202999832,new_sceneIn_47.png,250,3.0,2.767225099960342,,009,1,2024-10-23_16h07.00.767,Surprise recog test,2023.1.3,59.98472792560985,
250,0,250,0,,,,,,,,,,,,,,,,,,,,,,,,,,,,,,,,,,1082.6319296997972,1083.6541773998179,1080.2098373998888,1080.2098373998888,1080.2098373998888,1080.2098373998888,old_stationery_19.png,251,4.0,2.4213563001248986,,009,1,2024-10-23_16h07.00.767,Surprise recog test,2023.1.3,59.98472792560985,
251,0,251,0,,,,,,,,,,,,,,,,,,,,,,,,,,,,,,,,,,1085.3156546999235,1086.3523043999448,1083.6541773998179,1083.6541773998179,1083.6541773998179,1083.6541773998179,old_fruit_47.png,252,1.0,1.6607681999448687,,009,1,2024-10-23_16h07.00.767,Surprise recog test,2023.1.3,59.98472792560985,
252,0,252,0,,,,,,,,,,,,,,,,,,,,,,,,,,,,,,,,,,1087.0121355999727,1088.03225069982,1086.3523043999448,1086.3523043999448,1086.3523043999448,1086.3523043999448,new_fruit_38.png,253,1.0,0.664789600064978,,009,1,2024-10-23_16h07.00.767,Surprise recog test,2023.1.3,59.98472792560985,
253,0,253,0,,,,,,,,,,,,,,,,,,,,,,,,,,,,,,,,,,1090.5741824998986,1091.5930801997893,1088.03225069982,1088.03225069982,1088.03225069982,1088.03225069982,old_sceneIn_19.png,254,5.0,2.5418338000308722,,009,1,2024-10-23_16h07.00.767,Surprise recog test,2023.1.3,59.98472792560985,
254,0,254,0,,,,,,,,,,,,,,,,,,,,,,,,,,,,,,,,,,1092.5659457999282,1093.5856276999693,1091.5930801997893,1091.5930801997893,1091.5930801997893,1091.5930801997893,old_fruit_18.png,255,1.0,0.9686280000023544,,009,1,2024-10-23_16h07.00.767,Surprise recog test,2023.1.3,59.98472792560985,
255,0,255,0,,,,,,,,,,,,,,,,,,,,,,,,,,,,,,,,,,1095.9624651998747,1096.9871879999992,1093.5856276999693,1093.5856276999693,1093.5856276999693,1093.5856276999693,old_stationery_1.png,256,3.0,2.379001900088042,,009,1,2024-10-23_16h07.00.767,Surprise recog test,2023.1.3,59.98472792560985,
256,0,256,0,,,,,,,,,,,,,,,,,,,,,,,,,,,,,,,,,,1098.108211999992,1099.1288556999061,1096.9871879999992,1096.9871879999992,1096.9871879999992,1096.9871879999992,new_sceneOut_30.png,257,2.0,1.1209871999453753,,009,1,2024-10-23_16h07.00.767,Surprise recog test,2023.1.3,59.98472792560985,
257,0,257,0,,,,,,,,,,,,,,,,,,,,,,,,,,,,,,,,,,1100.6417740997858,,1099.1288556999061,1099.1288556999061,1099.1288556999061,1099.1288556999061,old_sceneOut_47.png,258,2.0,1.5072129999753088,,009,1,2024-10-23_16h07.00.767,Surprise recog test,2023.1.3,59.98472792560985,
258,0,258,0,,,,,,,,,,,,,,,,,,,,,,,,,,,,,,,,,,1102.7239313998725,1103.7369334998075,1101.6741334998515,1101.6741334998515,1101.6741334998515,1101.6741334998515,old_stationery_2.png,259,2.0,1.0449572000652552,,009,1,2024-10-23_16h07.00.767,Surprise recog test,2023.1.3,59.98472792560985,
259,0,259,0,,,,,,,,,,,,,,,,,,,,,,,,,,,,,,,,,,1104.914957099827,1105.9345178999938,1103.7369334998075,1103.7369334998075,1103.7369334998075,1103.7369334998075,new_fruit_21.png,260,1.0,1.1792654998134822,,009,1,2024-10-23_16h07.00.767,Surprise recog test,2023.1.3,59.98472792560985,
260,0,260,0,,,,,,,,,,,,,,,,,,,,,,,,,,,,,,,,,,1106.9109455998987,1107.9189479998313,1105.9345178999938,1105.9345178999938,1105.9345178999938,1105.9345178999938,new_fruit_26.png,261,1.0,0.9715770001057535,,009,1,2024-10-23_16h07.00.767,Surprise recog test,2023.1.3,59.98472792560985,
261,0,261,0,,,,,,,,,,,,,,,,,,,,,,,,,,,,,,,,,,1108.6206979998387,1109.6372542998288,1107.9189479998313,1107.9189479998313,1107.9189479998313,1107.9189479998313,old_fruit_34.png,262,1.0,0.6975445998832583,,009,1,2024-10-23_16h07.00.767,Surprise recog test,2023.1.3,59.98472792560985,
262,0,262,0,,,,,,,,,,,,,,,,,,,,,,,,,,,,,,,,,,1111.6241293000057,1112.6508649999741,1109.6372542998288,1109.6372542998288,1109.6372542998288,1109.6372542998288,new_sceneOut_24.png,263,3.0,1.9805473999585956,,009,1,2024-10-23_16h07.00.767,Surprise recog test,2023.1.3,59.98472792560985,
263,0,263,0,,,,,,,,,,,,,,,,,,,,,,,,,,,,,,,,,,1114.8078647998627,1115.833051999798,1112.6508649999741,1112.6508649999741,1112.6508649999741,1112.6508649999741,old_sceneIn_45.png,264,4.0,2.1592272999696434,,009,1,2024-10-23_16h07.00.767,Surprise recog test,2023.1.3,59.98472792560985,
264,0,264,0,,,,,,,,,,,,,,,,,,,,,,,,,,,,,,,,,,1117.1199308999348,1118.1400416998658,1115.833051999798,1115.833051999798,1115.833051999798,1115.833051999798,new_stationery_26.png,265,4.0,1.2891518000978976,,009,1,2024-10-23_16h07.00.767,Surprise recog test,2023.1.3,59.98472792560985,
265,0,265,0,,,,,,,,,,,,,,,,,,,,,,,,,,,,,,,,,,1119.517774199834,1120.5408806998748,1118.1400416998658,1118.1400416998658,1118.1400416998658,1118.1400416998658,new_stationery_8.png,266,4.0,1.3774701999500394,,009,1,2024-10-23_16h07.00.767,Surprise recog test,2023.1.3,59.98472792560985,
266,0,266,0,,,,,,,,,,,,,,,,,,,,,,,,,,,,,,,,,,1122.6498559999745,1123.670755899977,1120.5408806998748,1120.5408806998748,1120.5408806998748,1120.5408806998748,old_sceneIn_47.png,267,2.0,2.1103701000101864,,009,1,2024-10-23_16h07.00.767,Surprise recog test,2023.1.3,59.98472792560985,
267,0,267,0,,,,,,,,,,,,,,,,,,,,,,,,,,,,,,,,,,1125.6667125998065,1126.6845393998083,1123.670755899977,1123.670755899977,1123.670755899977,1123.670755899977,new_sceneIn_44.png,268,4.0,1.993819799972698,,009,1,2024-10-23_16h07.00.767,Surprise recog test,2023.1.3,59.98472792560985,
268,0,268,0,,,,,,,,,,,,,,,,,,,,,,,,,,,,,,,,,,1128.105350599857,1129.1349802999757,1126.6845393998083,1126.6845393998083,1126.6845393998083,1126.6845393998083,old_stationery_43.png,269,1.0,1.4168710999656469,,009,1,2024-10-23_16h07.00.767,Surprise recog test,2023.1.3,59.98472792560985,
269,0,269,0,,,,,,,,,,,,,,,,,,,,,,,,,,,,,,,,,,1130.8518754998222,1131.8684835999738,1129.1349802999757,1129.1349802999757,1129.1349802999757,1129.1349802999757,new_sceneIn_23.png,270,5.0,1.7211152000818402,,009,1,2024-10-23_16h07.00.767,Surprise recog test,2023.1.3,59.98472792560985,
270,0,270,0,,,,,,,,,,,,,,,,,,,,,,,,,,,,,,,,,,1133.1401378998999,1134.1694971998222,1131.8684835999738,1131.8684835999738,1131.8684835999738,1131.8684835999738,new_sceneIn_18.png,271,5.0,1.2678841999731958,,009,1,2024-10-23_16h07.00.767,Surprise recog test,2023.1.3,59.98472792560985,
271,0,271,0,,,,,,,,,,,,,,,,,,,,,,,,,,,,,,,,,,1134.887636799831,,1134.1694971998222,1134.1694971998222,1134.1694971998222,1134.1694971998222,old_sceneOut_36.png,272,5.0,0.7192035000771284,,009,1,2024-10-23_16h07.00.767,Surprise recog test,2023.1.3,59.98472792560985,
272,0,272,0,,,,,,,,,,,,,,,,,,,,,,,,,,,,,,,,,,1137.297576899873,1138.3217482999898,1135.9072045998182,1135.9072045998182,1135.9072045998182,1135.9072045998182,old_fruit_20.png,273,1.0,1.388014999916777,,009,1,2024-10-23_16h07.00.767,Surprise recog test,2023.1.3,59.98472792560985,
273,0,273,0,,,,,,,,,,,,,,,,,,,,,,,,,,,,,,,,,,1139.9104031999595,1140.9441543999128,1138.3217482999898,1138.3217482999898,1138.3217482999898,1138.3217482999898,new_stationery_10.png,274,2.0,1.5902656000107527,,009,1,2024-10-23_16h07.00.767,Surprise recog test,2023.1.3,59.98472792560985,
274,0,274,0,,,,,,,,,,,,,,,,,,,,,,,,,,,,,,,,,,1142.3317295999732,1143.355445599882,1140.9441543999128,1140.9441543999128,1140.9441543999128,1140.9441543999128,new_sceneIn_10.png,275,5.0,1.3913404000923038,,009,1,2024-10-23_16h07.00.767,Surprise recog test,2023.1.3,59.98472792560985,
275,0,275,0,,,,,,,,,,,,,,,,,,,,,,,,,,,,,,,,,,1144.108961299993,1145.127013299847,1143.355445599882,1143.355445599882,1143.355445599882,1143.355445599882,old_sceneOut_49.png,276,5.0,0.7536309999413788,,009,1,2024-10-23_16h07.00.767,Surprise recog test,2023.1.3,59.98472792560985,
276,0,276,0,,,,,,,,,,,,,,,,,,,,,,,,,,,,,,,,,,1147.2569269000087,1148.2706898998003,1145.127013299847,1145.127013299847,1145.127013299847,1145.127013299847,new_stationery_14.png,277,4.0,2.129728099796921,,009,1,2024-10-23_16h07.00.767,Surprise recog test,2023.1.3,59.98472792560985,
277,0,277,0,,,,,,,,,,,,,,,,,,,,,,,,,,,,,,,,,,1150.382961699972,,1148.2706898998003,1148.2706898998003,1148.2706898998003,1148.2706898998003,old_sceneOut_42.png,278,4.0,2.106364900013432,,009,1,2024-10-23_16h07.00.767,Surprise recog test,2023.1.3,59.98472792560985,
278,0,278,0,,,,,,,,,,,,,,,,,,,,,,,,,,,,,,,,,,1152.4183400999755,,1151.4151916999836,1151.4151916999836,1151.4151916999836,1151.4151916999836,new_sceneIn_3.png,279,4.0,1.0056433000136167,,009,1,2024-10-23_16h07.00.767,Surprise recog test,2023.1.3,59.98472792560985,
279,0,279,0,,,,,,,,,,,,,,,,,,,,,,,,,,,,,,,,,,1155.3001830999274,1156.3095132999588,1153.4536185998004,1153.4536185998004,1153.4536185998004,1153.4536185998004,new_stationery_39.png,280,4.0,1.8496962999925017,,009,1,2024-10-23_16h07.00.767,Surprise recog test,2023.1.3,59.98472792560985,
280,0,280,0,,,,,,,,,,,,,,,,,,,,,,,,,,,,,,,,,,1157.4362561998423,1158.456324099796,1156.3095132999588,1156.3095132999588,1156.3095132999588,1156.3095132999588,old_sceneOut_34.png,281,4.0,1.1203910999465734,,009,1,2024-10-23_16h07.00.767,Surprise recog test,2023.1.3,59.98472792560985,
281,0,281,0,,,,,,,,,,,,,,,,,,,,,,,,,,,,,,,,,,1160.1209306998644,1161.1461268998682,1158.456324099796,1158.456324099796,1158.456324099796,1158.456324099796,old_sceneIn_6.png,282,1.0,1.6639485000632703,,009,1,2024-10-23_16h07.00.767,Surprise recog test,2023.1.3,59.98472792560985,
282,0,282,0,,,,,,,,,,,,,,,,,,,,,,,,,,,,,,,,,,1162.0299849999137,1163.0444040999282,1161.1461268998682,1161.1461268998682,1161.1461268998682,1161.1461268998682,new_stationery_16.png,283,1.0,0.8844509001355618,,009,1,2024-10-23_16h07.00.767,Surprise recog test,2023.1.3,59.98472792560985,
283,0,283,0,,,,,,,,,,,,,,,,,,,,,,,,,,,,,,,,,,1164.5040476999711,1165.521571099991,1163.0444040999282,1163.0444040999282,1163.0444040999282,1163.0444040999282,new_sceneOut_36.png,284,4.0,1.4535226998850703,,009,1,2024-10-23_16h07.00.767,Surprise recog test,2023.1.3,59.98472792560985,
284,0,284,0,,,,,,,,,,,,,,,,,,,,,,,,,,,,,,,,,,1166.903897299897,1167.9296765998006,1165.521571099991,1165.521571099991,1165.521571099991,1165.521571099991,new_sceneIn_14.png,285,4.0,1.3780942000448704,,009,1,2024-10-23_16h07.00.767,Surprise recog test,2023.1.3,59.98472792560985,
285,0,285,0,,,,,,,,,,,,,,,,,,,,,,,,,,,,,,,,,,1169.8316936998162,,1167.9296765998006,1167.9296765998006,1167.9296765998006,1167.9296765998006,old_stationery_50.png,286,1.0,1.9038050998933613,,009,1,2024-10-23_16h07.00.767,Surprise recog test,2023.1.3,59.98472792560985,
286,0,286,0,,,,,,,,,,,,,,,,,,,,,,,,,,,,,,,,,,1171.7011721997987,,1170.8691795999184,1170.8691795999184,1170.8691795999184,1170.8691795999184,old_sceneOut_30.png,287,1.0,0.8376602998469025,,009,1,2024-10-23_16h07.00.767,Surprise recog test,2023.1.3,59.98472792560985,
287,0,287,0,,,,,,,,,,,,,,,,,,,,,,,,,,,,,,,,,,1175.0807174998336,1176.1060587000102,1172.7336023999378,1172.7336023999378,1172.7336023999378,1172.7336023999378,new_stationery_41.png,288,1.0,2.3465150999836624,,009,1,2024-10-23_16h07.00.767,Surprise recog test,2023.1.3,59.98472792560985,
288,0,288,0,,,,,,,,,,,,,,,,,,,,,,,,,,,,,,,,,,1177.6612992999144,1178.688937400002,1176.1060587000102,1176.1060587000102,1176.1060587000102,1176.1060587000102,new_sceneIn_24.png,289,4.0,1.5522884000092745,,009,1,2024-10-23_16h07.00.767,Surprise recog test,2023.1.3,59.98472792560985,
289,0,289,0,,,,,,,,,,,,,,,,,,,,,,,,,,,,,,,,,,1179.4219217000064,1180.4435133999214,1178.688937400002,1178.688937400002,1178.688937400002,1178.688937400002,old_sceneOut_25.png,290,5.0,0.7358079999685287,,009,1,2024-10-23_16h07.00.767,Surprise recog test,2023.1.3,59.98472792560985,
290,0,290,0,,,,,,,,,,,,,,,,,,,,,,,,,,,,,,,,,,1181.4561522998847,1182.4786873999983,1180.4435133999214,1180.4435133999214,1180.4435133999214,1180.4435133999214,new_fruit_25.png,291,1.0,1.0135005998890847,,009,1,2024-10-23_16h07.00.767,Surprise recog test,2023.1.3,59.98472792560985,
291,0,291,0,,,,,,,,,,,,,,,,,,,,,,,,,,,,,,,,,,1183.1894845999777,1184.204900899902,1182.4786873999983,1182.4786873999983,1182.4786873999983,1182.4786873999983,old_sceneOut_41.png,292,4.0,0.7142010999377817,,009,1,2024-10-23_16h07.00.767,Surprise recog test,2023.1.3,59.98472792560985,
292,0,292,0,,,,,,,,,,,,,,,,,,,,,,,,,,,,,,,,,,1186.3108634999953,1187.318922800012,1184.204900899902,1184.204900899902,1184.204900899902,1184.204900899902,new_sceneIn_42.png,293,2.0,2.105940000154078,,009,1,2024-10-23_16h07.00.767,Surprise recog test,2023.1.3,59.98472792560985,
293,0,293,0,,,,,,,,,,,,,,,,,,,,,,,,,,,,,,,,,,1188.655845399946,1189.6707844999619,1187.318922800012,1187.318922800012,1187.318922800012,1187.318922800012,new_sceneIn_36.png,294,4.0,1.3316182000562549,,009,1,2024-10-23_16h07.00.767,Surprise recog test,2023.1.3,59.98472792560985,
294,0,294,0,,,,,,,,,,,,,,,,,,,,,,,,,,,,,,,,,,1190.8285376999993,1191.8523606997915,1189.6707844999619,1189.6707844999619,1189.6707844999619,1189.6707844999619,old_fruit_38.png,295,1.0,1.1540991000365466,,009,1,2024-10-23_16h07.00.767,Surprise recog test,2023.1.3,59.98472792560985,
295,0,295,0,,,,,,,,,,,,,,,,,,,,,,,,,,,,,,,,,,1193.782999199815,1194.7905462998897,1191.8523606997915,1191.8523606997915,1191.8523606997915,1191.8523606997915,old_sceneOut_23.png,296,4.0,1.933574500028044,,009,1,2024-10-23_16h07.00.767,Surprise recog test,2023.1.3,59.98472792560985,
296,0,296,0,,,,,,,,,,,,,,,,,,,,,,,,,,,,,,,,,,1196.270414599916,1197.2893711999059,1194.7905462998897,1194.7905462998897,1194.7905462998897,1194.7905462998897,old_stationery_48.png,297,2.0,1.4753652999643236,,009,1,2024-10-23_16h07.00.767,Surprise recog test,2023.1.3,59.98472792560985,
297,0,297,0,,,,,,,,,,,,,,,,,,,,,,,,,,,,,,,,,,1198.484710499877,1199.4952865999658,1197.2893711999059,1197.2893711999059,1197.2893711999059,1197.2893711999059,new_fruit_23.png,298,2.0,1.1982121001929045,,009,1,2024-10-23_16h07.00.767,Surprise recog test,2023.1.3,59.98472792560985,
298,0,298,0,,,,,,,,,,,,,,,,,,,,,,,,,,,,,,,,,,1200.7549715999048,1201.7740785998758,1199.4952865999658,1199.4952865999658,1199.4952865999658,1199.4952865999658,new_sceneOut_38.png,299,4.0,1.2558377999812365,,009,1,2024-10-23_16h07.00.767,Surprise recog test,2023.1.3,59.98472792560985,
299,0,299,0,,,,,,,,,,,,,,,,,,,,,,,,,,,,,,,,,,1203.0065854999702,1204.0271795999724,1201.7740785998758,1201.7740785998758,1201.7740785998758,1201.7740785998758,new_sceneIn_40.png,300,5.0,1.2333011999726295,,009,1,2024-10-23_16h07.00.767,Surprise recog test,2023.1.3,59.98472792560985,
300,0,300,0,,,,,,,,,,,,,,,,,,,,,,,,,,,,,,,,,,1205.3596542999148,1206.380220499821,1204.0271795999724,1204.0271795999724,1204.0271795999724,1204.0271795999724,new_fruit_30.png,301,3.0,1.3338184000458568,,009,1,2024-10-23_16h07.00.767,Surprise recog test,2023.1.3,59.98472792560985,
301,0,301,0,,,,,,,,,,,,,,,,,,,,,,,,,,,,,,,,,,1207.7245261999778,1208.735794399865,1206.380220499821,1206.380220499821,1206.380220499821,1206.380220499821,old_sceneOut_46.png,302,4.0,1.3467756998725235,,009,1,2024-10-23_16h07.00.767,Surprise recog test,2023.1.3,59.98472792560985,
302,0,302,0,,,,,,,,,,,,,,,,,,,,,,,,,,,,,,,,,,1209.7787283998914,1210.7877115998417,1208.735794399865,1208.735794399865,1208.735794399865,1208.735794399865,new_stationery_3.png,303,2.0,1.03823780012317,,009,1,2024-10-23_16h07.00.767,Surprise recog test,2023.1.3,59.98472792560985,
303,0,303,0,,,,,,,,,,,,,,,,,,,,,,,,,,,,,,,,,,1212.40688509983,1213.4238502997905,1210.7877115998417,1210.7877115998417,1210.7877115998417,1210.7877115998417,new_fruit_43.png,304,3.0,1.6143610998988152,,009,1,2024-10-23_16h07.00.767,Surprise recog test,2023.1.3,59.98472792560985,
304,0,304,0,,,,,,,,,,,,,,,,,,,,,,,,,,,,,,,,,,1215.072624599794,1216.090783599997,1213.4238502997905,1213.4238502997905,1213.4238502997905,1213.4238502997905,old_fruit_6.png,305,2.0,1.6448878000956029,,009,1,2024-10-23_16h07.00.767,Surprise recog test,2023.1.3,59.98472792560985,
305,0,305,0,,,,,,,,,,,,,,,,,,,,,,,,,,,,,,,,,,1217.43274999992,1218.4450636999682,1216.090783599997,1216.090783599997,1216.090783599997,1216.090783599997,new_sceneOut_14.png,306,4.0,1.3355378000997007,,009,1,2024-10-23_16h07.00.767,Surprise recog test,2023.1.3,59.98472792560985,
306,0,306,0,,,,,,,,,,,,,,,,,,,,,,,,,,,,,,,,,,1220.371653799899,1221.3901272998191,1218.4450636999682,1218.4450636999682,1218.4450636999682,1218.4450636999682,old_stationery_35.png,307,2.0,1.9165703998878598,,009,1,2024-10-23_16h07.00.767,Surprise recog test,2023.1.3,59.98472792560985,
307,0,307,0,,,,,,,,,,,,,,,,,,,,,,,,,,,,,,,,,,1222.4065675998572,1223.4429618997965,1221.3901272998191,1221.3901272998191,1221.3901272998191,1221.3901272998191,new_sceneOut_13.png,308,4.0,1.0130976000800729,,009,1,2024-10-23_16h07.00.767,Surprise recog test,2023.1.3,59.98472792560985,
308,0,308,0,,,,,,,,,,,,,,,,,,,,,,,,,,,,,,,,,,1224.5759105999023,1225.5840982999653,1223.4429618997965,1223.4429618997965,1223.4429618997965,1223.4429618997965,old_fruit_30.png,309,2.0,1.1455844999291003,,009,1,2024-10-23_16h07.00.767,Surprise recog test,2023.1.3,59.98472792560985,
309,0,309,0,,,,,,,,,,,,,,,,,,,,,,,,,,,,,,,,,,1226.8034781999886,1227.8184992999304,1225.5840982999653,1225.5840982999653,1225.5840982999653,1225.5840982999653,new_sceneOut_29.png,310,4.0,1.217414400074631,,009,1,2024-10-23_16h07.00.767,Surprise recog test,2023.1.3,59.98472792560985,
310,0,310,0,,,,,,,,,,,,,,,,,,,,,,,,,,,,,,,,,,1228.9308149998542,,1227.8184992999304,1227.8184992999304,1227.8184992999304,1227.8184992999304,old_fruit_28.png,311,2.0,1.105720299994573,,009,1,2024-10-23_16h07.00.767,Surprise recog test,2023.1.3,59.98472792560985,
311,0,311,0,,,,,,,,,,,,,,,,,,,,,,,,,,,,,,,,,,1231.0880813999102,1232.1172105998266,1229.9612983998377,1229.9612983998377,1229.9612983998377,1229.9612983998377,new_fruit_49.png,312,2.0,1.1295513999648392,,009,1,2024-10-23_16h07.00.767,Surprise recog test,2023.1.3,59.98472792560985,
312,0,312,0,,,,,,,,,,,,,,,,,,,,,,,,,,,,,,,,,,1233.4582287999801,1234.4852365998086,1232.1172105998266,1232.1172105998266,1232.1172105998266,1232.1172105998266,old_sceneIn_11.png,313,4.0,1.3403407998848706,,009,1,2024-10-23_16h07.00.767,Surprise recog test,2023.1.3,59.98472792560985,
313,0,313,0,,,,,,,,,,,,,,,,,,,,,,,,,,,,,,,,,,1235.832223000005,1236.8386742998846,1234.4852365998086,1234.4852365998086,1234.4852365998086,1234.4852365998086,new_sceneOut_41.png,314,4.0,1.347980200080201,,009,1,2024-10-23_16h07.00.767,Surprise recog test,2023.1.3,59.98472792560985,
314,0,314,0,,,,,,,,,,,,,,,,,,,,,,,,,,,,,,,,,,1237.9217278999276,,1236.8386742998846,1236.8386742998846,1236.8386742998846,1236.8386742998846,old_fruit_40.png,315,2.0,1.0765184999909252,,009,1,2024-10-23_16h07.00.767,Surprise recog test,2023.1.3,59.98472792560985,
315,0,315,0,,,,,,,,,,,,,,,,,,,,,,,,,,,,,,,,,,1239.9774993997999,1241.0104847999755,1238.943586600013,1238.943586600013,1238.943586600013,1238.943586600013,old_fruit_12.png,316,2.0,1.0306752000469714,,009,1,2024-10-23_16h07.00.767,Surprise recog test,2023.1.3,59.98472792560985,
316,0,316,0,,,,,,,,,,,,,,,,,,,,,,,,,,,,,,,,,,1242.439946499886,1243.4616717000026,1241.0104847999755,1241.0104847999755,1241.0104847999755,1241.0104847999755,new_sceneOut_22.png,317,1.0,1.4333224999718368,,009,1,2024-10-23_16h07.00.767,Surprise recog test,2023.1.3,59.98472792560985,
317,0,317,0,,,,,,,,,,,,,,,,,,,,,,,,,,,,,,,,,,1244.1262462998275,1245.1443556000013,1243.4616717000026,1243.4616717000026,1243.4616717000026,1243.4616717000026,old_fruit_13.png,318,1.0,0.6667509998660535,,009,1,2024-10-23_16h07.00.767,Surprise recog test,2023.1.3,59.98472792560985,
318,0,318,0,,,,,,,,,,,,,,,,,,,,,,,,,,,,,,,,,,1246.3404162998777,1247.367347399937,1245.1443556000013,1245.1443556000013,1245.1443556000013,1245.1443556000013,old_sceneIn_23.png,319,5.0,1.1947755999863148,,009,1,2024-10-23_16h07.00.767,Surprise recog test,2023.1.3,59.98472792560985,
319,0,319,0,,,,,,,,,,,,,,,,,,,,,,,,,,,,,,,,,,1248.9297787998803,1249.9366947999224,1247.367347399937,1247.367347399937,1247.367347399937,1247.367347399937,new_stationery_40.png,320,2.0,1.5670141999144107,,009,1,2024-10-23_16h07.00.767,Surprise recog test,2023.1.3,59.98472792560985,
320,0,320,0,,,,,,,,,,,,,,,,,,,,,,,,,,,,,,,,,,1250.766307399841,,1249.9366947999224,1249.9366947999224,1249.9366947999224,1249.9366947999224,old_stationery_26.png,321,2.0,0.8260925998911262,,009,1,2024-10-23_16h07.00.767,Surprise recog test,2023.1.3,59.98472792560985,
321,0,321,0,,,,,,,,,,,,,,,,,,,,,,,,,,,,,,,,,,1253.1290051999968,1254.1408106999006,1251.7891061999835,1251.7891061999835,1251.7891061999835,1251.7891061999835,new_sceneIn_19.png,322,4.0,1.3352377000264823,,009,1,2024-10-23_16h07.00.767,Surprise recog test,2023.1.3,59.98472792560985,
322,0,322,0,,,,,,,,,,,,,,,,,,,,,,,,,,,,,,,,,,1255.2176089999266,1256.240442099981,1254.1408106999006,1254.1408106999006,1254.1408106999006,1254.1408106999006,old_stationery_3.png,323,2.0,1.072332700015977,,009,1,2024-10-23_16h07.00.767,Surprise recog test,2023.1.3,59.98472792560985,
323,0,323,0,,,,,,,,,,,,,,,,,,,,,,,,,,,,,,,,,,1257.4650932999793,1258.4743949999101,1256.240442099981,1256.240442099981,1256.240442099981,1256.240442099981,new_sceneIn_12.png,324,2.0,1.227637300034985,,009,1,2024-10-23_16h07.00.767,Surprise recog test,2023.1.3,59.98472792560985,
324,0,324,0,,,,,,,,,,,,,,,,,,,,,,,,,,,,,,,,,,1259.7544075998012,1260.771468799794,1258.4743949999101,1258.4743949999101,1258.4743949999101,1258.4743949999101,old_sceneIn_40.png,325,5.0,1.2738295998424292,,009,1,2024-10-23_16h07.00.767,Surprise recog test,2023.1.3,59.98472792560985,
325,0,325,0,,,,,,,,,,,,,,,,,,,,,,,,,,,,,,,,,,1261.990269499831,1263.0114541999064,1260.771468799794,1260.771468799794,1260.771468799794,1260.771468799794,new_sceneOut_7.png,326,2.0,1.2175205999519676,,009,1,2024-10-23_16h07.00.767,Surprise recog test,2023.1.3,59.98472792560985,
326,0,326,0,,,,,,,,,,,,,,,,,,,,,,,,,,,,,,,,,,1264.2349181999452,1265.2583972997963,1263.0114541999064,1263.0114541999064,1263.0114541999064,1263.0114541999064,old_sceneOut_32.png,327,4.0,1.2260773999150842,,009,1,2024-10-23_16h07.00.767,Surprise recog test,2023.1.3,59.98472792560985,
327,0,327,0,,,,,,,,,,,,,,,,,,,,,,,,,,,,,,,,,,1266.666177699808,1267.6978880998213,1265.2583972997963,1265.2583972997963,1265.2583972997963,1265.2583972997963,old_sceneOut_15.png,328,4.0,1.4070647000335157,,009,1,2024-10-23_16h07.00.767,Surprise recog test,2023.1.3,59.98472792560985,
328,0,328,0,,,,,,,,,,,,,,,,,,,,,,,,,,,,,,,,,,1268.3646711998153,,1267.6978880998213,1267.6978880998213,1267.6978880998213,1267.6978880998213,new_sceneOut_45.png,329,4.0,0.6698464001528919,,009,1,2024-10-23_16h07.00.767,Surprise recog test,2023.1.3,59.98472792560985,
329,0,329,0,,,,,,,,,,,,,,,,,,,,,,,,,,,,,,,,,,1271.3306266998406,1272.3407921998296,1269.3853496999945,1269.3853496999945,1269.3853496999945,1269.3853496999945,old_stationery_24.png,330,1.0,1.9398443999234587,,009,1,2024-10-23_16h07.00.767,Surprise recog test,2023.1.3,59.98472792560985,
330,0,330,0,,,,,,,,,,,,,,,,,,,,,,,,,,,,,,,,,,1273.569497199962,,1272.3407921998296,1272.3407921998296,1272.3407921998296,1272.3407921998296,new_sceneOut_39.png,331,3.0,1.2258888999931514,,009,1,2024-10-23_16h07.00.767,Surprise recog test,2023.1.3,59.98472792560985,
331,0,331,0,,,,,,,,,,,,,,,,,,,,,,,,,,,,,,,,,,1275.5429697998334,1276.5718323998153,1274.6007779999636,1274.6007779999636,1274.6007779999636,1274.6007779999636,new_stationery_47.png,332,4.0,0.9451996998395771,,009,1,2024-10-23_16h07.00.767,Surprise recog test,2023.1.3,59.98472792560985,
332,0,332,0,,,,,,,,,,,,,,,,,,,,,,,,,,,,,,,,,,1277.8410036999267,1278.870013799984,1276.5718323998153,1276.5718323998153,1276.5718323998153,1276.5718323998153,old_sceneIn_33.png,333,4.0,1.2721245000138879,,009,1,2024-10-23_16h07.00.767,Surprise recog test,2023.1.3,59.98472792560985,
333,0,333,0,,,,,,,,,,,,,,,,,,,,,,,,,,,,,,,,,,1279.8858636999503,1280.89780279994,1278.870013799984,1278.870013799984,1278.870013799984,1278.870013799984,old_fruit_26.png,334,1.0,1.0181605000980198,,009,1,2024-10-23_16h07.00.767,Surprise recog test,2023.1.3,59.98472792560985,
334,0,334,0,,,,,,,,,,,,,,,,,,,,,,,,,,,,,,,,,,1281.8425408999901,,1280.89780279994,1280.89780279994,1280.89780279994,1280.89780279994,old_fruit_33.png,335,1.0,0.9402133000548929,,009,1,2024-10-23_16h07.00.767,Surprise recog test,2023.1.3,59.98472792560985,
335,0,335,0,,,,,,,,,,,,,,,,,,,,,,,,,,,,,,,,,,1284.2858653999865,1285.3105303999037,1282.8766975000035,1282.8766975000035,1282.8766975000035,1282.8766975000035,new_sceneIn_7.png,336,5.0,1.401386900106445,,009,1,2024-10-23_16h07.00.767,Surprise recog test,2023.1.3,59.98472792560985,
336,0,336,0,,,,,,,,,,,,,,,,,,,,,,,,,,,,,,,,,,1286.3998898998834,1287.4145094999112,1285.3105303999037,1285.3105303999037,1285.3105303999037,1285.3105303999037,new_sceneOut_9.png,337,5.0,1.0901291000191122,,009,1,2024-10-23_16h07.00.767,Surprise recog test,2023.1.3,59.98472792560985,
337,0,337,0,,,,,,,,,,,,,,,,,,,,,,,,,,,,,,,,,,1288.1890151000116,1289.2196572998073,1287.4145094999112,1287.4145094999112,1287.4145094999112,1287.4145094999112,new_sceneOut_43.png,338,5.0,0.7696579999756068,,009,1,2024-10-23_16h07.00.767,Surprise recog test,2023.1.3,59.98472792560985,
338,0,338,0,,,,,,,,,,,,,,,,,,,,,,,,,,,,,,,,,,1289.9576270999387,1290.9690963998437,1289.2196572998073,1289.2196572998073,1289.2196572998073,1289.2196572998073,new_sceneOut_47.png,339,5.0,0.7424775999970734,,009,1,2024-10-23_16h07.00.767,Surprise recog test,2023.1.3,59.98472792560985,
339,0,339,0,,,,,,,,,,,,,,,,,,,,,,,,,,,,,,,,,,1292.2707960999105,1293.30244089989,1290.9690963998437,1290.9690963998437,1290.9690963998437,1290.9690963998437,new_fruit_9.png,340,2.0,1.2943828001152724,,009,1,2024-10-23_16h07.00.767,Surprise recog test,2023.1.3,59.98472792560985,
340,0,340,0,,,,,,,,,,,,,,,,,,,,,,,,,,,,,,,,,,1294.956425699871,1295.976964399917,1293.30244089989,1293.30244089989,1293.30244089989,1293.30244089989,old_sceneOut_28.png,341,2.0,1.6565660999622196,,009,1,2024-10-23_16h07.00.767,Surprise recog test,2023.1.3,59.98472792560985,
341,0,341,0,,,,,,,,,,,,,,,,,,,,,,,,,,,,,,,,,,1297.4939621000085,1298.5226226998493,1295.976964399917,1295.976964399917,1295.976964399917,1295.976964399917,old_stationery_33.png,342,1.0,1.5123135999310762,,009,1,2024-10-23_16h07.00.767,Surprise recog test,2023.1.3,59.98472792560985,
342,0,342,0,,,,,,,,,,,,,,,,,,,,,,,,,,,,,,,,,,1300.9305065998342,1301.9635051998775,1298.5226226998493,1298.5226226998493,1298.5226226998493,1298.5226226998493,old_sceneIn_28.png,343,4.0,2.410347400000319,,009,1,2024-10-23_16h07.00.767,Surprise recog test,2023.1.3,59.98472792560985,
343,0,343,0,,,,,,,,,,,,,,,,,,,,,,,,,,,,,,,,,,1303.5070332998876,1304.5310169998556,1301.9635051998775,1301.9635051998775,1301.9635051998775,1301.9635051998775,new_sceneOut_17.png,344,1.0,1.5466628998983651,,009,1,2024-10-23_16h07.00.767,Surprise recog test,2023.1.3,59.98472792560985,
344,0,344,0,,,,,,,,,,,,,,,,,,,,,,,,,,,,,,,,,,1305.6114533999935,,1304.5310169998556,1304.5310169998556,1304.5310169998556,1304.5310169998556,old_stationery_11.png,345,4.0,1.0835551999043673,,009,1,2024-10-23_16h07.00.767,Surprise recog test,2023.1.3,59.98472792560985,
345,0,345,0,,,,,,,,,,,,,,,,,,,,,,,,,,,,,,,,,,1307.5064122998156,1308.5196136999875,1306.633625099901,1306.633625099901,1306.633625099901,1306.633625099901,new_fruit_1.png,346,2.0,0.866743499878794,,009,1,2024-10-23_16h07.00.767,Surprise recog test,2023.1.3,59.98472792560985,
346,0,346,0,,,,,,,,,,,,,,,,,,,,,,,,,,,,,,,,,,1309.504079299979,1310.5413973999675,1308.5196136999875,1308.5196136999875,1308.5196136999875,1308.5196136999875,new_fruit_6.png,347,2.0,0.9807675001211464,,009,1,2024-10-23_16h07.00.767,Surprise recog test,2023.1.3,59.98472792560985,
347,0,347,0,,,,,,,,,,,,,,,,,,,,,,,,,,,,,,,,,,1311.392410499975,1312.4088695999235,1310.5413973999675,1310.5413973999675,1310.5413973999675,1310.5413973999675,new_fruit_48.png,348,2.0,0.8557021000888199,,009,1,2024-10-23_16h07.00.767,Surprise recog test,2023.1.3,59.98472792560985,
348,0,348,0,,,,,,,,,,,,,,,,,,,,,,,,,,,,,,,,,,1313.745328999823,1314.7677028998733,1312.4088695999235,1312.4088695999235,1312.4088695999235,1312.4088695999235,old_sceneIn_3.png,349,4.0,1.333016499876976,,009,1,2024-10-23_16h07.00.767,Surprise recog test,2023.1.3,59.98472792560985,
349,0,349,0,,,,,,,,,,,,,,,,,,,,,,,,,,,,,,,,,,1315.6508378998842,1316.6551910999697,1314.7677028998733,1314.7677028998733,1314.7677028998733,1314.7677028998733,old_sceneOut_19.png,350,4.0,0.8857639001216739,,009,1,2024-10-23_16h07.00.767,Surprise recog test,2023.1.3,59.98472792560985,
350,0,350,0,,,,,,,,,,,,,,,,,,,,,,,,,,,,,,,,,,1317.6026991999242,1318.625685099978,1316.6551910999697,1316.6551910999697,1316.6551910999697,1316.6551910999697,old_fruit_21.png,351,2.0,0.9375775998923928,,009,1,2024-10-23_16h07.00.767,Surprise recog test,2023.1.3,59.98472792560985,
351,0,351,0,,,,,,,,,,,,,,,,,,,,,,,,,,,,,,,,,,1319.839219499845,1320.8426049998961,1318.625685099978,1318.625685099978,1318.625685099978,1318.625685099978,new_fruit_44.png,352,3.0,1.216186699923128,,009,1,2024-10-23_16h07.00.767,Surprise recog test,2023.1.3,59.98472792560985,
352,0,352,0,,,,,,,,,,,,,,,,,,,,,,,,,,,,,,,,,,1322.733624199871,1323.7559835999273,1320.8426049998961,1320.8426049998961,1320.8426049998961,1320.8426049998961,old_sceneIn_5.png,353,2.0,1.8860860001295805,,009,1,2024-10-23_16h07.00.767,Surprise recog test,2023.1.3,59.98472792560985,
353,0,353,0,,,,,,,,,,,,,,,,,,,,,,,,,,,,,,,,,,1324.7341099998448,1325.7621350998525,1323.7559835999273,1323.7559835999273,1323.7559835999273,1323.7559835999273,old_sceneIn_2.png,354,4.0,0.9784166000317782,,009,1,2024-10-23_16h07.00.767,Surprise recog test,2023.1.3,59.98472792560985,
354,0,354,0,,,,,,,,,,,,,,,,,,,,,,,,,,,,,,,,,,1327.5606352000032,1328.580252799904,1325.7621350998525,1325.7621350998525,1325.7621350998525,1325.7621350998525,old_fruit_9.png,355,2.0,1.8002925000619143,,009,1,2024-10-23_16h07.00.767,Surprise recog test,2023.1.3,59.98472792560985,
