trial_loop.thisRepN,trial_loop.thisTrialN,trial_loop.thisN,trial_loop.thisIndex,VAS_slider.started,VAS_text.started,VAS_notstressed_text.started,VAS_stressed_text.started,continue_input.started,continue_text.started,label0.started,label10.started,label20.started,label30.started,label40.started,label50.started,label60.started,label70.started,label80.started,label90.started,label100.started,VAS_slider.response,VAS_slider.rt,VAS_slider.history,Answer_VAS,continue_input.keys,instruction_text.started,continue_text_2.started,continue_input_2.started,continue_input_2.keys,continue_input_2.rt,continue_input_2.duration,example_text.started,example_slider_2.started,example_image.started,example_slider_2.response,example_slider_2.rt,fixcross.started,fixcross.stopped,front_square.started,stim_images.started,trial_inst_images.started,slider_images.started,thisImg,trial_count,slider_images.response,slider_images.rt,outro.started,participant,condition,date,expName,psychopyVersion,frameRate,
,,,,1068.8773890000011,1068.8773890000011,1068.8773890000011,1068.8773890000011,1068.8773890000011,1068.8773890000011,1068.8773890000011,1068.8773890000011,1068.8773890000011,1068.8773890000011,1068.8773890000011,1068.8773890000011,1068.8773890000011,1068.8773890000011,1068.8773890000011,1068.8773890000011,1068.8773890000011,0.9499999999999997,4.911841399996774,"[(0.9499999999999997, 4.911841399996774)]",0.9499999999999997,None,,,,,,,,,,,,,,,,,,,,,,,012,0,2024-11-15_14h18.24.684,Surprise recog test,2023.1.3,59.85425488400272,
,,,,,,,,,,,,,,,,,,,,,,,,,,1073.8188452000031,1073.8188452000031,1073.8188452000031,space,50.59875580001972,None,,,,,,,,,,,,,,,,,012,0,2024-11-15_14h18.24.684,Surprise recog test,2023.1.3,59.85425488400272,
0,0,0,0,,,,,,,,,,,,,,,,,,,,,,,,,,,,,1124.5414714000071,1124.5414714000071,1124.5414714000071,5.0,9.566603799990844,1139.4654333000071,1140.4794579000154,1135.0770292000088,1135.0770292000088,1135.0770292000088,1135.0770292000088,old_fruit_23.png,1,2.0,4.390500899986364,,012,0,2024-11-15_14h18.24.684,Surprise recog test,2023.1.3,59.85425488400272,
1,0,1,0,,,,,,,,,,,,,,,,,,,,,,,,,,,,,,,,,,1143.9520776999998,1144.9771889999975,1140.4794579000154,1140.4794579000154,1140.4794579000154,1140.4794579000154,old_sceneOut_28.png,2,2.0,3.468632300005993,,012,0,2024-11-15_14h18.24.684,Surprise recog test,2023.1.3,59.85425488400272,
2,0,2,0,,,,,,,,,,,,,,,,,,,,,,,,,,,,,,,,,,1147.6433094000095,1148.666919100011,1144.9771889999975,1144.9771889999975,1144.9771889999975,1144.9771889999975,old_sceneOut_20.png,3,1.0,2.666040299984161,,012,0,2024-11-15_14h18.24.684,Surprise recog test,2023.1.3,59.85425488400272,
3,0,3,0,,,,,,,,,,,,,,,,,,,,,,,,,,,,,,,,,,1151.4181640000024,,1148.666919100011,1148.666919100011,1148.666919100011,1148.666919100011,new_sceneOut_2.png,4,2.0,2.75164770000265,,012,0,2024-11-15_14h18.24.684,Surprise recog test,2023.1.3,59.85425488400272,
4,0,4,0,,,,,,,,,,,,,,,,,,,,,,,,,,,,,,,,,,1157.2359912999964,1158.2531706000154,1152.444177199999,1152.444177199999,1152.444177199999,1152.444177199999,old_fruit_32.png,5,3.0,4.791416599997319,,012,0,2024-11-15_14h18.24.684,Surprise recog test,2023.1.3,59.85425488400272,
5,0,5,0,,,,,,,,,,,,,,,,,,,,,,,,,,,,,,,,,,1162.6199574000202,1163.6467015999951,1158.2531706000154,1158.2531706000154,1158.2531706000154,1158.2531706000154,new_sceneIn_11.png,6,2.0,4.368296299973736,,012,0,2024-11-15_14h18.24.684,Surprise recog test,2023.1.3,59.85425488400272,
6,0,6,0,,,,,,,,,,,,,,,,,,,,,,,,,,,,,,,,,,1167.3428143000056,1168.3592396000167,1163.6467015999951,1163.6467015999951,1163.6467015999951,1163.6467015999951,new_stationery_42.png,7,4.0,3.698903499986045,,012,0,2024-11-15_14h18.24.684,Surprise recog test,2023.1.3,59.85425488400272,
7,0,7,0,,,,,,,,,,,,,,,,,,,,,,,,,,,,,,,,,,1170.8541330000153,1171.8853634000116,1168.3592396000167,1168.3592396000167,1168.3592396000167,1168.3592396000167,new_fruit_49.png,8,3.0,2.491262399998959,,012,0,2024-11-15_14h18.24.684,Surprise recog test,2023.1.3,59.85425488400272,
8,0,8,0,,,,,,,,,,,,,,,,,,,,,,,,,,,,,,,,,,1174.6226584000106,1175.642946100008,1171.8853634000116,1171.8853634000116,1171.8853634000116,1171.8853634000116,new_sceneOut_10.png,9,1.0,2.736840800003847,,012,0,2024-11-15_14h18.24.684,Surprise recog test,2023.1.3,59.85425488400272,
9,0,9,0,,,,,,,,,,,,,,,,,,,,,,,,,,,,,,,,,,1178.5391635000124,,1175.642946100008,1175.642946100008,1175.642946100008,1175.642946100008,old_stationery_26.png,10,1.0,2.8961499000142794,,012,0,2024-11-15_14h18.24.684,Surprise recog test,2023.1.3,59.85425488400272,
10,0,10,0,,,,,,,,,,,,,,,,,,,,,,,,,,,,,,,,,,1182.6098396000161,,1179.5721617999952,1179.5721617999952,1179.5721617999952,1179.5721617999952,old_sceneIn_27.png,11,2.0,3.040974700008519,,012,0,2024-11-15_14h18.24.684,Surprise recog test,2023.1.3,59.85425488400272,
11,0,11,0,,,,,,,,,,,,,,,,,,,,,,,,,,,,,,,,,,1186.0434466000006,1187.0517001000117,1183.6444856000016,1183.6444856000016,1183.6444856000016,1183.6444856000016,old_fruit_42.png,12,4.0,2.395298299990827,,012,0,2024-11-15_14h18.24.684,Surprise recog test,2023.1.3,59.85425488400272,
12,0,12,0,,,,,,,,,,,,,,,,,,,,,,,,,,,,,,,,,,1189.0141562000208,,1187.0517001000117,1187.0517001000117,1187.0517001000117,1187.0517001000117,old_stationery_5.png,13,1.0,1.9588648999924771,,012,0,2024-11-15_14h18.24.684,Surprise recog test,2023.1.3,59.85425488400272,
13,0,13,0,,,,,,,,,,,,,,,,,,,,,,,,,,,,,,,,,,1193.0972504999954,1194.1073920000053,1190.0459308999998,1190.0459308999998,1190.0459308999998,1190.0459308999998,old_fruit_36.png,14,3.0,3.0531366000068374,,012,0,2024-11-15_14h18.24.684,Surprise recog test,2023.1.3,59.85425488400272,
14,0,14,0,,,,,,,,,,,,,,,,,,,,,,,,,,,,,,,,,,1195.9014061000198,1196.9205584000156,1194.1073920000053,1194.1073920000053,1194.1073920000053,1194.1073920000053,new_stationery_23.png,15,2.0,1.7923587000113912,,012,0,2024-11-15_14h18.24.684,Surprise recog test,2023.1.3,59.85425488400272,
15,0,15,0,,,,,,,,,,,,,,,,,,,,,,,,,,,,,,,,,,1198.856545000017,,1196.9205584000156,1196.9205584000156,1196.9205584000156,1196.9205584000156,new_sceneIn_38.png,16,2.0,1.936986299988348,,012,0,2024-11-15_14h18.24.684,Surprise recog test,2023.1.3,59.85425488400272,
16,0,16,0,,,,,,,,,,,,,,,,,,,,,,,,,,,,,,,,,,1201.594588900014,1202.6217658999958,1199.8913050999981,1199.8913050999981,1199.8913050999981,1199.8913050999981,old_sceneIn_21.png,17,2.0,1.705952599993907,,012,0,2024-11-15_14h18.24.684,Surprise recog test,2023.1.3,59.85425488400272,
17,0,17,0,,,,,,,,,,,,,,,,,,,,,,,,,,,,,,,,,,1204.883292500017,1205.9147773000004,1202.6217658999958,1202.6217658999958,1202.6217658999958,1202.6217658999958,new_stationery_21.png,18,5.0,2.2596663999720477,,012,0,2024-11-15_14h18.24.684,Surprise recog test,2023.1.3,59.85425488400272,
18,0,18,0,,,,,,,,,,,,,,,,,,,,,,,,,,,,,,,,,,1208.1033696999948,1209.128126800002,1205.9147773000004,1205.9147773000004,1205.9147773000004,1205.9147773000004,old_sceneIn_39.png,19,1.0,2.191944699996384,,012,0,2024-11-15_14h18.24.684,Surprise recog test,2023.1.3,59.85425488400272,
19,0,19,0,,,,,,,,,,,,,,,,,,,,,,,,,,,,,,,,,,1210.8446364999982,1211.8642424000136,1209.128126800002,1209.128126800002,1209.128126800002,1209.128126800002,old_sceneIn_24.png,20,1.0,1.7177773999865167,,012,0,2024-11-15_14h18.24.684,Surprise recog test,2023.1.3,59.85425488400272,
20,0,20,0,,,,,,,,,,,,,,,,,,,,,,,,,,,,,,,,,,1214.0677194000164,1215.0843735999952,1211.8642424000136,1211.8642424000136,1211.8642424000136,1211.8642424000136,new_sceneIn_39.png,21,3.0,2.205449100001715,,012,0,2024-11-15_14h18.24.684,Surprise recog test,2023.1.3,59.85425488400272,
21,0,21,0,,,,,,,,,,,,,,,,,,,,,,,,,,,,,,,,,,1217.4718877999985,,1215.0843735999952,1215.0843735999952,1215.0843735999952,1215.0843735999952,new_stationery_49.png,22,4.0,2.386771999998018,,012,0,2024-11-15_14h18.24.684,Surprise recog test,2023.1.3,59.85425488400272,
22,0,22,0,,,,,,,,,,,,,,,,,,,,,,,,,,,,,,,,,,1220.5990506999951,1221.62111930002,1218.493440100021,1218.493440100021,1218.493440100021,1218.493440100021,old_sceneOut_39.png,23,1.0,2.0999099999899045,,012,0,2024-11-15_14h18.24.684,Surprise recog test,2023.1.3,59.85425488400272,
23,0,23,0,,,,,,,,,,,,,,,,,,,,,,,,,,,,,,,,,,1224.916840699996,1225.9477311999945,1221.62111930002,1221.62111930002,1221.62111930002,1221.62111930002,old_stationery_12.png,24,2.0,3.2975998999900185,,012,0,2024-11-15_14h18.24.684,Surprise recog test,2023.1.3,59.85425488400272,
24,0,24,0,,,,,,,,,,,,,,,,,,,,,,,,,,,,,,,,,,1228.1174765000178,1229.1463277000003,1225.9477311999945,1225.9477311999945,1225.9477311999945,1225.9477311999945,old_sceneIn_44.png,25,1.0,2.1722788000188302,,012,0,2024-11-15_14h18.24.684,Surprise recog test,2023.1.3,59.85425488400272,
25,0,25,0,,,,,,,,,,,,,,,,,,,,,,,,,,,,,,,,,,1230.8375345999957,1231.8613792000106,1229.1463277000003,1229.1463277000003,1229.1463277000003,1229.1463277000003,old_stationery_32.png,26,1.0,1.6929981999855954,,012,0,2024-11-15_14h18.24.684,Surprise recog test,2023.1.3,59.85425488400272,
26,0,26,0,,,,,,,,,,,,,,,,,,,,,,,,,,,,,,,,,,1233.8162529999972,1234.820228800003,1231.8613792000106,1231.8613792000106,1231.8613792000106,1231.8613792000106,old_sceneIn_49.png,27,4.0,1.9546170000103302,,012,0,2024-11-15_14h18.24.684,Surprise recog test,2023.1.3,59.85425488400272,
27,0,27,0,,,,,,,,,,,,,,,,,,,,,,,,,,,,,,,,,,1236.5030621000042,1237.5164628000057,1234.820228800003,1234.820228800003,1234.820228800003,1234.820228800003,new_fruit_36.png,28,3.0,1.6750566000118852,,012,0,2024-11-15_14h18.24.684,Surprise recog test,2023.1.3,59.85425488400272,
28,0,28,0,,,,,,,,,,,,,,,,,,,,,,,,,,,,,,,,,,1239.8224165000138,1240.834331399994,1237.5164628000057,1237.5164628000057,1237.5164628000057,1237.5164628000057,old_sceneOut_37.png,29,2.0,2.3079277999931946,,012,0,2024-11-15_14h18.24.684,Surprise recog test,2023.1.3,59.85425488400272,
29,0,29,0,,,,,,,,,,,,,,,,,,,,,,,,,,,,,,,,,,1243.1901059999946,1244.2065385000024,1240.834331399994,1240.834331399994,1240.834331399994,1240.834331399994,old_fruit_47.png,30,4.0,2.3540084999985993,,012,0,2024-11-15_14h18.24.684,Surprise recog test,2023.1.3,59.85425488400272,
30,0,30,0,,,,,,,,,,,,,,,,,,,,,,,,,,,,,,,,,,1246.1095099000086,1247.1251694000093,1244.2065385000024,1244.2065385000024,1244.2065385000024,1244.2065385000024,new_fruit_28.png,31,3.0,1.9015872000018135,,012,0,2024-11-15_14h18.24.684,Surprise recog test,2023.1.3,59.85425488400272,
31,0,31,0,,,,,,,,,,,,,,,,,,,,,,,,,,,,,,,,,,1249.340001500008,1250.3638274999976,1247.1251694000093,1247.1251694000093,1247.1251694000093,1247.1251694000093,old_sceneOut_9.png,32,2.0,2.216409200016642,,012,0,2024-11-15_14h18.24.684,Surprise recog test,2023.1.3,59.85425488400272,
32,0,32,0,,,,,,,,,,,,,,,,,,,,,,,,,,,,,,,,,,1251.7688261000148,,1250.3638274999976,1250.3638274999976,1250.3638274999976,1250.3638274999976,old_sceneOut_13.png,33,2.0,1.4041211000003386,,012,0,2024-11-15_14h18.24.684,Surprise recog test,2023.1.3,59.85425488400272,
33,0,33,0,,,,,,,,,,,,,,,,,,,,,,,,,,,,,,,,,,1254.4860141999961,,1252.7918846000102,1252.7918846000102,1252.7918846000102,1252.7918846000102,old_sceneOut_27.png,34,2.0,1.6932688999804668,,012,0,2024-11-15_14h18.24.684,Surprise recog test,2023.1.3,59.85425488400272,
34,0,34,0,,,,,,,,,,,,,,,,,,,,,,,,,,,,,,,,,,1256.9173508000094,1257.9354198999936,1255.516019200004,1255.516019200004,1255.516019200004,1255.516019200004,old_sceneIn_26.png,35,2.0,1.4023327000031713,,012,0,2024-11-15_14h18.24.684,Surprise recog test,2023.1.3,59.85425488400272,
35,0,35,0,,,,,,,,,,,,,,,,,,,,,,,,,,,,,,,,,,1260.0514668000105,1261.0717241000093,1257.9354198999936,1257.9354198999936,1257.9354198999936,1257.9354198999936,new_sceneOut_23.png,36,5.0,2.1156048999982886,,012,0,2024-11-15_14h18.24.684,Surprise recog test,2023.1.3,59.85425488400272,
36,0,36,0,,,,,,,,,,,,,,,,,,,,,,,,,,,,,,,,,,1262.4123646999942,1263.4450773000135,1261.0717241000093,1261.0717241000093,1261.0717241000093,1261.0717241000093,new_fruit_21.png,37,5.0,1.3424990999919828,,012,0,2024-11-15_14h18.24.684,Surprise recog test,2023.1.3,59.85425488400272,
37,0,37,0,,,,,,,,,,,,,,,,,,,,,,,,,,,,,,,,,,1265.6196622000134,1266.6465301999997,1263.4450773000135,1263.4450773000135,1263.4450773000135,1263.4450773000135,new_fruit_31.png,38,4.0,2.177311399980681,,012,0,2024-11-15_14h18.24.684,Surprise recog test,2023.1.3,59.85425488400272,
38,0,38,0,,,,,,,,,,,,,,,,,,,,,,,,,,,,,,,,,,1268.8391813000198,1269.8645810000016,1266.6465301999997,1266.6465301999997,1266.6465301999997,1266.6465301999997,old_stationery_29.png,39,2.0,2.1949743000150193,,012,0,2024-11-15_14h18.24.684,Surprise recog test,2023.1.3,59.85425488400272,
39,0,39,0,,,,,,,,,,,,,,,,,,,,,,,,,,,,,,,,,,1272.7193018000107,,1269.8645810000016,1269.8645810000016,1269.8645810000016,1269.8645810000016,new_stationery_40.png,40,3.0,2.8575498999853153,,012,0,2024-11-15_14h18.24.684,Surprise recog test,2023.1.3,59.85425488400272,
40,0,40,0,,,,,,,,,,,,,,,,,,,,,,,,,,,,,,,,,,1275.3980723000132,1276.4288740000047,1273.753736500017,1273.753736500017,1273.753736500017,1273.753736500017,old_fruit_33.png,41,3.0,1.6474173000024166,,012,0,2024-11-15_14h18.24.684,Surprise recog test,2023.1.3,59.85425488400272,
41,0,41,0,,,,,,,,,,,,,,,,,,,,,,,,,,,,,,,,,,1278.3869807000156,1279.4061382999935,1276.4288740000047,1276.4288740000047,1276.4288740000047,1276.4288740000047,old_stationery_7.png,42,1.0,1.9618778000003658,,012,0,2024-11-15_14h18.24.684,Surprise recog test,2023.1.3,59.85425488400272,
42,0,42,0,,,,,,,,,,,,,,,,,,,,,,,,,,,,,,,,,,1280.6334007999976,1281.6624201000086,1279.4061382999935,1279.4061382999935,1279.4061382999935,1279.4061382999935,old_sceneIn_40.png,43,1.0,1.2252734000212513,,012,0,2024-11-15_14h18.24.684,Surprise recog test,2023.1.3,59.85425488400272,
43,0,43,0,,,,,,,,,,,,,,,,,,,,,,,,,,,,,,,,,,1283.82517560001,1284.8363969000056,1281.6624201000086,1281.6624201000086,1281.6624201000086,1281.6624201000086,new_fruit_29.png,44,4.0,2.1666598000156227,,012,0,2024-11-15_14h18.24.684,Surprise recog test,2023.1.3,59.85425488400272,
44,0,44,0,,,,,,,,,,,,,,,,,,,,,,,,,,,,,,,,,,1287.6295297000033,1288.6483236000058,1284.8363969000056,1284.8363969000056,1284.8363969000056,1284.8363969000056,new_sceneOut_41.png,45,1.0,2.7922935000096913,,012,0,2024-11-15_14h18.24.684,Surprise recog test,2023.1.3,59.85425488400272,
45,0,45,0,,,,,,,,,,,,,,,,,,,,,,,,,,,,,,,,,,1289.8632263000181,1290.869628000015,1288.6483236000058,1288.6483236000058,1288.6483236000058,1288.6483236000058,old_stationery_30.png,46,1.0,1.2169669999857433,,012,0,2024-11-15_14h18.24.684,Surprise recog test,2023.1.3,59.85425488400272,
46,0,46,0,,,,,,,,,,,,,,,,,,,,,,,,,,,,,,,,,,1292.0873660999932,1293.1032127999933,1290.869628000015,1290.869628000015,1290.869628000015,1290.869628000015,new_sceneIn_48.png,47,1.0,1.2133205000136513,,012,0,2024-11-15_14h18.24.684,Surprise recog test,2023.1.3,59.85425488400272,
47,0,47,0,,,,,,,,,,,,,,,,,,,,,,,,,,,,,,,,,,1295.325975100015,1296.3562139999995,1293.1032127999933,1293.1032127999933,1293.1032127999933,1293.1032127999933,old_fruit_38.png,48,4.0,2.218976600008318,,012,0,2024-11-15_14h18.24.684,Surprise recog test,2023.1.3,59.85425488400272,
48,0,48,0,,,,,,,,,,,,,,,,,,,,,,,,,,,,,,,,,,1298.2602105000115,1299.2752740000142,1296.3562139999995,1296.3562139999995,1296.3562139999995,1296.3562139999995,old_stationery_21.png,49,3.0,1.904936800012365,,012,0,2024-11-15_14h18.24.684,Surprise recog test,2023.1.3,59.85425488400272,
49,0,49,0,,,,,,,,,,,,,,,,,,,,,,,,,,,,,,,,,,1301.4898202000186,1302.505788600014,1299.2752740000142,1299.2752740000142,1299.2752740000142,1299.2752740000142,old_sceneIn_33.png,50,3.0,2.2089574999990873,,012,0,2024-11-15_14h18.24.684,Surprise recog test,2023.1.3,59.85425488400272,
50,0,50,0,,,,,,,,,,,,,,,,,,,,,,,,,,,,,,,,,,1304.396214700013,1305.4163043000153,1302.505788600014,1302.505788600014,1302.505788600014,1302.505788600014,old_sceneOut_23.png,51,1.0,1.8888612000155263,,012,0,2024-11-15_14h18.24.684,Surprise recog test,2023.1.3,59.85425488400272,
51,0,51,0,,,,,,,,,,,,,,,,,,,,,,,,,,,,,,,,,,1307.0207139000122,1308.0354648000211,1305.4163043000153,1305.4163043000153,1305.4163043000153,1305.4163043000153,old_stationery_16.png,52,1.0,1.5994960999814793,,012,0,2024-11-15_14h18.24.684,Surprise recog test,2023.1.3,59.85425488400272,
52,0,52,0,,,,,,,,,,,,,,,,,,,,,,,,,,,,,,,,,,1310.239708900015,1311.264350100013,1308.0354648000211,1308.0354648000211,1308.0354648000211,1308.0354648000211,new_sceneIn_41.png,53,4.0,2.1999856999900658,,012,0,2024-11-15_14h18.24.684,Surprise recog test,2023.1.3,59.85425488400272,
53,0,53,0,,,,,,,,,,,,,,,,,,,,,,,,,,,,,,,,,,1313.3315215000184,1314.3417375000136,1311.264350100013,1311.264350100013,1311.264350100013,1311.264350100013,old_stationery_45.png,54,1.0,2.0679984999878798,,012,0,2024-11-15_14h18.24.684,Surprise recog test,2023.1.3,59.85425488400272,
54,0,54,0,,,,,,,,,,,,,,,,,,,,,,,,,,,,,,,,,,1316.3809916000173,1317.4079758000153,1314.3417375000136,1314.3417375000136,1314.3417375000136,1314.3417375000136,old_fruit_25.png,55,3.0,2.0350664999859873,,012,0,2024-11-15_14h18.24.684,Surprise recog test,2023.1.3,59.85425488400272,
55,0,55,0,,,,,,,,,,,,,,,,,,,,,,,,,,,,,,,,,,1319.4953748999978,1320.5239376999962,1317.4079758000153,1317.4079758000153,1317.4079758000153,1317.4079758000153,old_fruit_9.png,56,4.0,2.0873170999984723,,012,0,2024-11-15_14h18.24.684,Surprise recog test,2023.1.3,59.85425488400272,
56,0,56,0,,,,,,,,,,,,,,,,,,,,,,,,,,,,,,,,,,1322.175620599999,,1320.5239376999962,1320.5239376999962,1320.5239376999962,1320.5239376999962,new_stationery_3.png,57,5.0,1.653433600004064,,012,0,2024-11-15_14h18.24.684,Surprise recog test,2023.1.3,59.85425488400272,
57,0,57,0,,,,,,,,,,,,,,,,,,,,,,,,,,,,,,,,,,1324.836260000011,1325.8556588999927,1323.197461600008,1323.197461600008,1323.197461600008,1323.197461600008,new_fruit_8.png,58,4.0,1.634213000012096,,012,0,2024-11-15_14h18.24.684,Surprise recog test,2023.1.3,59.85425488400272,
58,0,58,0,,,,,,,,,,,,,,,,,,,,,,,,,,,,,,,,,,1327.9959903999988,1329.007511600008,1325.8556588999927,1325.8556588999927,1325.8556588999927,1325.8556588999927,old_stationery_37.png,59,1.0,2.1409885000030044,,012,0,2024-11-15_14h18.24.684,Surprise recog test,2023.1.3,59.85425488400272,
59,0,59,0,,,,,,,,,,,,,,,,,,,,,,,,,,,,,,,,,,1330.2146795000008,1331.2355937999964,1329.007511600008,1329.007511600008,1329.007511600008,1329.007511600008,new_stationery_31.png,60,1.0,1.2078593000187539,,012,0,2024-11-15_14h18.24.684,Surprise recog test,2023.1.3,59.85425488400272,
60,0,60,0,,,,,,,,,,,,,,,,,,,,,,,,,,,,,,,,,,1332.0337268000003,,1331.2355937999964,1331.2355937999964,1331.2355937999964,1331.2355937999964,old_stationery_41.png,61,1.0,0.800151100003859,,012,0,2024-11-15_14h18.24.684,Surprise recog test,2023.1.3,59.85425488400272,
61,0,61,0,,,,,,,,,,,,,,,,,,,,,,,,,,,,,,,,,,1334.8896244000061,1335.9205264000047,1333.0783022000105,1333.0783022000105,1333.0783022000105,1333.0783022000105,new_fruit_16.png,62,4.0,1.8145673999970313,,012,0,2024-11-15_14h18.24.684,Surprise recog test,2023.1.3,59.85425488400272,
62,0,62,0,,,,,,,,,,,,,,,,,,,,,,,,,,,,,,,,,,1337.704753500002,,1335.9205264000047,1335.9205264000047,1335.9205264000047,1335.9205264000047,old_sceneIn_30.png,63,3.0,1.7859026000078302,,012,0,2024-11-15_14h18.24.684,Surprise recog test,2023.1.3,59.85425488400272,
63,0,63,0,,,,,,,,,,,,,,,,,,,,,,,,,,,,,,,,,,1340.843030499993,,1338.7233706999978,1338.7233706999978,1338.7233706999978,1338.7233706999978,new_sceneOut_26.png,64,2.0,2.1153071000007913,,012,0,2024-11-15_14h18.24.684,Surprise recog test,2023.1.3,59.85425488400272,
64,0,64,0,,,,,,,,,,,,,,,,,,,,,,,,,,,,,,,,,,1343.1467152000114,1344.1828774000169,1341.8747049999947,1341.8747049999947,1341.8747049999947,1341.8747049999947,old_sceneIn_8.png,65,2.0,1.2713738000020385,,012,0,2024-11-15_14h18.24.684,Surprise recog test,2023.1.3,59.85425488400272,
65,0,65,0,,,,,,,,,,,,,,,,,,,,,,,,,,,,,,,,,,1345.1917408000154,1346.214471400017,1344.1828774000169,1344.1828774000169,1344.1828774000169,1344.1828774000169,old_fruit_22.png,66,2.0,1.0120572999876458,,012,0,2024-11-15_14h18.24.684,Surprise recog test,2023.1.3,59.85425488400272,
66,0,66,0,,,,,,,,,,,,,,,,,,,,,,,,,,,,,,,,,,1348.2053082000057,1349.2203467999934,1346.214471400017,1346.214471400017,1346.214471400017,1346.214471400017,old_sceneOut_33.png,67,1.0,1.993593499995768,,012,0,2024-11-15_14h18.24.684,Surprise recog test,2023.1.3,59.85425488400272,
67,0,67,0,,,,,,,,,,,,,,,,,,,,,,,,,,,,,,,,,,1350.7692727000103,1351.8005888000189,1349.2203467999934,1349.2203467999934,1349.2203467999934,1349.2203467999934,new_sceneIn_2.png,68,4.0,1.5449694000126328,,012,0,2024-11-15_14h18.24.684,Surprise recog test,2023.1.3,59.85425488400272,
68,0,68,0,,,,,,,,,,,,,,,,,,,,,,,,,,,,,,,,,,1353.4727770000172,1354.5016124999966,1351.8005888000189,1351.8005888000189,1351.8005888000189,1351.8005888000189,old_stationery_44.png,69,1.0,1.672413599997526,,012,0,2024-11-15_14h18.24.684,Surprise recog test,2023.1.3,59.85425488400272,
69,0,69,0,,,,,,,,,,,,,,,,,,,,,,,,,,,,,,,,,,1355.342560399993,1356.3690803000063,1354.5016124999966,1354.5016124999966,1354.5016124999966,1354.5016124999966,old_stationery_18.png,70,1.0,0.8435804999899119,,012,0,2024-11-15_14h18.24.684,Surprise recog test,2023.1.3,59.85425488400272,
70,0,70,0,,,,,,,,,,,,,,,,,,,,,,,,,,,,,,,,,,1358.4774323000165,1359.502186800004,1356.3690803000063,1356.3690803000063,1356.3690803000063,1356.3690803000063,old_sceneOut_19.png,71,3.0,2.1101256999827456,,012,0,2024-11-15_14h18.24.684,Surprise recog test,2023.1.3,59.85425488400272,
71,0,71,0,,,,,,,,,,,,,,,,,,,,,,,,,,,,,,,,,,1361.3018199999933,1362.3099530000181,1359.502186800004,1359.502186800004,1359.502186800004,1359.502186800004,old_fruit_28.png,72,2.0,1.7984276000061072,,012,0,2024-11-15_14h18.24.684,Surprise recog test,2023.1.3,59.85425488400272,
72,0,72,0,,,,,,,,,,,,,,,,,,,,,,,,,,,,,,,,,,1364.1942254000169,,1362.3099530000181,1362.3099530000181,1362.3099530000181,1362.3099530000181,new_sceneOut_1.png,73,1.0,1.8793006999767385,,012,0,2024-11-15_14h18.24.684,Surprise recog test,2023.1.3,59.85425488400272,
73,0,73,0,,,,,,,,,,,,,,,,,,,,,,,,,,,,,,,,,,1367.1467135999992,,1365.22447310001,1365.22447310001,1365.22447310001,1365.22447310001,new_sceneIn_35.png,74,3.0,1.9227726999961305,,012,0,2024-11-15_14h18.24.684,Surprise recog test,2023.1.3,59.85425488400272,
74,0,74,0,,,,,,,,,,,,,,,,,,,,,,,,,,,,,,,,,,1370.205799599993,1371.2314833000128,1368.180330800009,1368.180330800009,1368.180330800009,1368.180330800009,old_sceneOut_22.png,75,2.0,2.0278977999987546,,012,0,2024-11-15_14h18.24.684,Surprise recog test,2023.1.3,59.85425488400272,
75,0,75,0,,,,,,,,,,,,,,,,,,,,,,,,,,,,,,,,,,1374.5786904999986,1375.5973443000112,1371.2314833000128,1371.2314833000128,1371.2314833000128,1371.2314833000128,old_fruit_13.png,76,1.0,3.3494238999846857,,012,0,2024-11-15_14h18.24.684,Surprise recog test,2023.1.3,59.85425488400272,
76,0,76,0,,,,,,,,,,,,,,,,,,,,,,,,,,,,,,,,,,1376.7941686999984,1377.8232566000079,1375.5973443000112,1375.5973443000112,1375.5973443000112,1375.5973443000112,old_fruit_50.png,77,1.0,1.1959335000137798,,012,0,2024-11-15_14h18.24.684,Surprise recog test,2023.1.3,59.85425488400272,
77,0,77,0,,,,,,,,,,,,,,,,,,,,,,,,,,,,,,,,,,1379.9922372,,1377.8232566000079,1377.8232566000079,1377.8232566000079,1377.8232566000079,old_stationery_42.png,78,4.0,2.169750599976396,,012,0,2024-11-15_14h18.24.684,Surprise recog test,2023.1.3,59.85425488400272,
78,0,78,0,,,,,,,,,,,,,,,,,,,,,,,,,,,,,,,,,,1382.91271840001,1383.931903699995,1381.0227518000174,1381.0227518000174,1381.0227518000174,1381.0227518000174,old_fruit_16.png,79,1.0,1.8917235999833792,,012,0,2024-11-15_14h18.24.684,Surprise recog test,2023.1.3,59.85425488400272,
79,0,79,0,,,,,,,,,,,,,,,,,,,,,,,,,,,,,,,,,,1385.7331002000137,1386.7628442000132,1383.931903699995,1383.931903699995,1383.931903699995,1383.931903699995,old_sceneIn_47.png,80,2.0,1.7940251999825705,,012,0,2024-11-15_14h18.24.684,Surprise recog test,2023.1.3,59.85425488400272,
80,0,80,0,,,,,,,,,,,,,,,,,,,,,,,,,,,,,,,,,,1388.3239756000112,1389.3385954000114,1386.7628442000132,1386.7628442000132,1386.7628442000132,1386.7628442000132,new_sceneIn_36.png,81,4.0,1.5604679000098258,,012,0,2024-11-15_14h18.24.684,Surprise recog test,2023.1.3,59.85425488400272,
81,0,81,0,,,,,,,,,,,,,,,,,,,,,,,,,,,,,,,,,,1390.36299590001,1391.376702300011,1389.3385954000114,1389.3385954000114,1389.3385954000114,1389.3385954000114,old_fruit_40.png,82,4.0,1.0231443000084255,,012,0,2024-11-15_14h18.24.684,Surprise recog test,2023.1.3,59.85425488400272,
82,0,82,0,,,,,,,,,,,,,,,,,,,,,,,,,,,,,,,,,,1394.1869794999948,,1391.376702300011,1391.376702300011,1391.376702300011,1391.376702300011,new_sceneOut_42.png,83,4.0,2.81080840001232,,012,0,2024-11-15_14h18.24.684,Surprise recog test,2023.1.3,59.85425488400272,
83,0,83,0,,,,,,,,,,,,,,,,,,,,,,,,,,,,,,,,,,1397.2263766000106,1398.2574067999958,1395.2194220999954,1395.2194220999954,1395.2194220999954,1395.2194220999954,new_fruit_14.png,84,3.0,2.0065396999998484,,012,0,2024-11-15_14h18.24.684,Surprise recog test,2023.1.3,59.85425488400272,
84,0,84,0,,,,,,,,,,,,,,,,,,,,,,,,,,,,,,,,,,1399.7886089000094,1400.8011032000068,1398.2574067999958,1398.2574067999958,1398.2574067999958,1398.2574067999958,new_stationery_6.png,85,5.0,1.523566199990455,,012,0,2024-11-15_14h18.24.684,Surprise recog test,2023.1.3,59.85425488400272,
85,0,85,0,,,,,,,,,,,,,,,,,,,,,,,,,,,,,,,,,,1402.5543292000075,1403.5629214000073,1400.8011032000068,1400.8011032000068,1400.8011032000068,1400.8011032000068,new_stationery_17.png,86,1.0,1.7540229999867734,,012,0,2024-11-15_14h18.24.684,Surprise recog test,2023.1.3,59.85425488400272,
86,0,86,0,,,,,,,,,,,,,,,,,,,,,,,,,,,,,,,,,,1405.0220400000107,1406.0478173000156,1403.5629214000073,1403.5629214000073,1403.5629214000073,1403.5629214000073,new_sceneOut_8.png,87,1.0,1.4513097000017297,,012,0,2024-11-15_14h18.24.684,Surprise recog test,2023.1.3,59.85425488400272,
87,0,87,0,,,,,,,,,,,,,,,,,,,,,,,,,,,,,,,,,,1409.252080300008,1410.2707647000207,1406.0478173000156,1406.0478173000156,1406.0478173000156,1406.0478173000156,new_stationery_26.png,88,4.0,3.205520700023044,,012,0,2024-11-15_14h18.24.684,Surprise recog test,2023.1.3,59.85425488400272,
88,0,88,0,,,,,,,,,,,,,,,,,,,,,,,,,,,,,,,,,,1411.7812415999942,1412.7998383000086,1410.2707647000207,1410.2707647000207,1410.2707647000207,1410.2707647000207,new_sceneOut_25.png,89,4.0,1.5057407999993302,,012,0,2024-11-15_14h18.24.684,Surprise recog test,2023.1.3,59.85425488400272,
89,0,89,0,,,,,,,,,,,,,,,,,,,,,,,,,,,,,,,,,,1413.885491699999,,1412.7998383000086,1412.7998383000086,1412.7998383000086,1412.7998383000086,new_stationery_29.png,90,4.0,1.0868487999832723,,012,0,2024-11-15_14h18.24.684,Surprise recog test,2023.1.3,59.85425488400272,
90,0,90,0,,,,,,,,,,,,,,,,,,,,,,,,,,,,,,,,,,1416.5996380000142,1417.6223425000207,1414.919292800012,1414.919292800012,1414.919292800012,1414.919292800012,new_fruit_10.png,91,4.0,1.6817915000137873,,012,0,2024-11-15_14h18.24.684,Surprise recog test,2023.1.3,59.85425488400272,
91,0,91,0,,,,,,,,,,,,,,,,,,,,,,,,,,,,,,,,,,1419.330051099998,1420.3598615000083,1417.6223425000207,1417.6223425000207,1417.6223425000207,1417.6223425000207,old_sceneIn_9.png,92,2.0,1.7073478999955114,,012,0,2024-11-15_14h18.24.684,Surprise recog test,2023.1.3,59.85425488400272,
92,0,92,0,,,,,,,,,,,,,,,,,,,,,,,,,,,,,,,,,,1422.9748560000153,1423.9783802000165,1420.3598615000083,1420.3598615000083,1420.3598615000083,1420.3598615000083,new_sceneOut_20.png,93,3.0,2.61600300000282,,012,0,2024-11-15_14h18.24.684,Surprise recog test,2023.1.3,59.85425488400272,
93,0,93,0,,,,,,,,,,,,,,,,,,,,,,,,,,,,,,,,,,1426.2255947999947,1427.2331326999993,1423.9783802000165,1423.9783802000165,1423.9783802000165,1423.9783802000165,new_sceneOut_31.png,94,1.0,2.2433673000195995,,012,0,2024-11-15_14h18.24.684,Surprise recog test,2023.1.3,59.85425488400272,
94,0,94,0,,,,,,,,,,,,,,,,,,,,,,,,,,,,,,,,,,1429.764146600006,1430.7757666000107,1427.2331326999993,1427.2331326999993,1427.2331326999993,1427.2331326999993,old_fruit_48.png,95,1.0,2.526500300009502,,012,0,2024-11-15_14h18.24.684,Surprise recog test,2023.1.3,59.85425488400272,
95,0,95,0,,,,,,,,,,,,,,,,,,,,,,,,,,,,,,,,,,1432.6178056000208,,1430.7757666000107,1430.7757666000107,1430.7757666000107,1430.7757666000107,new_sceneOut_22.png,96,3.0,1.840174199984176,,012,0,2024-11-15_14h18.24.684,Surprise recog test,2023.1.3,59.85425488400272,
96,0,96,0,,,,,,,,,,,,,,,,,,,,,,,,,,,,,,,,,,1435.4082476000185,1436.4257273999974,1433.6525534999964,1433.6525534999964,1433.6525534999964,1433.6525534999964,old_sceneIn_29.png,97,5.0,1.7568127999838907,,012,0,2024-11-15_14h18.24.684,Surprise recog test,2023.1.3,59.85425488400272,
97,0,97,0,,,,,,,,,,,,,,,,,,,,,,,,,,,,,,,,,,1438.9635846000165,1439.987253600004,1436.4257273999974,1436.4257273999974,1436.4257273999974,1436.4257273999974,new_fruit_46.png,98,3.0,2.5357020999945235,,012,0,2024-11-15_14h18.24.684,Surprise recog test,2023.1.3,59.85425488400272,
98,0,98,0,,,,,,,,,,,,,,,,,,,,,,,,,,,,,,,,,,1441.842184100009,,1439.987253600004,1439.987253600004,1439.987253600004,1439.987253600004,new_sceneOut_21.png,99,3.0,1.85479410001426,,012,0,2024-11-15_14h18.24.684,Surprise recog test,2023.1.3,59.85425488400272,
99,0,99,0,,,,,,,,,,,,,,,,,,,,,,,,,,,,,,,,,,1444.880266399996,1445.9140332000097,1442.872397900006,1442.872397900006,1442.872397900006,1442.872397900006,new_stationery_15.png,100,1.0,2.0097786000114866,,012,0,2024-11-15_14h18.24.684,Surprise recog test,2023.1.3,59.85425488400272,
100,0,100,0,,,,,,,,,,,,,,,,,,,,,,,,,,,,,,,,,,1447.143199800019,1448.151738400018,1445.9140332000097,1445.9140332000097,1445.9140332000097,1445.9140332000097,new_fruit_11.png,101,1.0,1.2313295000058133,,012,0,2024-11-15_14h18.24.684,Surprise recog test,2023.1.3,59.85425488400272,
101,0,101,0,,,,,,,,,,,,,,,,,,,,,,,,,,,,,,,,,,1450.2684792999935,1451.2979956000054,1448.151738400018,1448.151738400018,1448.151738400018,1448.151738400018,old_sceneOut_44.png,102,2.0,2.1114982000144664,,012,0,2024-11-15_14h18.24.684,Surprise recog test,2023.1.3,59.85425488400272,
102,0,102,0,,,,,,,,,,,,,,,,,,,,,,,,,,,,,,,,,,1453.8107872999972,1454.8326131000067,1451.2979956000054,1451.2979956000054,1451.2979956000054,1451.2979956000054,old_stationery_10.png,103,3.0,2.5148344000044744,,012,0,2024-11-15_14h18.24.684,Surprise recog test,2023.1.3,59.85425488400272,
103,0,103,0,,,,,,,,,,,,,,,,,,,,,,,,,,,,,,,,,,1455.9774720999994,1457.0061522000178,1454.8326131000067,1454.8326131000067,1454.8326131000067,1454.8326131000067,old_sceneIn_32.png,104,3.0,1.1442735000164248,,012,0,2024-11-15_14h18.24.684,Surprise recog test,2023.1.3,59.85425488400272,
104,0,104,0,,,,,,,,,,,,,,,,,,,,,,,,,,,,,,,,,,1458.951126,1459.9618315999978,1457.0061522000178,1457.0061522000178,1457.0061522000178,1457.0061522000178,old_fruit_8.png,105,1.0,1.9465983000118285,,012,0,2024-11-15_14h18.24.684,Surprise recog test,2023.1.3,59.85425488400272,
105,0,105,0,,,,,,,,,,,,,,,,,,,,,,,,,,,,,,,,,,1462.1451949000184,1463.178021700005,1459.9618315999978,1459.9618315999978,1459.9618315999978,1459.9618315999978,new_fruit_45.png,106,3.0,2.179362399998354,,012,0,2024-11-15_14h18.24.684,Surprise recog test,2023.1.3,59.85425488400272,
106,0,106,0,,,,,,,,,,,,,,,,,,,,,,,,,,,,,,,,,,1465.8133746999956,,1463.178021700005,1463.178021700005,1463.178021700005,1463.178021700005,old_sceneIn_37.png,107,3.0,2.6376830999797676,,012,0,2024-11-15_14h18.24.684,Surprise recog test,2023.1.3,59.85425488400272,
107,0,107,0,,,,,,,,,,,,,,,,,,,,,,,,,,,,,,,,,,1469.0709107000148,1470.0999439000152,1466.8374721000146,1466.8374721000146,1466.8374721000146,1466.8374721000146,old_stationery_15.png,108,2.0,2.2334731000009924,,012,0,2024-11-15_14h18.24.684,Surprise recog test,2023.1.3,59.85425488400272,
108,0,108,0,,,,,,,,,,,,,,,,,,,,,,,,,,,,,,,,,,1471.6762049999961,1472.6856967000058,1470.0999439000152,1470.0999439000152,1470.0999439000152,1470.0999439000152,new_fruit_3.png,109,2.0,1.5777366000111215,,012,0,2024-11-15_14h18.24.684,Surprise recog test,2023.1.3,59.85425488400272,
109,0,109,0,,,,,,,,,,,,,,,,,,,,,,,,,,,,,,,,,,1474.6288335999998,1475.6502712999936,1472.6856967000058,1472.6856967000058,1472.6856967000058,1472.6856967000058,new_stationery_18.png,110,1.0,1.9381134000141174,,012,0,2024-11-15_14h18.24.684,Surprise recog test,2023.1.3,59.85425488400272,
110,0,110,0,,,,,,,,,,,,,,,,,,,,,,,,,,,,,,,,,,1478.9619148000202,1479.9865202000074,1475.6502712999936,1475.6502712999936,1475.6502712999936,1475.6502712999936,new_stationery_11.png,111,4.0,3.3140829000039957,,012,0,2024-11-15_14h18.24.684,Surprise recog test,2023.1.3,59.85425488400272,
111,0,111,0,,,,,,,,,,,,,,,,,,,,,,,,,,,,,,,,,,1481.596504700021,1482.6263941999932,1479.9865202000074,1479.9865202000074,1479.9865202000074,1479.9865202000074,new_sceneIn_24.png,112,2.0,1.6111052999913227,,012,0,2024-11-15_14h18.24.684,Surprise recog test,2023.1.3,59.85425488400272,
112,0,112,0,,,,,,,,,,,,,,,,,,,,,,,,,,,,,,,,,,1484.5092477000144,1485.5161566000024,1482.6263941999932,1482.6263941999932,1482.6263941999932,1482.6263941999932,old_fruit_41.png,113,4.0,1.8826888000185136,,012,0,2024-11-15_14h18.24.684,Surprise recog test,2023.1.3,59.85425488400272,
113,0,113,0,,,,,,,,,,,,,,,,,,,,,,,,,,,,,,,,,,1487.1707836000132,1488.1937831999967,1485.5161566000024,1485.5161566000024,1485.5161566000024,1485.5161566000024,old_sceneIn_14.png,114,2.0,1.6492838000121992,,012,0,2024-11-15_14h18.24.684,Surprise recog test,2023.1.3,59.85425488400272,
114,0,114,0,,,,,,,,,,,,,,,,,,,,,,,,,,,,,,,,,,1489.635271200008,1490.6521683000028,1488.1937831999967,1488.1937831999967,1488.1937831999967,1488.1937831999967,new_sceneIn_13.png,115,3.0,1.44214679999277,,012,0,2024-11-15_14h18.24.684,Surprise recog test,2023.1.3,59.85425488400272,
115,0,115,0,,,,,,,,,,,,,,,,,,,,,,,,,,,,,,,,,,1492.2900599999994,1493.322188799997,1490.6521683000028,1490.6521683000028,1490.6521683000028,1490.6521683000028,new_stationery_22.png,116,2.0,1.6354631999856792,,012,0,2024-11-15_14h18.24.684,Surprise recog test,2023.1.3,59.85425488400272,
116,0,116,0,,,,,,,,,,,,,,,,,,,,,,,,,,,,,,,,,,1494.8429640000104,1495.8648324999958,1493.322188799997,1493.322188799997,1493.322188799997,1493.322188799997,old_fruit_6.png,117,2.0,1.5235291999997571,,012,0,2024-11-15_14h18.24.684,Surprise recog test,2023.1.3,59.85425488400272,
117,0,117,0,,,,,,,,,,,,,,,,,,,,,,,,,,,,,,,,,,1497.7139923000068,1498.739849400008,1495.8648324999958,1495.8648324999958,1495.8648324999958,1495.8648324999958,new_sceneOut_14.png,118,3.0,1.8488662999880034,,012,0,2024-11-15_14h18.24.684,Surprise recog test,2023.1.3,59.85425488400272,
118,0,118,0,,,,,,,,,,,,,,,,,,,,,,,,,,,,,,,,,,1501.77603920002,,1498.739849400008,1498.739849400008,1498.739849400008,1498.739849400008,old_sceneIn_36.png,119,4.0,3.0373292000149377,,012,0,2024-11-15_14h18.24.684,Surprise recog test,2023.1.3,59.85425488400272,
119,0,119,0,,,,,,,,,,,,,,,,,,,,,,,,,,,,,,,,,,1504.8480396000086,1505.8692151000141,1502.8017629999958,1502.8017629999958,1502.8017629999958,1502.8017629999958,new_fruit_23.png,120,4.0,2.047508400020888,,012,0,2024-11-15_14h18.24.684,Surprise recog test,2023.1.3,59.85425488400272,
120,0,120,0,,,,,,,,,,,,,,,,,,,,,,,,,,,,,,,,,,1507.5409071000176,1508.563955599995,1505.8692151000141,1505.8692151000141,1505.8692151000141,1505.8692151000141,old_sceneOut_40.png,121,2.0,1.6703578000015114,,012,0,2024-11-15_14h18.24.684,Surprise recog test,2023.1.3,59.85425488400272,
121,0,121,0,,,,,,,,,,,,,,,,,,,,,,,,,,,,,,,,,,1510.046854300017,1511.0629396000004,1508.563955599995,1508.563955599995,1508.563955599995,1508.563955599995,new_sceneIn_30.png,122,2.0,1.4843608000082895,,012,0,2024-11-15_14h18.24.684,Surprise recog test,2023.1.3,59.85425488400272,
122,0,122,0,,,,,,,,,,,,,,,,,,,,,,,,,,,,,,,,,,1512.6242761000176,1513.649093999993,1511.0629396000004,1511.0629396000004,1511.0629396000004,1511.0629396000004,old_fruit_37.png,123,2.0,1.5636231999960728,,012,0,2024-11-15_14h18.24.684,Surprise recog test,2023.1.3,59.85425488400272,
123,0,123,0,,,,,,,,,,,,,,,,,,,,,,,,,,,,,,,,,,1514.9196766999958,,1513.649093999993,1513.649093999993,1513.649093999993,1513.649093999993,old_sceneOut_38.png,124,2.0,1.2670264999906067,,012,0,2024-11-15_14h18.24.684,Surprise recog test,2023.1.3,59.85425488400272,
124,0,124,0,,,,,,,,,,,,,,,,,,,,,,,,,,,,,,,,,,1517.8931843000173,1518.9115349000203,1515.9551334000134,1515.9551334000134,1515.9551334000134,1515.9551334000134,old_sceneOut_18.png,125,4.0,1.93988179997541,,012,0,2024-11-15_14h18.24.684,Surprise recog test,2023.1.3,59.85425488400272,
125,0,125,0,,,,,,,,,,,,,,,,,,,,,,,,,,,,,,,,,,1521.0174220000044,1522.0361285000108,1518.9115349000203,1518.9115349000203,1518.9115349000203,1518.9115349000203,new_stationery_1.png,126,4.0,2.1011758999957237,,012,0,2024-11-15_14h18.24.684,Surprise recog test,2023.1.3,59.85425488400272,
126,0,126,0,,,,,,,,,,,,,,,,,,,,,,,,,,,,,,,,,,1523.9173856000125,1524.9323429999931,1522.0361285000108,1522.0361285000108,1522.0361285000108,1522.0361285000108,old_sceneOut_31.png,127,4.0,1.8816133000073023,,012,0,2024-11-15_14h18.24.684,Surprise recog test,2023.1.3,59.85425488400272,
127,0,127,0,,,,,,,,,,,,,,,,,,,,,,,,,,,,,,,,,,1525.8908605000179,1526.9008275000087,1524.9323429999931,1524.9323429999931,1524.9323429999931,1524.9323429999931,new_sceneIn_3.png,128,4.0,0.9517044999811333,,012,0,2024-11-15_14h18.24.684,Surprise recog test,2023.1.3,59.85425488400272,
128,0,128,0,,,,,,,,,,,,,,,,,,,,,,,,,,,,,,,,,,1528.3879065999936,1529.416202399996,1526.9008275000087,1526.9008275000087,1526.9008275000087,1526.9008275000087,old_sceneIn_42.png,129,3.0,1.4824772999854758,,012,0,2024-11-15_14h18.24.684,Surprise recog test,2023.1.3,59.85425488400272,
129,0,129,0,,,,,,,,,,,,,,,,,,,,,,,,,,,,,,,,,,1530.9935115000117,1532.0161400999932,1529.416202399996,1529.416202399996,1529.416202399996,1529.416202399996,old_fruit_24.png,130,3.0,1.5758790999825578,,012,0,2024-11-15_14h18.24.684,Surprise recog test,2023.1.3,59.85425488400272,
130,0,130,0,,,,,,,,,,,,,,,,,,,,,,,,,,,,,,,,,,1533.7170957000053,1534.7353641999944,1532.0161400999932,1532.0161400999932,1532.0161400999932,1532.0161400999932,old_sceneOut_11.png,131,3.0,1.7001218000077643,,012,0,2024-11-15_14h18.24.684,Surprise recog test,2023.1.3,59.85425488400272,
131,0,131,0,,,,,,,,,,,,,,,,,,,,,,,,,,,,,,,,,,1536.4787237000128,1537.4902711000177,1534.7353641999944,1534.7353641999944,1534.7353641999944,1534.7353641999944,old_sceneOut_25.png,132,1.0,1.742537199985236,,012,0,2024-11-15_14h18.24.684,Surprise recog test,2023.1.3,59.85425488400272,
132,0,132,0,,,,,,,,,,,,,,,,,,,,,,,,,,,,,,,,,,1539.9039981999958,1540.926931599999,1537.4902711000177,1537.4902711000177,1537.4902711000177,1537.4902711000177,old_fruit_7.png,133,4.0,2.406774199975189,,012,0,2024-11-15_14h18.24.684,Surprise recog test,2023.1.3,59.85425488400272,
133,0,133,0,,,,,,,,,,,,,,,,,,,,,,,,,,,,,,,,,,1542.4060708000034,1543.4146645000146,1540.926931599999,1540.926931599999,1540.926931599999,1540.926931599999,new_fruit_5.png,134,3.0,1.4777884000213817,,012,0,2024-11-15_14h18.24.684,Surprise recog test,2023.1.3,59.85425488400272,
134,0,134,0,,,,,,,,,,,,,,,,,,,,,,,,,,,,,,,,,,1544.6728999000043,1545.6940917000175,1543.4146645000146,1543.4146645000146,1543.4146645000146,1543.4146645000146,old_sceneOut_49.png,135,2.0,1.2537699000095017,,012,0,2024-11-15_14h18.24.684,Surprise recog test,2023.1.3,59.85425488400272,
135,0,135,0,,,,,,,,,,,,,,,,,,,,,,,,,,,,,,,,,,1547.1067819000164,1548.1314674000023,1545.6940917000175,1545.6940917000175,1545.6940917000175,1545.6940917000175,old_stationery_36.png,136,1.0,1.414719199994579,,012,0,2024-11-15_14h18.24.684,Surprise recog test,2023.1.3,59.85425488400272,
136,0,136,0,,,,,,,,,,,,,,,,,,,,,,,,,,,,,,,,,,1549.0307987999986,,1548.1314674000023,1548.1314674000023,1548.1314674000023,1548.1314674000023,new_sceneOut_47.png,137,1.0,0.9023619000217877,,012,0,2024-11-15_14h18.24.684,Surprise recog test,2023.1.3,59.85425488400272,
137,0,137,0,,,,,,,,,,,,,,,,,,,,,,,,,,,,,,,,,,1551.5554049000202,1552.5846131000144,1550.058356900001,1550.058356900001,1550.058356900001,1550.058356900001,old_sceneIn_18.png,138,3.0,1.492018899996765,,012,0,2024-11-15_14h18.24.684,Surprise recog test,2023.1.3,59.85425488400272,
138,0,138,0,,,,,,,,,,,,,,,,,,,,,,,,,,,,,,,,,,1553.4338382999995,,1552.5846131000144,1552.5846131000144,1552.5846131000144,1552.5846131000144,old_sceneOut_46.png,139,3.0,0.8509128000005148,,012,0,2024-11-15_14h18.24.684,Surprise recog test,2023.1.3,59.85425488400272,
139,0,139,0,,,,,,,,,,,,,,,,,,,,,,,,,,,,,,,,,,1555.9984588999941,1557.0048962,1554.4621367999935,1554.4621367999935,1554.4621367999935,1554.4621367999935,new_stationery_34.png,140,5.0,1.5372717000136618,,012,0,2024-11-15_14h18.24.684,Surprise recog test,2023.1.3,59.85425488400272,
140,0,140,0,,,,,,,,,,,,,,,,,,,,,,,,,,,,,,,,,,1558.6013390000153,1559.6267500999966,1557.0048962,1557.0048962,1557.0048962,1557.0048962,old_stationery_34.png,141,1.0,1.590698700019857,,012,0,2024-11-15_14h18.24.684,Surprise recog test,2023.1.3,59.85425488400272,
141,0,141,0,,,,,,,,,,,,,,,,,,,,,,,,,,,,,,,,,,1560.5067961000022,,1559.6267500999966,1559.6267500999966,1559.6267500999966,1559.6267500999966,old_stationery_28.png,142,1.0,0.8792121000005864,,012,0,2024-11-15_14h18.24.684,Surprise recog test,2023.1.3,59.85425488400272,
142,0,142,0,,,,,,,,,,,,,,,,,,,,,,,,,,,,,,,,,,1562.271750999993,1563.2892425000027,1561.5289795999997,1561.5289795999997,1561.5289795999997,1561.5289795999997,old_stationery_46.png,143,1.0,0.7362351999909151,,012,0,2024-11-15_14h18.24.684,Surprise recog test,2023.1.3,59.85425488400272,
143,0,143,0,,,,,,,,,,,,,,,,,,,,,,,,,,,,,,,,,,1565.2132131000108,1566.246898900019,1563.2892425000027,1563.2892425000027,1563.2892425000027,1563.2892425000027,new_sceneIn_45.png,144,3.0,1.924784600007115,,012,0,2024-11-15_14h18.24.684,Surprise recog test,2023.1.3,59.85425488400272,
144,0,144,0,,,,,,,,,,,,,,,,,,,,,,,,,,,,,,,,,,1567.8608548000047,1568.8810252000112,1566.246898900019,1566.246898900019,1566.246898900019,1566.246898900019,old_sceneOut_35.png,145,1.0,1.6161804999865126,,012,0,2024-11-15_14h18.24.684,Surprise recog test,2023.1.3,59.85425488400272,
145,0,145,0,,,,,,,,,,,,,,,,,,,,,,,,,,,,,,,,,,1569.6248410000117,1570.647187399998,1568.8810252000112,1568.8810252000112,1568.8810252000112,1568.8810252000112,old_fruit_27.png,146,1.0,0.7464169000159018,,012,0,2024-11-15_14h18.24.684,Surprise recog test,2023.1.3,59.85425488400272,
146,0,146,0,,,,,,,,,,,,,,,,,,,,,,,,,,,,,,,,,,1571.3741225000122,1572.3961837000097,1570.647187399998,1570.647187399998,1570.647187399998,1570.647187399998,old_fruit_1.png,147,1.0,0.7290164000005461,,012,0,2024-11-15_14h18.24.684,Surprise recog test,2023.1.3,59.85425488400272,
147,0,147,0,,,,,,,,,,,,,,,,,,,,,,,,,,,,,,,,,,1574.258621200017,1575.280709100014,1572.3961837000097,1572.3961837000097,1572.3961837000097,1572.3961837000097,new_stationery_48.png,148,4.0,1.861268900014693,,012,0,2024-11-15_14h18.24.684,Surprise recog test,2023.1.3,59.85425488400272,
148,0,148,0,,,,,,,,,,,,,,,,,,,,,,,,,,,,,,,,,,1577.1144833000144,1578.1341084000014,1575.280709100014,1575.280709100014,1575.280709100014,1575.280709100014,old_sceneOut_41.png,149,3.0,1.834667300019646,,012,0,2024-11-15_14h18.24.684,Surprise recog test,2023.1.3,59.85425488400272,
149,0,149,0,,,,,,,,,,,,,,,,,,,,,,,,,,,,,,,,,,1579.9138933000213,1580.928753300017,1578.1341084000014,1578.1341084000014,1578.1341084000014,1578.1341084000014,old_sceneIn_2.png,150,3.0,1.780539300001692,,012,0,2024-11-15_14h18.24.684,Surprise recog test,2023.1.3,59.85425488400272,
150,0,150,0,,,,,,,,,,,,,,,,,,,,,,,,,,,,,,,,,,1582.2080151000118,,1580.928753300017,1580.928753300017,1580.928753300017,1580.928753300017,new_sceneOut_44.png,151,3.0,1.274506100016879,,012,0,2024-11-15_14h18.24.684,Surprise recog test,2023.1.3,59.85425488400272,
151,0,151,0,,,,,,,,,,,,,,,,,,,,,,,,,,,,,,,,,,1584.8751272000081,1585.8948169000214,1583.2369059000048,1583.2369059000048,1583.2369059000048,1583.2369059000048,new_sceneOut_36.png,152,4.0,1.6371109000174329,,012,0,2024-11-15_14h18.24.684,Surprise recog test,2023.1.3,59.85425488400272,
152,0,152,0,,,,,,,,,,,,,,,,,,,,,,,,,,,,,,,,,,1588.8407165000099,1589.8523339999956,1585.8948169000214,1585.8948169000214,1585.8948169000214,1585.8948169000214,new_stationery_4.png,153,4.0,2.9470454000111204,,012,0,2024-11-15_14h18.24.684,Surprise recog test,2023.1.3,59.85425488400272,
153,0,153,0,,,,,,,,,,,,,,,,,,,,,,,,,,,,,,,,,,1591.9358517999935,1592.9551331000112,1589.8523339999956,1589.8523339999956,1589.8523339999956,1589.8523339999956,new_stationery_28.png,154,2.0,2.0781693999888375,,012,0,2024-11-15_14h18.24.684,Surprise recog test,2023.1.3,59.85425488400272,
154,0,154,0,,,,,,,,,,,,,,,,,,,,,,,,,,,,,,,,,,1595.578716100019,1596.6028807999974,1592.9551331000112,1592.9551331000112,1592.9551331000112,1592.9551331000112,new_stationery_33.png,155,4.0,2.6188437000091653,,012,0,2024-11-15_14h18.24.684,Surprise recog test,2023.1.3,59.85425488400272,
155,0,155,0,,,,,,,,,,,,,,,,,,,,,,,,,,,,,,,,,,1599.0287285000086,1600.0445953000162,1596.6028807999974,1596.6028807999974,1596.6028807999974,1596.6028807999974,new_stationery_27.png,156,3.0,2.4240970000100788,,012,0,2024-11-15_14h18.24.684,Surprise recog test,2023.1.3,59.85425488400272,
156,0,156,0,,,,,,,,,,,,,,,,,,,,,,,,,,,,,,,,,,1601.728503100021,1602.7624076000066,1600.0445953000162,1600.0445953000162,1600.0445953000162,1600.0445953000162,new_sceneIn_12.png,157,1.0,1.679799399978947,,012,0,2024-11-15_14h18.24.684,Surprise recog test,2023.1.3,59.85425488400272,
157,0,157,0,,,,,,,,,,,,,,,,,,,,,,,,,,,,,,,,,,1603.8246049000008,1604.8286961000122,1602.7624076000066,1602.7624076000066,1602.7624076000066,1602.7624076000066,old_sceneIn_31.png,158,1.0,1.0660384000220802,,012,0,2024-11-15_14h18.24.684,Surprise recog test,2023.1.3,59.85425488400272,
158,0,158,0,,,,,,,,,,,,,,,,,,,,,,,,,,,,,,,,,,1606.8392978000047,1607.8633985000197,1604.8286961000122,1604.8286961000122,1604.8286961000122,1604.8286961000122,new_fruit_48.png,159,2.0,2.0074275999795645,,012,0,2024-11-15_14h18.24.684,Surprise recog test,2023.1.3,59.85425488400272,
159,0,159,0,,,,,,,,,,,,,,,,,,,,,,,,,,,,,,,,,,1609.782898800011,,1607.8633985000197,1607.8633985000197,1607.8633985000197,1607.8633985000197,old_stationery_38.png,160,2.0,1.9213110999844503,,012,0,2024-11-15_14h18.24.684,Surprise recog test,2023.1.3,59.85425488400272,
160,0,160,0,,,,,,,,,,,,,,,,,,,,,,,,,,,,,,,,,,1613.2539072000072,1614.2702284000115,1610.8153545999958,1610.8153545999958,1610.8153545999958,1610.8153545999958,new_sceneOut_32.png,161,3.0,2.440088499977719,,012,0,2024-11-15_14h18.24.684,Surprise recog test,2023.1.3,59.85425488400272,
161,0,161,0,,,,,,,,,,,,,,,,,,,,,,,,,,,,,,,,,,1615.5665502000193,1616.5863187000214,1614.2702284000115,1614.2702284000115,1614.2702284000115,1614.2702284000115,old_sceneIn_28.png,162,3.0,1.2926996999885887,,012,0,2024-11-15_14h18.24.684,Surprise recog test,2023.1.3,59.85425488400272,
162,0,162,0,,,,,,,,,,,,,,,,,,,,,,,,,,,,,,,,,,1618.0665538000176,1619.0922560000035,1616.5863187000214,1616.5863187000214,1616.5863187000214,1616.5863187000214,new_sceneIn_19.png,163,2.0,1.4795659000228625,,012,0,2024-11-15_14h18.24.684,Surprise recog test,2023.1.3,59.85425488400272,
163,0,163,0,,,,,,,,,,,,,,,,,,,,,,,,,,,,,,,,,,1622.429403999995,1623.4588366000098,1619.0922560000035,1619.0922560000035,1619.0922560000035,1619.0922560000035,old_sceneOut_15.png,164,4.0,3.3415040000109,,012,0,2024-11-15_14h18.24.684,Surprise recog test,2023.1.3,59.85425488400272,
164,0,164,0,,,,,,,,,,,,,,,,,,,,,,,,,,,,,,,,,,1625.1571498000121,1626.1737421000144,1623.4588366000098,1623.4588366000098,1623.4588366000098,1623.4588366000098,new_stationery_5.png,165,4.0,1.6981587999907788,,012,0,2024-11-15_14h18.24.684,Surprise recog test,2023.1.3,59.85425488400272,
165,0,165,0,,,,,,,,,,,,,,,,,,,,,,,,,,,,,,,,,,1628.8041711999977,1629.8191318000027,1626.1737421000144,1626.1737421000144,1626.1737421000144,1626.1737421000144,new_stationery_16.png,166,4.0,2.6281808000057936,,012,0,2024-11-15_14h18.24.684,Surprise recog test,2023.1.3,59.85425488400272,
166,0,166,0,,,,,,,,,,,,,,,,,,,,,,,,,,,,,,,,,,1631.6705750999972,1632.6949293000216,1629.8191318000027,1629.8191318000027,1629.8191318000027,1629.8191318000027,new_fruit_25.png,167,3.0,1.8470159000135027,,012,0,2024-11-15_14h18.24.684,Surprise recog test,2023.1.3,59.85425488400272,
167,0,167,0,,,,,,,,,,,,,,,,,,,,,,,,,,,,,,,,,,1634.5249670000048,1635.5539641000214,1632.6949293000216,1632.6949293000216,1632.6949293000216,1632.6949293000216,new_sceneOut_40.png,168,2.0,1.8298862000228837,,012,0,2024-11-15_14h18.24.684,Surprise recog test,2023.1.3,59.85425488400272,
168,0,168,0,,,,,,,,,,,,,,,,,,,,,,,,,,,,,,,,,,1637.226944199996,1638.244100800017,1635.5539641000214,1635.5539641000214,1635.5539641000214,1635.5539641000214,new_fruit_33.png,169,3.0,1.6749797000084072,,012,0,2024-11-15_14h18.24.684,Surprise recog test,2023.1.3,59.85425488400272,
169,0,169,0,,,,,,,,,,,,,,,,,,,,,,,,,,,,,,,,,,1639.8846377000154,1640.9088702000154,1638.244100800017,1638.244100800017,1638.244100800017,1638.244100800017,new_sceneIn_23.png,170,3.0,1.6367481000197586,,012,0,2024-11-15_14h18.24.684,Surprise recog test,2023.1.3,59.85425488400272,
170,0,170,0,,,,,,,,,,,,,,,,,,,,,,,,,,,,,,,,,,1642.0596863999963,,1640.9088702000154,1640.9088702000154,1640.9088702000154,1640.9088702000154,new_sceneIn_25.png,171,3.0,1.1530425999953877,,012,0,2024-11-15_14h18.24.684,Surprise recog test,2023.1.3,59.85425488400272,
171,0,171,0,,,,,,,,,,,,,,,,,,,,,,,,,,,,,,,,,,1645.2038884000212,1646.2129027000046,1643.088314499997,1643.088314499997,1643.088314499997,1643.088314499997,new_sceneOut_37.png,172,1.0,2.117352100001881,,012,0,2024-11-15_14h18.24.684,Surprise recog test,2023.1.3,59.85425488400272,
172,0,172,0,,,,,,,,,,,,,,,,,,,,,,,,,,,,,,,,,,1648.3859102000133,1649.411804000003,1646.2129027000046,1646.2129027000046,1646.2129027000046,1646.2129027000046,old_fruit_46.png,173,5.0,2.1691289999871515,,012,0,2024-11-15_14h18.24.684,Surprise recog test,2023.1.3,59.85425488400272,
173,0,173,0,,,,,,,,,,,,,,,,,,,,,,,,,,,,,,,,,,1652.4974350999983,1653.5120852999971,1649.411804000003,1649.411804000003,1649.411804000003,1649.411804000003,old_sceneIn_16.png,174,3.0,3.0865105999982916,,012,0,2024-11-15_14h18.24.684,Surprise recog test,2023.1.3,59.85425488400272,
174,0,174,0,,,,,,,,,,,,,,,,,,,,,,,,,,,,,,,,,,1655.3833356999967,1656.3872909000202,1653.5120852999971,1653.5120852999971,1653.5120852999971,1653.5120852999971,new_sceneIn_50.png,175,2.0,1.8689479000167921,,012,0,2024-11-15_14h18.24.684,Surprise recog test,2023.1.3,59.85425488400272,
175,0,175,0,,,,,,,,,,,,,,,,,,,,,,,,,,,,,,,,,,1658.1777557000169,1659.2066404000216,1656.3872909000202,1656.3872909000202,1656.3872909000202,1656.3872909000202,new_stationery_43.png,176,5.0,1.7868780000135303,,012,0,2024-11-15_14h18.24.684,Surprise recog test,2023.1.3,59.85425488400272,
176,0,176,0,,,,,,,,,,,,,,,,,,,,,,,,,,,,,,,,,,1662.5612162000034,1663.5803304,1659.2066404000216,1659.2066404000216,1659.2066404000216,1659.2066404000216,new_stationery_47.png,177,3.0,3.355653999984497,,012,0,2024-11-15_14h18.24.684,Surprise recog test,2023.1.3,59.85425488400272,
177,0,177,0,,,,,,,,,,,,,,,,,,,,,,,,,,,,,,,,,,1666.776904600003,1667.7958457000204,1663.5803304,1663.5803304,1663.5803304,1663.5803304,new_stationery_2.png,178,4.0,3.189858900004765,,012,0,2024-11-15_14h18.24.684,Surprise recog test,2023.1.3,59.85425488400272,
178,0,178,0,,,,,,,,,,,,,,,,,,,,,,,,,,,,,,,,,,1669.762316700013,1670.7815371000033,1667.7958457000204,1667.7958457000204,1667.7958457000204,1667.7958457000204,old_sceneIn_6.png,179,1.0,1.9673819999734405,,012,0,2024-11-15_14h18.24.684,Surprise recog test,2023.1.3,59.85425488400272,
179,0,179,0,,,,,,,,,,,,,,,,,,,,,,,,,,,,,,,,,,1671.7932290000026,1672.813849500002,1670.7815371000033,1670.7815371000033,1670.7815371000033,1670.7815371000033,new_sceneIn_37.png,180,1.0,1.0132664999982808,,012,0,2024-11-15_14h18.24.684,Surprise recog test,2023.1.3,59.85425488400272,
180,0,180,0,,,,,,,,,,,,,,,,,,,,,,,,,,,,,,,,,,1674.9695255999977,,1672.813849500002,1672.813849500002,1672.813849500002,1672.813849500002,new_sceneIn_44.png,181,4.0,2.1574695000017527,,012,0,2024-11-15_14h18.24.684,Surprise recog test,2023.1.3,59.85425488400272,
181,0,181,0,,,,,,,,,,,,,,,,,,,,,,,,,,,,,,,,,,1678.6755836000084,1679.7084613000043,1675.9918649000174,1675.9918649000174,1675.9918649000174,1675.9918649000174,old_sceneIn_45.png,182,3.0,2.6798499999858905,,012,0,2024-11-15_14h18.24.684,Surprise recog test,2023.1.3,59.85425488400272,
182,0,182,0,,,,,,,,,,,,,,,,,,,,,,,,,,,,,,,,,,1681.5196709000156,1682.527880300011,1679.7084613000043,1679.7084613000043,1679.7084613000043,1679.7084613000043,new_fruit_37.png,183,2.0,1.8131915999983903,,012,0,2024-11-15_14h18.24.684,Surprise recog test,2023.1.3,59.85425488400272,
183,0,183,0,,,,,,,,,,,,,,,,,,,,,,,,,,,,,,,,,,1684.6408258000156,1685.6586698000028,1682.527880300011,1682.527880300011,1682.527880300011,1682.527880300011,old_stationery_27.png,184,3.0,2.1099462999845855,,012,0,2024-11-15_14h18.24.684,Surprise recog test,2023.1.3,59.85425488400272,
184,0,184,0,,,,,,,,,,,,,,,,,,,,,,,,,,,,,,,,,,1687.559820399998,1688.5787788000016,1685.6586698000028,1685.6586698000028,1685.6586698000028,1685.6586698000028,old_fruit_10.png,185,1.0,1.902776700007962,,012,0,2024-11-15_14h18.24.684,Surprise recog test,2023.1.3,59.85425488400272,
185,0,185,0,,,,,,,,,,,,,,,,,,,,,,,,,,,,,,,,,,1690.5124606000027,1691.5168507000199,1688.5787788000016,1688.5787788000016,1688.5787788000016,1688.5787788000016,new_stationery_44.png,186,4.0,1.931954700005008,,012,0,2024-11-15_14h18.24.684,Surprise recog test,2023.1.3,59.85425488400272,
186,0,186,0,,,,,,,,,,,,,,,,,,,,,,,,,,,,,,,,,,1694.2774332000117,1695.2967691000085,1691.5168507000199,1691.5168507000199,1691.5168507000199,1691.5168507000199,old_sceneIn_13.png,187,2.0,2.7568221999972593,,012,0,2024-11-15_14h18.24.684,Surprise recog test,2023.1.3,59.85425488400272,
187,0,187,0,,,,,,,,,,,,,,,,,,,,,,,,,,,,,,,,,,1698.1478798000026,1699.173151199997,1695.2967691000085,1695.2967691000085,1695.2967691000085,1695.2967691000085,new_sceneIn_42.png,188,3.0,2.851666899980046,,012,0,2024-11-15_14h18.24.684,Surprise recog test,2023.1.3,59.85425488400272,
188,0,188,0,,,,,,,,,,,,,,,,,,,,,,,,,,,,,,,,,,1700.8535445000161,1701.8776735000138,1699.173151199997,1699.173151199997,1699.173151199997,1699.173151199997,new_fruit_2.png,189,4.0,1.6826071999967098,,012,0,2024-11-15_14h18.24.684,Surprise recog test,2023.1.3,59.85425488400272,
189,0,189,0,,,,,,,,,,,,,,,,,,,,,,,,,,,,,,,,,,1702.8561202000128,1703.8745673999947,1701.8776735000138,1701.8776735000138,1701.8776735000138,1701.8776735000138,new_sceneIn_16.png,190,4.0,0.9790735999995377,,012,0,2024-11-15_14h18.24.684,Surprise recog test,2023.1.3,59.85425488400272,
190,0,190,0,,,,,,,,,,,,,,,,,,,,,,,,,,,,,,,,,,1705.0367527000199,1706.0472231000022,1703.8745673999947,1703.8745673999947,1703.8745673999947,1703.8745673999947,new_sceneIn_43.png,191,4.0,1.1592327999824192,,012,0,2024-11-15_14h18.24.684,Surprise recog test,2023.1.3,59.85425488400272,
191,0,191,0,,,,,,,,,,,,,,,,,,,,,,,,,,,,,,,,,,1708.6170751000172,1709.6329282000079,1706.0472231000022,1706.0472231000022,1706.0472231000022,1706.0472231000022,new_stationery_32.png,192,4.0,2.5655276000034064,,012,0,2024-11-15_14h18.24.684,Surprise recog test,2023.1.3,59.85425488400272,
192,0,192,0,,,,,,,,,,,,,,,,,,,,,,,,,,,,,,,,,,1711.4632979000162,1712.4890382000012,1709.6329282000079,1709.6329282000079,1709.6329282000079,1709.6329282000079,old_stationery_4.png,193,1.0,1.8196510999987368,,012,0,2024-11-15_14h18.24.684,Surprise recog test,2023.1.3,59.85425488400272,
193,0,193,0,,,,,,,,,,,,,,,,,,,,,,,,,,,,,,,,,,1714.5019151000015,,1712.4890382000012,1712.4890382000012,1712.4890382000012,1712.4890382000012,old_sceneIn_19.png,194,4.0,2.0145244000013918,,012,0,2024-11-15_14h18.24.684,Surprise recog test,2023.1.3,59.85425488400272,
194,0,194,0,,,,,,,,,,,,,,,,,,,,,,,,,,,,,,,,,,1716.881726599997,1717.8922281000123,1715.537171700009,1715.537171700009,1715.537171700009,1715.537171700009,new_sceneOut_17.png,195,1.0,1.3469913000008091,,012,0,2024-11-15_14h18.24.684,Surprise recog test,2023.1.3,59.85425488400272,
195,0,195,0,,,,,,,,,,,,,,,,,,,,,,,,,,,,,,,,,,1719.8503264000174,1720.862796100002,1717.8922281000123,1717.8922281000123,1717.8922281000123,1717.8922281000123,new_stationery_7.png,196,4.0,1.9532227000163402,,012,0,2024-11-15_14h18.24.684,Surprise recog test,2023.1.3,59.85425488400272,
196,0,196,0,,,,,,,,,,,,,,,,,,,,,,,,,,,,,,,,,,1722.417855000007,1723.4318945000123,1720.862796100002,1720.862796100002,1720.862796100002,1720.862796100002,old_sceneOut_1.png,197,2.0,1.554142499982845,,012,0,2024-11-15_14h18.24.684,Surprise recog test,2023.1.3,59.85425488400272,
197,0,197,0,,,,,,,,,,,,,,,,,,,,,,,,,,,,,,,,,,1725.0580665000016,1726.0780298000027,1723.4318945000123,1723.4318945000123,1723.4318945000123,1723.4318945000123,old_sceneOut_12.png,198,3.0,1.623815700004343,,012,0,2024-11-15_14h18.24.684,Surprise recog test,2023.1.3,59.85425488400272,
198,0,198,0,,,,,,,,,,,,,,,,,,,,,,,,,,,,,,,,,,1727.8577398000052,1728.8803912000149,1726.0780298000027,1726.0780298000027,1726.0780298000027,1726.0780298000027,old_stationery_22.png,199,1.0,1.7827510999923106,,012,0,2024-11-15_14h18.24.684,Surprise recog test,2023.1.3,59.85425488400272,
199,0,199,0,,,,,,,,,,,,,,,,,,,,,,,,,,,,,,,,,,1730.998899600003,,1728.8803912000149,1728.8803912000149,1728.8803912000149,1728.8803912000149,new_fruit_7.png,200,4.0,2.122114599973429,,012,0,2024-11-15_14h18.24.684,Surprise recog test,2023.1.3,59.85425488400272,
200,0,200,0,,,,,,,,,,,,,,,,,,,,,,,,,,,,,,,,,,1733.2526343000063,1734.2700650000188,1732.0206169000012,1732.0206169000012,1732.0206169000012,1732.0206169000012,new_stationery_50.png,201,4.0,1.226615399995353,,012,0,2024-11-15_14h18.24.684,Surprise recog test,2023.1.3,59.85425488400272,
201,0,201,0,,,,,,,,,,,,,,,,,,,,,,,,,,,,,,,,,,1736.6380831999995,,1734.2700650000188,1734.2700650000188,1734.2700650000188,1734.2700650000188,old_stationery_39.png,202,3.0,2.364649900002405,,012,0,2024-11-15_14h18.24.684,Surprise recog test,2023.1.3,59.85425488400272,
202,0,202,0,,,,,,,,,,,,,,,,,,,,,,,,,,,,,,,,,,1739.5946501000144,1740.6174345000181,1737.671111100004,1737.671111100004,1737.671111100004,1737.671111100004,new_fruit_18.png,203,1.0,1.9246479000139516,,012,0,2024-11-15_14h18.24.684,Surprise recog test,2023.1.3,59.85425488400272,
203,0,203,0,,,,,,,,,,,,,,,,,,,,,,,,,,,,,,,,,,1741.4073464999965,,1740.6174345000181,1740.6174345000181,1740.6174345000181,1740.6174345000181,old_sceneOut_34.png,204,1.0,0.791042800003197,,012,0,2024-11-15_14h18.24.684,Surprise recog test,2023.1.3,59.85425488400272,
204,0,204,0,,,,,,,,,,,,,,,,,,,,,,,,,,,,,,,,,,1744.419457400014,1745.4454168000084,1742.4294901000103,1742.4294901000103,1742.4294901000103,1742.4294901000103,new_sceneIn_8.png,205,3.0,1.9858227999939118,,012,0,2024-11-15_14h18.24.684,Surprise recog test,2023.1.3,59.85425488400272,
205,0,205,0,,,,,,,,,,,,,,,,,,,,,,,,,,,,,,,,,,1747.2791239000217,,1745.4454168000084,1745.4454168000084,1745.4454168000084,1745.4454168000084,new_fruit_38.png,206,1.0,1.8338349999976344,,012,0,2024-11-15_14h18.24.684,Surprise recog test,2023.1.3,59.85425488400272,
206,0,206,0,,,,,,,,,,,,,,,,,,,,,,,,,,,,,,,,,,1751.5169117000187,,1748.313440900005,1748.313440900005,1748.313440900005,1748.313440900005,new_fruit_19.png,207,3.0,3.2049659000185784,,012,0,2024-11-15_14h18.24.684,Surprise recog test,2023.1.3,59.85425488400272,
207,0,207,0,,,,,,,,,,,,,,,,,,,,,,,,,,,,,,,,,,1754.4402109000075,1755.4683689000085,1752.5344031999994,1752.5344031999994,1752.5344031999994,1752.5344031999994,old_sceneIn_46.png,208,4.0,1.9021618999831844,,012,0,2024-11-15_14h18.24.684,Surprise recog test,2023.1.3,59.85425488400272,
208,0,208,0,,,,,,,,,,,,,,,,,,,,,,,,,,,,,,,,,,1758.110118200013,1759.13891530002,1755.4683689000085,1755.4683689000085,1755.4683689000085,1755.4683689000085,old_sceneIn_41.png,209,3.0,2.643772799987346,,012,0,2024-11-15_14h18.24.684,Surprise recog test,2023.1.3,59.85425488400272,
209,0,209,0,,,,,,,,,,,,,,,,,,,,,,,,,,,,,,,,,,1760.8078723000071,,1759.13891530002,1759.13891530002,1759.13891530002,1759.13891530002,old_stationery_48.png,210,1.0,1.6708819000050426,,012,0,2024-11-15_14h18.24.684,Surprise recog test,2023.1.3,59.85425488400272,
210,0,210,0,,,,,,,,,,,,,,,,,,,,,,,,,,,,,,,,,,1762.6374950000027,1763.6606300999993,1761.8403690000123,1761.8403690000123,1761.8403690000123,1761.8403690000123,old_stationery_50.png,211,1.0,0.7968446999730077,,012,0,2024-11-15_14h18.24.684,Surprise recog test,2023.1.3,59.85425488400272,
211,0,211,0,,,,,,,,,,,,,,,,,,,,,,,,,,,,,,,,,,1765.3913235999935,1766.4058856000192,1763.6606300999993,1763.6606300999993,1763.6606300999993,1763.6606300999993,new_stationery_14.png,212,2.0,1.7311640999978408,,012,0,2024-11-15_14h18.24.684,Surprise recog test,2023.1.3,59.85425488400272,
212,0,212,0,,,,,,,,,,,,,,,,,,,,,,,,,,,,,,,,,,1768.0494013999996,1769.0740288000088,1766.4058856000192,1766.4058856000192,1766.4058856000192,1766.4058856000192,new_sceneOut_49.png,213,1.0,1.6396122000005562,,012,0,2024-11-15_14h18.24.684,Surprise recog test,2023.1.3,59.85425488400272,
213,0,213,0,,,,,,,,,,,,,,,,,,,,,,,,,,,,,,,,,,1770.7845652000105,1771.8166918000206,1769.0740288000088,1769.0740288000088,1769.0740288000088,1769.0740288000088,old_sceneOut_36.png,214,1.0,1.7109477999911178,,012,0,2024-11-15_14h18.24.684,Surprise recog test,2023.1.3,59.85425488400272,
214,0,214,0,,,,,,,,,,,,,,,,,,,,,,,,,,,,,,,,,,1772.680772599997,1773.6852367999963,1771.8166918000206,1771.8166918000206,1771.8166918000206,1771.8166918000206,new_fruit_35.png,215,1.0,0.859545099985553,,012,0,2024-11-15_14h18.24.684,Surprise recog test,2023.1.3,59.85425488400272,
215,0,215,0,,,,,,,,,,,,,,,,,,,,,,,,,,,,,,,,,,1774.9707668000192,1775.9868680000072,1773.6852367999963,1773.6852367999963,1773.6852367999963,1773.6852367999963,old_fruit_39.png,216,1.0,1.2807436999864876,,012,0,2024-11-15_14h18.24.684,Surprise recog test,2023.1.3,59.85425488400272,
216,0,216,0,,,,,,,,,,,,,,,,,,,,,,,,,,,,,,,,,,1777.6929040999967,1778.7170796999999,1775.9868680000072,1775.9868680000072,1775.9868680000072,1775.9868680000072,new_sceneIn_9.png,217,4.0,1.6994211999990512,,012,0,2024-11-15_14h18.24.684,Surprise recog test,2023.1.3,59.85425488400272,
217,0,217,0,,,,,,,,,,,,,,,,,,,,,,,,,,,,,,,,,,1780.1423083000118,1781.175789800007,1778.7170796999999,1778.7170796999999,1778.7170796999999,1778.7170796999999,new_fruit_30.png,218,4.0,1.4259305000014137,,012,0,2024-11-15_14h18.24.684,Surprise recog test,2023.1.3,59.85425488400272,
218,0,218,0,,,,,,,,,,,,,,,,,,,,,,,,,,,,,,,,,,1782.8708247000177,1783.8921284000098,1781.175789800007,1781.175789800007,1781.175789800007,1781.175789800007,old_stationery_47.png,219,1.0,1.6973800000268966,,012,0,2024-11-15_14h18.24.684,Surprise recog test,2023.1.3,59.85425488400272,
219,0,219,0,,,,,,,,,,,,,,,,,,,,,,,,,,,,,,,,,,1784.6439951000211,,1783.8921284000098,1783.8921284000098,1783.8921284000098,1783.8921284000098,old_stationery_40.png,220,1.0,0.7538272000092547,,012,0,2024-11-15_14h18.24.684,Surprise recog test,2023.1.3,59.85425488400272,
220,0,220,0,,,,,,,,,,,,,,,,,,,,,,,,,,,,,,,,,,1788.1069696000195,1789.1182641000196,1785.6779820999946,1785.6779820999946,1785.6779820999946,1785.6779820999946,old_sceneIn_23.png,221,3.0,2.431245799991302,,012,0,2024-11-15_14h18.24.684,Surprise recog test,2023.1.3,59.85425488400272,
221,0,221,0,,,,,,,,,,,,,,,,,,,,,,,,,,,,,,,,,,1790.7412957000197,1791.7656803000136,1789.1182641000196,1789.1182641000196,1789.1182641000196,1789.1182641000196,old_stationery_2.png,222,1.0,1.6164430000062566,,012,0,2024-11-15_14h18.24.684,Surprise recog test,2023.1.3,59.85425488400272,
222,0,222,0,,,,,,,,,,,,,,,,,,,,,,,,,,,,,,,,,,1793.6156940000074,1794.6276567000023,1791.7656803000136,1791.7656803000136,1791.7656803000136,1791.7656803000136,old_fruit_19.png,223,2.0,1.852217900013784,,012,0,2024-11-15_14h18.24.684,Surprise recog test,2023.1.3,59.85425488400272,
223,0,223,0,,,,,,,,,,,,,,,,,,,,,,,,,,,,,,,,,,1796.3560210000142,1797.3856831000012,1794.6276567000023,1794.6276567000023,1794.6276567000023,1794.6276567000023,old_sceneIn_17.png,224,2.0,1.7284709000086877,,012,0,2024-11-15_14h18.24.684,Surprise recog test,2023.1.3,59.85425488400272,
224,0,224,0,,,,,,,,,,,,,,,,,,,,,,,,,,,,,,,,,,1798.6337960000092,1799.6546500000113,1797.3856831000012,1797.3856831000012,1797.3856831000012,1797.3856831000012,old_stationery_9.png,225,1.0,1.250347099994542,,012,0,2024-11-15_14h18.24.684,Surprise recog test,2023.1.3,59.85425488400272,
225,0,225,0,,,,,,,,,,,,,,,,,,,,,,,,,,,,,,,,,,1800.937593700015,1801.95721220001,1799.6546500000113,1799.6546500000113,1799.6546500000113,1799.6546500000113,old_fruit_15.png,226,1.0,1.2782120000047144,,012,0,2024-11-15_14h18.24.684,Surprise recog test,2023.1.3,59.85425488400272,
226,0,226,0,,,,,,,,,,,,,,,,,,,,,,,,,,,,,,,,,,1803.0753205000074,,1801.95721220001,1801.95721220001,1801.95721220001,1801.95721220001,new_sceneOut_30.png,227,1.0,1.1205943999812007,,012,0,2024-11-15_14h18.24.684,Surprise recog test,2023.1.3,59.85425488400272,
227,0,227,0,,,,,,,,,,,,,,,,,,,,,,,,,,,,,,,,,,1806.0762600000016,1807.0990519000043,1804.093516199995,1804.093516199995,1804.093516199995,1804.093516199995,new_sceneIn_46.png,228,2.0,1.9781070000026375,,012,0,2024-11-15_14h18.24.684,Surprise recog test,2023.1.3,59.85425488400272,
228,0,228,0,,,,,,,,,,,,,,,,,,,,,,,,,,,,,,,,,,1808.789380400005,1809.8167004999996,1807.0990519000043,1807.0990519000043,1807.0990519000043,1807.0990519000043,old_sceneOut_29.png,229,2.0,1.6935705999785569,,012,0,2024-11-15_14h18.24.684,Surprise recog test,2023.1.3,59.85425488400272,
229,0,229,0,,,,,,,,,,,,,,,,,,,,,,,,,,,,,,,,,,1811.015630000009,,1809.8167004999996,1809.8167004999996,1809.8167004999996,1809.8167004999996,new_fruit_50.png,230,1.0,1.2013772000209428,,012,0,2024-11-15_14h18.24.684,Surprise recog test,2023.1.3,59.85425488400272,
230,0,230,0,,,,,,,,,,,,,,,,,,,,,,,,,,,,,,,,,,1813.4546753000177,1814.4846828000154,1812.0363674999971,1812.0363674999971,1812.0363674999971,1812.0363674999971,old_sceneOut_16.png,231,1.0,1.4141485999862198,,012,0,2024-11-15_14h18.24.684,Surprise recog test,2023.1.3,59.85425488400272,
231,0,231,0,,,,,,,,,,,,,,,,,,,,,,,,,,,,,,,,,,1816.236341700016,,1814.4846828000154,1814.4846828000154,1814.4846828000154,1814.4846828000154,new_sceneOut_29.png,232,3.0,1.7520911000028718,,012,0,2024-11-15_14h18.24.684,Surprise recog test,2023.1.3,59.85425488400272,
232,0,232,0,,,,,,,,,,,,,,,,,,,,,,,,,,,,,,,,,,1818.6467728000134,1819.6735088000132,1817.265926299995,1817.265926299995,1817.265926299995,1817.265926299995,old_fruit_44.png,233,3.0,1.3830102999927476,,012,0,2024-11-15_14h18.24.684,Surprise recog test,2023.1.3,59.85425488400272,
233,0,233,0,,,,,,,,,,,,,,,,,,,,,,,,,,,,,,,,,,1821.6759743000148,,1819.6735088000132,1819.6735088000132,1819.6735088000132,1819.6735088000132,old_sceneOut_7.png,234,1.0,2.0041797000158112,,012,0,2024-11-15_14h18.24.684,Surprise recog test,2023.1.3,59.85425488400272,
234,0,234,0,,,,,,,,,,,,,,,,,,,,,,,,,,,,,,,,,,1824.559782700002,,1822.7109490000003,1822.7109490000003,1822.7109490000003,1822.7109490000003,old_fruit_17.png,235,2.0,1.8497406000096817,,012,0,2024-11-15_14h18.24.684,Surprise recog test,2023.1.3,59.85425488400272,
235,0,235,0,,,,,,,,,,,,,,,,,,,,,,,,,,,,,,,,,,1827.5724779000157,1828.590312300017,1825.5805831000034,1825.5805831000034,1825.5805831000034,1825.5805831000034,old_sceneIn_20.png,236,4.0,1.9882117999950424,,012,0,2024-11-15_14h18.24.684,Surprise recog test,2023.1.3,59.85425488400272,
236,0,236,0,,,,,,,,,,,,,,,,,,,,,,,,,,,,,,,,,,1830.2503595000017,1831.2760153000127,1828.590312300017,1828.590312300017,1828.590312300017,1828.590312300017,new_sceneOut_16.png,237,1.0,1.6586519999837037,,012,0,2024-11-15_14h18.24.684,Surprise recog test,2023.1.3,59.85425488400272,
237,0,237,0,,,,,,,,,,,,,,,,,,,,,,,,,,,,,,,,,,1832.8693475000036,1833.8982549000066,1831.2760153000127,1831.2760153000127,1831.2760153000127,1831.2760153000127,new_fruit_44.png,238,2.0,1.5932809000078123,,012,0,2024-11-15_14h18.24.684,Surprise recog test,2023.1.3,59.85425488400272,
238,0,238,0,,,,,,,,,,,,,,,,,,,,,,,,,,,,,,,,,,1835.3447748000035,1836.3637160999933,1833.8982549000066,1833.8982549000066,1833.8982549000066,1833.8982549000066,old_stationery_13.png,239,1.0,1.4479651000001468,,012,0,2024-11-15_14h18.24.684,Surprise recog test,2023.1.3,59.85425488400272,
239,0,239,0,,,,,,,,,,,,,,,,,,,,,,,,,,,,,,,,,,1837.2585319000063,1838.293199000007,1836.3637160999933,1836.3637160999933,1836.3637160999933,1836.3637160999933,old_fruit_26.png,240,1.0,0.8946386000025086,,012,0,2024-11-15_14h18.24.684,Surprise recog test,2023.1.3,59.85425488400272,
240,0,240,0,,,,,,,,,,,,,,,,,,,,,,,,,,,,,,,,,,1839.1233954000054,,1838.293199000007,1838.293199000007,1838.293199000007,1838.293199000007,old_fruit_29.png,241,1.0,0.8321421000000555,,012,0,2024-11-15_14h18.24.684,Surprise recog test,2023.1.3,59.85425488400272,
241,0,241,0,,,,,,,,,,,,,,,,,,,,,,,,,,,,,,,,,,1842.5656266000005,1843.5929440000036,1840.1528917000105,1840.1528917000105,1840.1528917000105,1840.1528917000105,old_sceneIn_25.png,242,4.0,2.4145775999932084,,012,0,2024-11-15_14h18.24.684,Surprise recog test,2023.1.3,59.85425488400272,
242,0,242,0,,,,,,,,,,,,,,,,,,,,,,,,,,,,,,,,,,1845.201522599993,1846.2255524999928,1843.5929440000036,1843.5929440000036,1843.5929440000036,1843.5929440000036,old_sceneOut_5.png,243,2.0,1.610307200026,,012,0,2024-11-15_14h18.24.684,Surprise recog test,2023.1.3,59.85425488400272,
243,0,243,0,,,,,,,,,,,,,,,,,,,,,,,,,,,,,,,,,,1847.8484467999951,1848.8760157999932,1846.2255524999928,1846.2255524999928,1846.2255524999928,1846.2255524999928,old_sceneOut_24.png,244,2.0,1.6222336000064388,,012,0,2024-11-15_14h18.24.684,Surprise recog test,2023.1.3,59.85425488400272,
244,0,244,0,,,,,,,,,,,,,,,,,,,,,,,,,,,,,,,,,,1851.3310067999992,1852.3497066000127,1848.8760157999932,1848.8760157999932,1848.8760157999932,1848.8760157999932,old_stationery_43.png,245,3.0,2.455340899992734,,012,0,2024-11-15_14h18.24.684,Surprise recog test,2023.1.3,59.85425488400272,
245,0,245,0,,,,,,,,,,,,,,,,,,,,,,,,,,,,,,,,,,1853.815876800014,1854.8367215000035,1852.3497066000127,1852.3497066000127,1852.3497066000127,1852.3497066000127,new_fruit_32.png,246,4.0,1.4681362000119407,,012,0,2024-11-15_14h18.24.684,Surprise recog test,2023.1.3,59.85425488400272,
246,0,246,0,,,,,,,,,,,,,,,,,,,,,,,,,,,,,,,,,,1856.8824369000213,1857.9060191000171,1854.8367215000035,1854.8367215000035,1854.8367215000035,1854.8367215000035,old_stationery_17.png,247,2.0,2.0480431000178214,,012,0,2024-11-15_14h18.24.684,Surprise recog test,2023.1.3,59.85425488400272,
247,0,247,0,,,,,,,,,,,,,,,,,,,,,,,,,,,,,,,,,,1859.6855740000028,1860.7040610999975,1857.9060191000171,1857.9060191000171,1857.9060191000171,1857.9060191000171,new_sceneOut_27.png,248,1.0,1.782450600003358,,012,0,2024-11-15_14h18.24.684,Surprise recog test,2023.1.3,59.85425488400272,
248,0,248,0,,,,,,,,,,,,,,,,,,,,,,,,,,,,,,,,,,1862.3126388000092,1863.34255880001,1860.7040610999975,1860.7040610999975,1860.7040610999975,1860.7040610999975,old_sceneIn_50.png,249,3.0,1.6111707999953069,,012,0,2024-11-15_14h18.24.684,Surprise recog test,2023.1.3,59.85425488400272,
249,0,249,0,,,,,,,,,,,,,,,,,,,,,,,,,,,,,,,,,,1864.4182687000139,1865.4452560000063,1863.34255880001,1863.34255880001,1863.34255880001,1863.34255880001,old_fruit_20.png,250,3.0,1.0766491999966092,,012,0,2024-11-15_14h18.24.684,Surprise recog test,2023.1.3,59.85425488400272,
250,0,250,0,,,,,,,,,,,,,,,,,,,,,,,,,,,,,,,,,,1866.381361800013,1867.3973080000142,1865.4452560000063,1865.4452560000063,1865.4452560000063,1865.4452560000063,old_fruit_34.png,251,3.0,0.9386694999993779,,012,0,2024-11-15_14h18.24.684,Surprise recog test,2023.1.3,59.85425488400272,
251,0,251,0,,,,,,,,,,,,,,,,,,,,,,,,,,,,,,,,,,1868.5262530000182,1869.550018800015,1867.3973080000142,1867.3973080000142,1867.3973080000142,1867.3973080000142,new_sceneIn_22.png,252,3.0,1.1224491999892052,,012,0,2024-11-15_14h18.24.684,Surprise recog test,2023.1.3,59.85425488400272,
252,0,252,0,,,,,,,,,,,,,,,,,,,,,,,,,,,,,,,,,,1871.008623200003,1872.0347231000196,1869.550018800015,1869.550018800015,1869.550018800015,1869.550018800015,old_fruit_43.png,253,3.0,1.4595863999857102,,012,0,2024-11-15_14h18.24.684,Surprise recog test,2023.1.3,59.85425488400272,
253,0,253,0,,,,,,,,,,,,,,,,,,,,,,,,,,,,,,,,,,1873.5071110000135,1874.5239868000208,1872.0347231000196,1872.0347231000196,1872.0347231000196,1872.0347231000196,old_sceneOut_8.png,254,1.0,1.4731827999930829,,012,0,2024-11-15_14h18.24.684,Surprise recog test,2023.1.3,59.85425488400272,
254,0,254,0,,,,,,,,,,,,,,,,,,,,,,,,,,,,,,,,,,1876.4814005999942,1877.4891478000209,1874.5239868000208,1874.5239868000208,1874.5239868000208,1874.5239868000208,new_stationery_25.png,255,2.0,1.9525576999876648,,012,0,2024-11-15_14h18.24.684,Surprise recog test,2023.1.3,59.85425488400272,
255,0,255,0,,,,,,,,,,,,,,,,,,,,,,,,,,,,,,,,,,1879.8792260000191,1880.9080773000023,1877.4891478000209,1877.4891478000209,1877.4891478000209,1877.4891478000209,new_stationery_46.png,256,4.0,2.385893099999521,,012,0,2024-11-15_14h18.24.684,Surprise recog test,2023.1.3,59.85425488400272,
256,0,256,0,,,,,,,,,,,,,,,,,,,,,,,,,,,,,,,,,,1883.3160200999992,1884.3397309000138,1880.9080773000023,1880.9080773000023,1880.9080773000023,1880.9080773000023,new_fruit_22.png,257,2.0,2.4073631999781355,,012,0,2024-11-15_14h18.24.684,Surprise recog test,2023.1.3,59.85425488400272,
257,0,257,0,,,,,,,,,,,,,,,,,,,,,,,,,,,,,,,,,,1886.0086383000016,1887.0280360000033,1884.3397309000138,1884.3397309000138,1884.3397309000138,1884.3397309000138,new_stationery_8.png,258,4.0,1.6653404000098817,,012,0,2024-11-15_14h18.24.684,Surprise recog test,2023.1.3,59.85425488400272,
258,0,258,0,,,,,,,,,,,,,,,,,,,,,,,,,,,,,,,,,,1888.6237269999983,1889.641781800019,1887.0280360000033,1887.0280360000033,1887.0280360000033,1887.0280360000033,new_sceneOut_3.png,259,2.0,1.59820859998581,,012,0,2024-11-15_14h18.24.684,Surprise recog test,2023.1.3,59.85425488400272,
259,0,259,0,,,,,,,,,,,,,,,,,,,,,,,,,,,,,,,,,,1891.899697899993,,1889.641781800019,1889.641781800019,1889.641781800019,1889.641781800019,old_sceneIn_1.png,260,3.0,2.2567408999893814,,012,0,2024-11-15_14h18.24.684,Surprise recog test,2023.1.3,59.85425488400272,
260,0,260,0,,,,,,,,,,,,,,,,,,,,,,,,,,,,,,,,,,1894.4390172999993,1895.4557363000058,1892.9269973000046,1892.9269973000046,1892.9269973000046,1892.9269973000046,new_stationery_24.png,261,1.0,1.5109155000245664,,012,0,2024-11-15_14h18.24.684,Surprise recog test,2023.1.3,59.85425488400272,
261,0,261,0,,,,,,,,,,,,,,,,,,,,,,,,,,,,,,,,,,1896.6526900000172,,1895.4557363000058,1895.4557363000058,1895.4557363000058,1895.4557363000058,new_sceneOut_19.png,262,1.0,1.1895580999844242,,012,0,2024-11-15_14h18.24.684,Surprise recog test,2023.1.3,59.85425488400272,
262,0,262,0,,,,,,,,,,,,,,,,,,,,,,,,,,,,,,,,,,1899.3881110000075,,1897.676495199994,1897.676495199994,1897.676495199994,1897.676495199994,new_sceneIn_34.png,263,3.0,1.7093565999821294,,012,0,2024-11-15_14h18.24.684,Surprise recog test,2023.1.3,59.85425488400272,
263,0,263,0,,,,,,,,,,,,,,,,,,,,,,,,,,,,,,,,,,1901.5809554000152,1902.5999976000166,1900.416324699996,1900.416324699996,1900.416324699996,1900.416324699996,new_sceneOut_5.png,264,1.0,1.1654407000169158,,012,0,2024-11-15_14h18.24.684,Surprise recog test,2023.1.3,59.85425488400272,
264,0,264,0,,,,,,,,,,,,,,,,,,,,,,,,,,,,,,,,,,1904.0529639000015,1905.0728552000073,1902.5999976000166,1902.5999976000166,1902.5999976000166,1902.5999976000166,new_sceneIn_14.png,265,3.0,1.4530821999942418,,012,0,2024-11-15_14h18.24.684,Surprise recog test,2023.1.3,59.85425488400272,
265,0,265,0,,,,,,,,,,,,,,,,,,,,,,,,,,,,,,,,,,1907.2594454000064,1908.27657430002,1905.0728552000073,1905.0728552000073,1905.0728552000073,1905.0728552000073,old_sceneIn_7.png,266,4.0,2.1825310999993235,,012,0,2024-11-15_14h18.24.684,Surprise recog test,2023.1.3,59.85425488400272,
266,0,266,0,,,,,,,,,,,,,,,,,,,,,,,,,,,,,,,,,,1909.5872246999934,1910.6145478000108,1908.27657430002,1908.27657430002,1908.27657430002,1908.27657430002,old_sceneIn_11.png,267,3.0,1.3054829000029713,,012,0,2024-11-15_14h18.24.684,Surprise recog test,2023.1.3,59.85425488400272,
267,0,267,0,,,,,,,,,,,,,,,,,,,,,,,,,,,,,,,,,,1911.9873189000064,1913.0070417000097,1910.6145478000108,1910.6145478000108,1910.6145478000108,1910.6145478000108,new_fruit_43.png,268,4.0,1.3752196000132244,,012,0,2024-11-15_14h18.24.684,Surprise recog test,2023.1.3,59.85425488400272,
268,0,268,0,,,,,,,,,,,,,,,,,,,,,,,,,,,,,,,,,,1914.4609115000057,1915.4736115999985,1913.0070417000097,1913.0070417000097,1913.0070417000097,1913.0070417000097,new_sceneOut_39.png,269,4.0,1.4509905000159051,,012,0,2024-11-15_14h18.24.684,Surprise recog test,2023.1.3,59.85425488400272,
269,0,269,0,,,,,,,,,,,,,,,,,,,,,,,,,,,,,,,,,,1916.953023900016,,1915.4736115999985,1915.4736115999985,1915.4736115999985,1915.4736115999985,old_stationery_49.png,270,2.0,1.4753796000150032,,012,0,2024-11-15_14h18.24.684,Surprise recog test,2023.1.3,59.85425488400272,
270,0,270,0,,,,,,,,,,,,,,,,,,,,,,,,,,,,,,,,,,1919.1385616000043,,1917.990725200012,1917.990725200012,1917.990725200012,1917.990725200012,old_stationery_14.png,271,1.0,1.150583699985873,,012,0,2024-11-15_14h18.24.684,Surprise recog test,2023.1.3,59.85425488400272,
271,0,271,0,,,,,,,,,,,,,,,,,,,,,,,,,,,,,,,,,,1921.241859200003,1922.2614553000021,1920.1722625000111,1920.1722625000111,1920.1722625000111,1920.1722625000111,old_stationery_24.png,272,1.0,1.0716484999866225,,012,0,2024-11-15_14h18.24.684,Surprise recog test,2023.1.3,59.85425488400272,
272,0,272,0,,,,,,,,,,,,,,,,,,,,,,,,,,,,,,,,,,1924.2175201000064,1925.2437271999952,1922.2614553000021,1922.2614553000021,1922.2614553000021,1922.2614553000021,new_fruit_42.png,273,3.0,1.9501510999980383,,012,0,2024-11-15_14h18.24.684,Surprise recog test,2023.1.3,59.85425488400272,
273,0,273,0,,,,,,,,,,,,,,,,,,,,,,,,,,,,,,,,,,1926.6422016000142,1927.6624303999997,1925.2437271999952,1925.2437271999952,1925.2437271999952,1925.2437271999952,old_sceneIn_4.png,274,1.0,1.4010206999955699,,012,0,2024-11-15_14h18.24.684,Surprise recog test,2023.1.3,59.85425488400272,
274,0,274,0,,,,,,,,,,,,,,,,,,,,,,,,,,,,,,,,,,1928.686109400005,1929.7144164000056,1927.6624303999997,1927.6624303999997,1927.6624303999997,1927.6624303999997,new_fruit_6.png,275,1.0,1.02307060000021,,012,0,2024-11-15_14h18.24.684,Surprise recog test,2023.1.3,59.85425488400272,
275,0,275,0,,,,,,,,,,,,,,,,,,,,,,,,,,,,,,,,,,1931.5330019000103,,1929.7144164000056,1929.7144164000056,1929.7144164000056,1929.7144164000056,new_sceneIn_40.png,276,3.0,1.8136457999935374,,012,0,2024-11-15_14h18.24.684,Surprise recog test,2023.1.3,59.85425488400272,
276,0,276,0,,,,,,,,,,,,,,,,,,,,,,,,,,,,,,,,,,1933.9131919000065,1934.9190724999935,1932.5501456000202,1932.5501456000202,1932.5501456000202,1932.5501456000202,old_stationery_6.png,277,1.0,1.3546008999983314,,012,0,2024-11-15_14h18.24.684,Surprise recog test,2023.1.3,59.85425488400272,
277,0,277,0,,,,,,,,,,,,,,,,,,,,,,,,,,,,,,,,,,1936.7171118000115,1937.7248716000177,1934.9190724999935,1934.9190724999935,1934.9190724999935,1934.9190724999935,new_sceneOut_35.png,278,2.0,1.793720600020606,,012,0,2024-11-15_14h18.24.684,Surprise recog test,2023.1.3,59.85425488400272,
278,0,278,0,,,,,,,,,,,,,,,,,,,,,,,,,,,,,,,,,,1939.891454800003,1940.9235397000157,1937.7248716000177,1937.7248716000177,1937.7248716000177,1937.7248716000177,new_sceneOut_7.png,279,2.0,2.158939500019187,,012,0,2024-11-15_14h18.24.684,Surprise recog test,2023.1.3,59.85425488400272,
279,0,279,0,,,,,,,,,,,,,,,,,,,,,,,,,,,,,,,,,,1942.2048342000053,1943.2252962000202,1940.9235397000157,1940.9235397000157,1940.9235397000157,1940.9235397000157,new_fruit_41.png,280,2.0,1.28425349999452,,012,0,2024-11-15_14h18.24.684,Surprise recog test,2023.1.3,59.85425488400272,
280,0,280,0,,,,,,,,,,,,,,,,,,,,,,,,,,,,,,,,,,1946.214797099994,1947.2428589000192,1943.2252962000202,1943.2252962000202,1943.2252962000202,1943.2252962000202,new_stationery_30.png,281,2.0,2.9884209999872837,,012,0,2024-11-15_14h18.24.684,Surprise recog test,2023.1.3,59.85425488400272,
281,0,281,0,,,,,,,,,,,,,,,,,,,,,,,,,,,,,,,,,,1948.0537564000115,1949.089795100008,1947.2428589000192,1947.2428589000192,1947.2428589000192,1947.2428589000192,old_fruit_3.png,282,2.0,0.8085649999848101,,012,0,2024-11-15_14h18.24.684,Surprise recog test,2023.1.3,59.85425488400272,
282,0,282,0,,,,,,,,,,,,,,,,,,,,,,,,,,,,,,,,,,1950.2813602999959,,1949.089795100008,1949.089795100008,1949.089795100008,1949.089795100008,old_stationery_19.png,283,1.0,1.1971880000201054,,012,0,2024-11-15_14h18.24.684,Surprise recog test,2023.1.3,59.85425488400272,
283,0,283,0,,,,,,,,,,,,,,,,,,,,,,,,,,,,,,,,,,1953.0569934000087,1954.0708152000152,1951.313659700012,1951.313659700012,1951.313659700012,1951.313659700012,new_stationery_38.png,284,1.0,1.7445234000042547,,012,0,2024-11-15_14h18.24.684,Surprise recog test,2023.1.3,59.85425488400272,
284,0,284,0,,,,,,,,,,,,,,,,,,,,,,,,,,,,,,,,,,1955.5448372999963,1956.5574377000157,1954.0708152000152,1954.0708152000152,1954.0708152000152,1954.0708152000152,old_fruit_5.png,285,2.0,1.4714118000119925,,012,0,2024-11-15_14h18.24.684,Surprise recog test,2023.1.3,59.85425488400272,
285,0,285,0,,,,,,,,,,,,,,,,,,,,,,,,,,,,,,,,,,1957.8377344000037,,1956.5574377000157,1956.5574377000157,1956.5574377000157,1956.5574377000157,old_sceneOut_32.png,286,2.0,1.2749295999819878,,012,0,2024-11-15_14h18.24.684,Surprise recog test,2023.1.3,59.85425488400272,
286,0,286,0,,,,,,,,,,,,,,,,,,,,,,,,,,,,,,,,,,1960.9085620999977,1961.9282980000135,1958.8658903000178,1958.8658903000178,1958.8658903000178,1958.8658903000178,new_sceneIn_47.png,287,4.0,2.043077299982542,,012,0,2024-11-15_14h18.24.684,Surprise recog test,2023.1.3,59.85425488400272,
287,0,287,0,,,,,,,,,,,,,,,,,,,,,,,,,,,,,,,,,,1962.9059828000027,1963.9214465999976,1961.9282980000135,1961.9282980000135,1961.9282980000135,1961.9282980000135,old_fruit_2.png,288,3.0,0.9725165000127163,,012,0,2024-11-15_14h18.24.684,Surprise recog test,2023.1.3,59.85425488400272,
288,0,288,0,,,,,,,,,,,,,,,,,,,,,,,,,,,,,,,,,,1965.0971838000114,1966.125241200003,1963.9214465999976,1963.9214465999976,1963.9214465999976,1963.9214465999976,new_sceneOut_45.png,289,2.0,1.1778918999771122,,012,0,2024-11-15_14h18.24.684,Surprise recog test,2023.1.3,59.85425488400272,
289,0,289,0,,,,,,,,,,,,,,,,,,,,,,,,,,,,,,,,,,1967.9919437000062,1969.0069457000063,1966.125241200003,1966.125241200003,1966.125241200003,1966.125241200003,new_stationery_41.png,290,4.0,1.8677189000009093,,012,0,2024-11-15_14h18.24.684,Surprise recog test,2023.1.3,59.85425488400272,
290,0,290,0,,,,,,,,,,,,,,,,,,,,,,,,,,,,,,,,,,1970.2015411000175,1971.2165897999948,1969.0069457000063,1969.0069457000063,1969.0069457000063,1969.0069457000063,old_sceneOut_30.png,291,2.0,1.191328799992334,,012,0,2024-11-15_14h18.24.684,Surprise recog test,2023.1.3,59.85425488400272,
291,0,291,0,,,,,,,,,,,,,,,,,,,,,,,,,,,,,,,,,,1972.9494462000148,,1971.2165897999948,1971.2165897999948,1971.2165897999948,1971.2165897999948,new_stationery_10.png,292,2.0,1.728284300013911,,012,0,2024-11-15_14h18.24.684,Surprise recog test,2023.1.3,59.85425488400272,
292,0,292,0,,,,,,,,,,,,,,,,,,,,,,,,,,,,,,,,,,1976.110272299993,1977.1370775999967,1973.9736697000044,1973.9736697000044,1973.9736697000044,1973.9736697000044,new_fruit_47.png,293,4.0,2.136013899988029,,012,0,2024-11-15_14h18.24.684,Surprise recog test,2023.1.3,59.85425488400272,
293,0,293,0,,,,,,,,,,,,,,,,,,,,,,,,,,,,,,,,,,1977.969844700012,1978.9778278000013,1977.1370775999967,1977.1370775999967,1977.1370775999967,1977.1370775999967,new_fruit_24.png,294,4.0,0.8337732000218239,,012,0,2024-11-15_14h18.24.684,Surprise recog test,2023.1.3,59.85425488400272,
294,0,294,0,,,,,,,,,,,,,,,,,,,,,,,,,,,,,,,,,,1980.7241111000185,,1978.9778278000013,1978.9778278000013,1978.9778278000013,1978.9778278000013,old_sceneIn_12.png,295,3.0,1.7421097999904305,,012,0,2024-11-15_14h18.24.684,Surprise recog test,2023.1.3,59.85425488400272,
295,0,295,0,,,,,,,,,,,,,,,,,,,,,,,,,,,,,,,,,,1983.297096299997,1984.3206349000102,1981.7575720000023,1981.7575720000023,1981.7575720000023,1981.7575720000023,new_fruit_4.png,296,4.0,1.5417693999770563,,012,0,2024-11-15_14h18.24.684,Surprise recog test,2023.1.3,59.85425488400272,
296,0,296,0,,,,,,,,,,,,,,,,,,,,,,,,,,,,,,,,,,1987.4138169999933,,1984.3206349000102,1984.3206349000102,1984.3206349000102,1984.3206349000102,new_fruit_17.png,297,3.0,3.091875699989032,,012,0,2024-11-15_14h18.24.684,Surprise recog test,2023.1.3,59.85425488400272,
297,0,297,0,,,,,,,,,,,,,,,,,,,,,,,,,,,,,,,,,,1991.3951845999982,1992.4104280000029,1988.449302699999,1988.449302699999,1988.449302699999,1988.449302699999,new_sceneIn_7.png,298,3.0,2.9500545999908354,,012,0,2024-11-15_14h18.24.684,Surprise recog test,2023.1.3,59.85425488400272,
298,0,298,0,,,,,,,,,,,,,,,,,,,,,,,,,,,,,,,,,,1994.3076497000002,1995.3306922000193,1992.4104280000029,1992.4104280000029,1992.4104280000029,1992.4104280000029,old_fruit_31.png,299,4.0,1.8959783999889623,,012,0,2024-11-15_14h18.24.684,Surprise recog test,2023.1.3,59.85425488400272,
299,0,299,0,,,,,,,,,,,,,,,,,,,,,,,,,,,,,,,,,,1997.2227740999951,1998.242063200014,1995.3306922000193,1995.3306922000193,1995.3306922000193,1995.3306922000193,new_stationery_35.png,300,1.0,1.8943118999886792,,012,0,2024-11-15_14h18.24.684,Surprise recog test,2023.1.3,59.85425488400272,
300,0,300,0,,,,,,,,,,,,,,,,,,,,,,,,,,,,,,,,,,1999.0787230000133,2000.1066715000197,1998.242063200014,1998.242063200014,1998.242063200014,1998.242063200014,old_stationery_8.png,301,1.0,0.8297100999916438,,012,0,2024-11-15_14h18.24.684,Surprise recog test,2023.1.3,59.85425488400272,
301,0,301,0,,,,,,,,,,,,,,,,,,,,,,,,,,,,,,,,,,2001.0205283999967,2002.0279875000124,2000.1066715000197,2000.1066715000197,2000.1066715000197,2000.1066715000197,old_stationery_1.png,302,1.0,0.9167645999987144,,012,0,2024-11-15_14h18.24.684,Surprise recog test,2023.1.3,59.85425488400272,
302,0,302,0,,,,,,,,,,,,,,,,,,,,,,,,,,,,,,,,,,2003.2459343000082,2004.2691517000203,2002.0279875000124,2002.0279875000124,2002.0279875000124,2002.0279875000124,old_sceneOut_14.png,303,1.0,1.2130417000153102,,012,0,2024-11-15_14h18.24.684,Surprise recog test,2023.1.3,59.85425488400272,
303,0,303,0,,,,,,,,,,,,,,,,,,,,,,,,,,,,,,,,,,2005.8212706000195,2006.8405615999945,2004.2691517000203,2004.2691517000203,2004.2691517000203,2004.2691517000203,old_sceneIn_22.png,304,2.0,1.5530122000200208,,012,0,2024-11-15_14h18.24.684,Surprise recog test,2023.1.3,59.85425488400272,
304,0,304,0,,,,,,,,,,,,,,,,,,,,,,,,,,,,,,,,,,2007.8787272000045,,2006.8405615999945,2006.8405615999945,2006.8405615999945,2006.8405615999945,old_fruit_4.png,305,2.0,1.0359752000076696,,012,0,2024-11-15_14h18.24.684,Surprise recog test,2023.1.3,59.85425488400272,
305,0,305,0,,,,,,,,,,,,,,,,,,,,,,,,,,,,,,,,,,2009.6434432000096,2010.6604415000184,2008.912385100004,2008.912385100004,2008.912385100004,2008.912385100004,old_stationery_33.png,306,2.0,0.732833699992625,,012,0,2024-11-15_14h18.24.684,Surprise recog test,2023.1.3,59.85425488400272,
306,0,306,0,,,,,,,,,,,,,,,,,,,,,,,,,,,,,,,,,,2012.3879623000103,2013.4182539000176,2010.6604415000184,2010.6604415000184,2010.6604415000184,2010.6604415000184,new_sceneIn_20.png,307,4.0,1.7257780999934766,,012,0,2024-11-15_14h18.24.684,Surprise recog test,2023.1.3,59.85425488400272,
307,0,307,0,,,,,,,,,,,,,,,,,,,,,,,,,,,,,,,,,,2014.7934894000064,2015.8126506000117,2013.4182539000176,2013.4182539000176,2013.4182539000176,2013.4182539000176,new_sceneOut_15.png,308,1.0,1.3779035999905318,,012,0,2024-11-15_14h18.24.684,Surprise recog test,2023.1.3,59.85425488400272,
308,0,308,0,,,,,,,,,,,,,,,,,,,,,,,,,,,,,,,,,,2018.1947644000174,2019.2122167000198,2015.8126506000117,2015.8126506000117,2015.8126506000117,2015.8126506000117,new_stationery_45.png,309,2.0,2.3831019999925047,,012,0,2024-11-15_14h18.24.684,Surprise recog test,2023.1.3,59.85425488400272,
309,0,309,0,,,,,,,,,,,,,,,,,,,,,,,,,,,,,,,,,,2020.9327130000165,2021.9545076000213,2019.2122167000198,2019.2122167000198,2019.2122167000198,2019.2122167000198,new_sceneIn_32.png,310,4.0,1.7197121999925002,,012,0,2024-11-15_14h18.24.684,Surprise recog test,2023.1.3,59.85425488400272,
310,0,310,0,,,,,,,,,,,,,,,,,,,,,,,,,,,,,,,,,,2023.1283896999958,2024.1475129000028,2021.9545076000213,2021.9545076000213,2021.9545076000213,2021.9545076000213,old_sceneOut_42.png,311,4.0,1.168395499989856,,012,0,2024-11-15_14h18.24.684,Surprise recog test,2023.1.3,59.85425488400272,
311,0,311,0,,,,,,,,,,,,,,,,,,,,,,,,,,,,,,,,,,2025.5912295000162,2026.6026426000171,2024.1475129000028,2024.1475129000028,2024.1475129000028,2024.1475129000028,old_sceneIn_15.png,312,4.0,1.436879399989266,,012,0,2024-11-15_14h18.24.684,Surprise recog test,2023.1.3,59.85425488400272,
312,0,312,0,,,,,,,,,,,,,,,,,,,,,,,,,,,,,,,,,,2027.8119319000107,,2026.6026426000171,2026.6026426000171,2026.6026426000171,2026.6026426000171,old_fruit_30.png,313,3.0,1.2044344000169076,,012,0,2024-11-15_14h18.24.684,Surprise recog test,2023.1.3,59.85425488400272,
313,0,313,0,,,,,,,,,,,,,,,,,,,,,,,,,,,,,,,,,,2030.092842700018,2031.1148421000107,2028.849468100001,2028.849468100001,2028.849468100001,2028.849468100001,old_sceneIn_43.png,314,3.0,1.2477236000122502,,012,0,2024-11-15_14h18.24.684,Surprise recog test,2023.1.3,59.85425488400272,
314,0,314,0,,,,,,,,,,,,,,,,,,,,,,,,,,,,,,,,,,2032.1696970000048,2033.1850115999987,2031.1148421000107,2031.1148421000107,2031.1148421000107,2031.1148421000107,old_sceneIn_35.png,315,3.0,1.057284200011054,,012,0,2024-11-15_14h18.24.684,Surprise recog test,2023.1.3,59.85425488400272,
315,0,315,0,,,,,,,,,,,,,,,,,,,,,,,,,,,,,,,,,,2034.5657770000107,2035.572833800019,2033.1850115999987,2033.1850115999987,2033.1850115999987,2033.1850115999987,old_sceneOut_50.png,316,2.0,1.376946999982465,,012,0,2024-11-15_14h18.24.684,Surprise recog test,2023.1.3,59.85425488400272,
316,0,316,0,,,,,,,,,,,,,,,,,,,,,,,,,,,,,,,,,,2037.0992875999946,2038.1224689999945,2035.572833800019,2035.572833800019,2035.572833800019,2035.572833800019,old_sceneIn_48.png,317,4.0,1.5220176000148058,,012,0,2024-11-15_14h18.24.684,Surprise recog test,2023.1.3,59.85425488400272,
317,0,317,0,,,,,,,,,,,,,,,,,,,,,,,,,,,,,,,,,,2040.1569867999933,,2038.1224689999945,2038.1224689999945,2038.1224689999945,2038.1224689999945,new_sceneOut_43.png,318,4.0,2.0332344000053126,,012,0,2024-11-15_14h18.24.684,Surprise recog test,2023.1.3,59.85425488400272,
318,0,318,0,,,,,,,,,,,,,,,,,,,,,,,,,,,,,,,,,,2042.2641819000128,2043.2912260000012,2041.1897470999975,2041.1897470999975,2041.1897470999975,2041.1897470999975,old_sceneOut_48.png,319,3.0,1.074693299975479,,012,0,2024-11-15_14h18.24.684,Surprise recog test,2023.1.3,59.85425488400272,
319,0,319,0,,,,,,,,,,,,,,,,,,,,,,,,,,,,,,,,,,2044.530572400021,2045.560474900005,2043.2912260000012,2043.2912260000012,2043.2912260000012,2043.2912260000012,new_sceneOut_18.png,320,3.0,1.2416981999995187,,012,0,2024-11-15_14h18.24.684,Surprise recog test,2023.1.3,59.85425488400272,
320,0,320,0,,,,,,,,,,,,,,,,,,,,,,,,,,,,,,,,,,2047.243832200009,2048.2468304000213,2045.560474900005,2045.560474900005,2045.560474900005,2045.560474900005,new_sceneIn_33.png,321,3.0,1.6852494000049774,,012,0,2024-11-15_14h18.24.684,Surprise recog test,2023.1.3,59.85425488400272,
321,0,321,0,,,,,,,,,,,,,,,,,,,,,,,,,,,,,,,,,,2050.3236705000163,2051.3498476000095,2048.2468304000213,2048.2468304000213,2048.2468304000213,2048.2468304000213,new_sceneOut_50.png,322,4.0,2.071658600005321,,012,0,2024-11-15_14h18.24.684,Surprise recog test,2023.1.3,59.85425488400272,
322,0,322,0,,,,,,,,,,,,,,,,,,,,,,,,,,,,,,,,,,2052.650986499997,,2051.3498476000095,2051.3498476000095,2051.3498476000095,2051.3498476000095,old_fruit_49.png,323,2.0,1.3044843999959994,,012,0,2024-11-15_14h18.24.684,Surprise recog test,2023.1.3,59.85425488400272,
323,0,323,0,,,,,,,,,,,,,,,,,,,,,,,,,,,,,,,,,,2055.186456800002,,2053.683048600011,2053.683048600011,2053.683048600011,2053.683048600011,new_sceneOut_46.png,324,1.0,1.5069140999985393,,012,0,2024-11-15_14h18.24.684,Surprise recog test,2023.1.3,59.85425488400272,
324,0,324,0,,,,,,,,,,,,,,,,,,,,,,,,,,,,,,,,,,2060.1948523000174,2061.2208082000143,2056.205960799998,2056.205960799998,2056.205960799998,2056.205960799998,new_fruit_1.png,325,3.0,3.9832731999922544,,012,0,2024-11-15_14h18.24.684,Surprise recog test,2023.1.3,59.85425488400272,
325,0,325,0,,,,,,,,,,,,,,,,,,,,,,,,,,,,,,,,,,2063.1729662000143,2064.1943751999934,2061.2208082000143,2061.2208082000143,2061.2208082000143,2061.2208082000143,new_stationery_39.png,326,2.0,1.9530491000041366,,012,0,2024-11-15_14h18.24.684,Surprise recog test,2023.1.3,59.85425488400272,
326,0,326,0,,,,,,,,,,,,,,,,,,,,,,,,,,,,,,,,,,2066.64611110001,,2064.1943751999934,2064.1943751999934,2064.1943751999934,2064.1943751999934,old_fruit_45.png,327,1.0,2.4530948999745306,,012,0,2024-11-15_14h18.24.684,Surprise recog test,2023.1.3,59.85425488400272,
327,0,327,0,,,,,,,,,,,,,,,,,,,,,,,,,,,,,,,,,,2068.4401148000034,2069.4509032000205,2067.6805087999965,2067.6805087999965,2067.6805087999965,2067.6805087999965,old_sceneOut_2.png,328,1.0,0.7633507999998983,,012,0,2024-11-15_14h18.24.684,Surprise recog test,2023.1.3,59.85425488400272,
328,0,328,0,,,,,,,,,,,,,,,,,,,,,,,,,,,,,,,,,,2070.6703460999997,2071.6923152999952,2069.4509032000205,2069.4509032000205,2069.4509032000205,2069.4509032000205,new_sceneOut_24.png,329,1.0,1.2149946999852546,,012,0,2024-11-15_14h18.24.684,Surprise recog test,2023.1.3,59.85425488400272,
329,0,329,0,,,,,,,,,,,,,,,,,,,,,,,,,,,,,,,,,,2072.5082335000043,2073.5222415000026,2071.6923152999952,2071.6923152999952,2071.6923152999952,2071.6923152999952,new_sceneOut_4.png,330,1.0,0.8155312000017148,,012,0,2024-11-15_14h18.24.684,Surprise recog test,2023.1.3,59.85425488400272,
330,0,330,0,,,,,,,,,,,,,,,,,,,,,,,,,,,,,,,,,,2074.445561100001,2075.471836200013,2073.5222415000026,2073.5222415000026,2073.5222415000026,2073.5222415000026,new_stationery_9.png,331,1.0,0.9163361999962945,,012,0,2024-11-15_14h18.24.684,Surprise recog test,2023.1.3,59.85425488400272,
331,0,331,0,,,,,,,,,,,,,,,,,,,,,,,,,,,,,,,,,,2077.199029600015,2078.2090896000154,2075.471836200013,2075.471836200013,2075.471836200013,2075.471836200013,new_sceneIn_6.png,332,3.0,1.7272441000095569,,012,0,2024-11-15_14h18.24.684,Surprise recog test,2023.1.3,59.85425488400272,
332,0,332,0,,,,,,,,,,,,,,,,,,,,,,,,,,,,,,,,,,2080.013167099998,2081.028611899994,2078.2090896000154,2078.2090896000154,2078.2090896000154,2078.2090896000154,new_sceneOut_48.png,333,2.0,1.7996789000171702,,012,0,2024-11-15_14h18.24.684,Surprise recog test,2023.1.3,59.85425488400272,
333,0,333,0,,,,,,,,,,,,,,,,,,,,,,,,,,,,,,,,,,2085.396757700015,2086.4279561000003,2081.028611899994,2081.028611899994,2081.028611899994,2081.028611899994,old_fruit_18.png,334,4.0,4.363254200026859,,012,0,2024-11-15_14h18.24.684,Surprise recog test,2023.1.3,59.85425488400272,
334,0,334,0,,,,,,,,,,,,,,,,,,,,,,,,,,,,,,,,,,2087.4707678999985,2088.4974143000145,2086.4279561000003,2086.4279561000003,2086.4279561000003,2086.4279561000003,new_fruit_40.png,335,4.0,1.0437605999759398,,012,0,2024-11-15_14h18.24.684,Surprise recog test,2023.1.3,59.85425488400272,
335,0,335,0,,,,,,,,,,,,,,,,,,,,,,,,,,,,,,,,,,2090.1659583,,2088.4974143000145,2088.4974143000145,2088.4974143000145,2088.4974143000145,new_fruit_12.png,336,2.0,1.6691496999992523,,012,0,2024-11-15_14h18.24.684,Surprise recog test,2023.1.3,59.85425488400272,
336,0,336,0,,,,,,,,,,,,,,,,,,,,,,,,,,,,,,,,,,2092.4232605000143,2093.4487317000167,2091.194545300008,2091.194545300008,2091.194545300008,2091.194545300008,old_sceneIn_34.png,337,2.0,1.2307334000070114,,012,0,2024-11-15_14h18.24.684,Surprise recog test,2023.1.3,59.85425488400272,
337,0,337,0,,,,,,,,,,,,,,,,,,,,,,,,,,,,,,,,,,2094.6197692000133,2095.64569070001,2093.4487317000167,2093.4487317000167,2093.4487317000167,2093.4487317000167,old_sceneOut_43.png,338,2.0,1.1721210999821778,,012,0,2024-11-15_14h18.24.684,Surprise recog test,2023.1.3,59.85425488400272,
338,0,338,0,,,,,,,,,,,,,,,,,,,,,,,,,,,,,,,,,,2097.2190282999945,,2095.64569070001,2095.64569070001,2095.64569070001,2095.64569070001,old_stationery_35.png,339,1.0,1.5730985999980476,,012,0,2024-11-15_14h18.24.684,Surprise recog test,2023.1.3,59.85425488400272,
339,0,339,0,,,,,,,,,,,,,,,,,,,,,,,,,,,,,,,,,,2099.8411070000147,2100.8727840000065,2098.2538773000124,2098.2538773000124,2098.2538773000124,2098.2538773000124,new_fruit_9.png,340,3.0,1.591037200007122,,012,0,2024-11-15_14h18.24.684,Surprise recog test,2023.1.3,59.85425488400272,
340,0,340,0,,,,,,,,,,,,,,,,,,,,,,,,,,,,,,,,,,2102.5503907999955,2103.5591136000003,2100.8727840000065,2100.8727840000065,2100.8727840000065,2100.8727840000065,old_sceneOut_6.png,341,1.0,1.6793093000014778,,012,0,2024-11-15_14h18.24.684,Surprise recog test,2023.1.3,59.85425488400272,
341,0,341,0,,,,,,,,,,,,,,,,,,,,,,,,,,,,,,,,,,2105.5562423999945,2106.5621399999945,2103.5591136000003,2103.5591136000003,2103.5591136000003,2103.5591136000003,new_fruit_13.png,342,3.0,1.9920940999872983,,012,0,2024-11-15_14h18.24.684,Surprise recog test,2023.1.3,59.85425488400272,
342,0,342,0,,,,,,,,,,,,,,,,,,,,,,,,,,,,,,,,,,2108.015512700018,2109.0348768999975,2106.5621399999945,2106.5621399999945,2106.5621399999945,2106.5621399999945,old_sceneIn_3.png,343,4.0,1.4481125000165775,,012,0,2024-11-15_14h18.24.684,Surprise recog test,2023.1.3,59.85425488400272,
343,0,343,0,,,,,,,,,,,,,,,,,,,,,,,,,,,,,,,,,,2111.0522088000143,2112.0817880000104,2109.0348768999975,2109.0348768999975,2109.0348768999975,2109.0348768999975,new_sceneIn_4.png,344,3.0,2.012585099990247,,012,0,2024-11-15_14h18.24.684,Surprise recog test,2023.1.3,59.85425488400272,
344,0,344,0,,,,,,,,,,,,,,,,,,,,,,,,,,,,,,,,,,2113.376386100019,2114.3874569000036,2112.0817880000104,2112.0817880000104,2112.0817880000104,2112.0817880000104,new_stationery_12.png,345,2.0,1.2959157999721356,,012,0,2024-11-15_14h18.24.684,Surprise recog test,2023.1.3,59.85425488400272,
345,0,345,0,,,,,,,,,,,,,,,,,,,,,,,,,,,,,,,,,,2116.867875099997,2117.881029500015,2114.3874569000036,2114.3874569000036,2114.3874569000036,2114.3874569000036,new_fruit_15.png,346,1.0,2.4780197000072803,,012,0,2024-11-15_14h18.24.684,Surprise recog test,2023.1.3,59.85425488400272,
346,0,346,0,,,,,,,,,,,,,,,,,,,,,,,,,,,,,,,,,,2118.893296299997,2119.922771100013,2117.881029500015,2117.881029500015,2117.881029500015,2117.881029500015,new_sceneOut_28.png,347,1.0,1.0132274999923538,,012,0,2024-11-15_14h18.24.684,Surprise recog test,2023.1.3,59.85425488400272,
347,0,347,0,,,,,,,,,,,,,,,,,,,,,,,,,,,,,,,,,,2120.9153058000084,2121.934255100001,2119.922771100013,2119.922771100013,2119.922771100013,2119.922771100013,old_stationery_3.png,348,1.0,0.9937189999909606,,012,0,2024-11-15_14h18.24.684,Surprise recog test,2023.1.3,59.85425488400272,
348,0,348,0,,,,,,,,,,,,,,,,,,,,,,,,,,,,,,,,,,2123.565955099999,2124.5896018000203,2121.934255100001,2121.934255100001,2121.934255100001,2121.934255100001,new_sceneIn_31.png,349,4.0,1.6260435000003781,,012,0,2024-11-15_14h18.24.684,Surprise recog test,2023.1.3,59.85425488400272,
349,0,349,0,,,,,,,,,,,,,,,,,,,,,,,,,,,,,,,,,,2126.5426927999943,2127.559236900008,2124.5896018000203,2124.5896018000203,2124.5896018000203,2124.5896018000203,old_stationery_11.png,350,1.0,1.9546689999988303,,012,0,2024-11-15_14h18.24.684,Surprise recog test,2023.1.3,59.85425488400272,
350,0,350,0,,,,,,,,,,,,,,,,,,,,,,,,,,,,,,,,,,2129.743789500004,2130.7549461000017,2127.559236900008,2127.559236900008,2127.559236900008,2127.559236900008,new_stationery_19.png,351,3.0,2.182199299975764,,012,0,2024-11-15_14h18.24.684,Surprise recog test,2023.1.3,59.85425488400272,
351,0,351,0,,,,,,,,,,,,,,,,,,,,,,,,,,,,,,,,,,2132.5230049999955,2133.54297770001,2130.7549461000017,2130.7549461000017,2130.7549461000017,2130.7549461000017,new_fruit_20.png,352,3.0,1.766639799985569,,012,0,2024-11-15_14h18.24.684,Surprise recog test,2023.1.3,59.85425488400272,
