trial_loop.thisRepN,trial_loop.thisTrialN,trial_loop.thisN,trial_loop.thisIndex,VAS_slider.started,VAS_text.started,VAS_notstressed_text.started,VAS_stressed_text.started,continue_input.started,continue_text.started,label0.started,label10.started,label20.started,label30.started,label40.started,label50.started,label60.started,label70.started,label80.started,label90.started,label100.started,VAS_slider.response,VAS_slider.rt,VAS_slider.history,Answer_VAS,continue_input.keys,continue_input.rt,continue_input.duration,instruction_text.started,continue_text_2.started,continue_input_2.started,continue_input_2.keys,continue_input_2.rt,continue_input_2.duration,example_text.started,example_slider_2.started,example_image.started,example_slider_2.response,example_slider_2.rt,fixcross.started,fixcross.stopped,front_square.started,stim_images.started,trial_inst_images.started,slider_images.started,thisImg,trial_count,slider_images.response,slider_images.rt,outro.started,participant,condition,date,expName,psychopyVersion,frameRate,
,,,,33.31564759998582,33.31564759998582,33.31564759998582,33.31564759998582,33.31564759998582,33.31564759998582,33.31564759998582,33.31564759998582,33.31564759998582,33.31564759998582,33.31564759998582,33.31564759998582,33.31564759998582,33.31564759998582,33.31564759998582,33.31564759998582,33.31564759998582,None,None,[],1.139999999999998,space,28.137063400121406,None,,,,,,,,,,,,,,,,,,,,,,,013,1,2024-10-17_16h45.45.979,Surprise recog test,2023.1.3,59.95164295762369,
,,,,,,,,,,,,,,,,,,,,,,,,,,,,61.52700740005821,61.52700740005821,61.52700740005821,space,8.045704700052738,None,,,,,,,,,,,,,,,,,013,1,2024-10-17_16h45.45.979,Surprise recog test,2023.1.3,59.95164295762369,
0,0,0,0,,,,,,,,,,,,,,,,,,,,,,,,,,,,,,,69.69708500010893,69.69708500010893,69.69708500010893,5.0,3.8984083998948336,78.63908190000802,79.66779590002261,74.564409899991,74.564409899991,74.564409899991,74.564409899991,new_sceneIn_38.png,1,3.0,4.080040600150824,,013,1,2024-10-17_16h45.45.979,Surprise recog test,2023.1.3,59.95164295762369,
1,0,1,0,,,,,,,,,,,,,,,,,,,,,,,,,,,,,,,,,,,,81.84170520002954,82.87079770001583,79.66779590002261,79.66779590002261,79.66779590002261,79.66779590002261,new_fruit_26.png,2,1.0,2.1744538999628276,,013,1,2024-10-17_16h45.45.979,Surprise recog test,2023.1.3,59.95164295762369,
2,0,2,0,,,,,,,,,,,,,,,,,,,,,,,,,,,,,,,,,,,,85.58692619996145,86.60678269993514,82.87079770001583,82.87079770001583,82.87079770001583,82.87079770001583,new_sceneOut_10.png,3,2.0,2.7178317999932915,,013,1,2024-10-17_16h45.45.979,Surprise recog test,2023.1.3,59.95164295762369,
3,0,3,0,,,,,,,,,,,,,,,,,,,,,,,,,,,,,,,,,,,,89.05879739997908,,86.60678269993514,86.60678269993514,86.60678269993514,86.60678269993514,old_sceneOut_30.png,4,3.0,2.4540212000720203,,013,1,2024-10-17_16h45.45.979,Surprise recog test,2023.1.3,59.95164295762369,
4,0,4,0,,,,,,,,,,,,,,,,,,,,,,,,,,,,,,,,,,,,92.39562020008452,,90.09204169991426,90.09204169991426,90.09204169991426,90.09204169991426,new_sceneOut_32.png,5,4.0,2.305394700029865,,013,1,2024-10-17_16h45.45.979,Surprise recog test,2023.1.3,59.95164295762369,
5,0,5,0,,,,,,,,,,,,,,,,,,,,,,,,,,,,,,,,,,,,95.59459939994849,96.6160808999557,93.43062569992617,93.43062569992617,93.43062569992617,93.43062569992617,old_sceneIn_39.png,6,4.0,2.165767600061372,,013,1,2024-10-17_16h45.45.979,Surprise recog test,2023.1.3,59.95164295762369,
6,0,6,0,,,,,,,,,,,,,,,,,,,,,,,,,,,,,,,,,,,,98.47903800010681,99.497197000077,96.6160808999557,96.6160808999557,96.6160808999557,96.6160808999557,old_fruit_42.png,7,1.0,1.8645247998647392,,013,1,2024-10-17_16h45.45.979,Surprise recog test,2023.1.3,59.95164295762369,
7,0,7,0,,,,,,,,,,,,,,,,,,,,,,,,,,,,,,,,,,,,101.45032890001312,102.46199949993752,99.497197000077,99.497197000077,99.497197000077,99.497197000077,old_sceneIn_15.png,8,5.0,1.9547234999481589,,013,1,2024-10-17_16h45.45.979,Surprise recog test,2023.1.3,59.95164295762369,
8,0,8,0,,,,,,,,,,,,,,,,,,,,,,,,,,,,,,,,,,,,104.5023848998826,105.52401169994846,102.46199949993752,102.46199949993752,102.46199949993752,102.46199949993752,old_sceneIn_6.png,9,1.0,2.0403042000252753,,013,1,2024-10-17_16h45.45.979,Surprise recog test,2023.1.3,59.95164295762369,
9,0,9,0,,,,,,,,,,,,,,,,,,,,,,,,,,,,,,,,,,,,108.15455419989303,109.17514599999413,105.52401169994846,105.52401169994846,105.52401169994846,105.52401169994846,old_fruit_40.png,10,2.0,2.632782300002873,,013,1,2024-10-17_16h45.45.979,Surprise recog test,2023.1.3,59.95164295762369,
10,0,10,0,,,,,,,,,,,,,,,,,,,,,,,,,,,,,,,,,,,,110.86479220003821,111.89753869990818,109.17514599999413,109.17514599999413,109.17514599999413,109.17514599999413,new_fruit_48.png,11,2.0,1.6910937000066042,,013,1,2024-10-17_16h45.45.979,Surprise recog test,2023.1.3,59.95164295762369,
11,0,11,0,,,,,,,,,,,,,,,,,,,,,,,,,,,,,,,,,,,,113.6522959000431,114.6831314000301,111.89753869990818,111.89753869990818,111.89753869990818,111.89753869990818,old_fruit_28.png,12,2.0,1.7577686998993158,,013,1,2024-10-17_16h45.45.979,Surprise recog test,2023.1.3,59.95164295762369,
12,0,12,0,,,,,,,,,,,,,,,,,,,,,,,,,,,,,,,,,,,,116.88064159988426,117.89989740005694,114.6831314000301,114.6831314000301,114.6831314000301,114.6831314000301,old_stationery_23.png,13,4.0,2.193106299964711,,013,1,2024-10-17_16h45.45.979,Surprise recog test,2023.1.3,59.95164295762369,
13,0,13,0,,,,,,,,,,,,,,,,,,,,,,,,,,,,,,,,,,,,119.92680680006742,120.94029209995642,117.89989740005694,117.89989740005694,117.89989740005694,117.89989740005694,old_sceneOut_11.png,14,1.0,2.029338800115511,,013,1,2024-10-17_16h45.45.979,Surprise recog test,2023.1.3,59.95164295762369,
14,0,14,0,,,,,,,,,,,,,,,,,,,,,,,,,,,,,,,,,,,,123.65139469993301,124.66168179991655,120.94029209995642,120.94029209995642,120.94029209995642,120.94029209995642,new_fruit_31.png,15,4.0,2.7069472998846322,,013,1,2024-10-17_16h45.45.979,Surprise recog test,2023.1.3,59.95164295762369,
15,0,15,0,,,,,,,,,,,,,,,,,,,,,,,,,,,,,,,,,,,,126.24622470000759,127.27430439996533,124.66168179991655,124.66168179991655,124.66168179991655,124.66168179991655,old_sceneIn_44.png,16,4.0,1.5819612999912351,,013,1,2024-10-17_16h45.45.979,Surprise recog test,2023.1.3,59.95164295762369,
16,0,16,0,,,,,,,,,,,,,,,,,,,,,,,,,,,,,,,,,,,,129.1080996999517,,127.27430439996533,127.27430439996533,127.27430439996533,127.27430439996533,old_stationery_7.png,17,1.0,1.8359387000091374,,013,1,2024-10-17_16h45.45.979,Surprise recog test,2023.1.3,59.95164295762369,
17,0,17,0,,,,,,,,,,,,,,,,,,,,,,,,,,,,,,,,,,,,132.17993310000747,133.2076292000711,130.14265169994906,130.14265169994906,130.14265169994906,130.14265169994906,new_sceneOut_26.png,18,5.0,2.0407856998499483,,013,1,2024-10-17_16h45.45.979,Surprise recog test,2023.1.3,59.95164295762369,
18,0,18,0,,,,,,,,,,,,,,,,,,,,,,,,,,,,,,,,,,,,135.23606789996848,136.26364180003293,133.2076292000711,133.2076292000711,133.2076292000711,133.2076292000711,new_sceneOut_47.png,19,4.0,2.0224366998299956,,013,1,2024-10-17_16h45.45.979,Surprise recog test,2023.1.3,59.95164295762369,
19,0,19,0,,,,,,,,,,,,,,,,,,,,,,,,,,,,,,,,,,,,138.04874329990707,,136.26364180003293,136.26364180003293,136.26364180003293,136.26364180003293,old_sceneOut_18.png,20,5.0,1.7861909000203013,,013,1,2024-10-17_16h45.45.979,Surprise recog test,2023.1.3,59.95164295762369,
20,0,20,0,,,,,,,,,,,,,,,,,,,,,,,,,,,,,,,,,,,,140.89054280007258,141.9076620999258,139.08580089989118,139.08580089989118,139.08580089989118,139.08580089989118,new_fruit_17.png,21,1.0,1.8063947998452932,,013,1,2024-10-17_16h45.45.979,Surprise recog test,2023.1.3,59.95164295762369,
21,0,21,0,,,,,,,,,,,,,,,,,,,,,,,,,,,,,,,,,,,,143.26824339991435,144.29097529989667,141.9076620999258,141.9076620999258,141.9076620999258,141.9076620999258,old_stationery_47.png,22,1.0,1.3567818000447005,,013,1,2024-10-17_16h45.45.979,Surprise recog test,2023.1.3,59.95164295762369,
22,0,22,0,,,,,,,,,,,,,,,,,,,,,,,,,,,,,,,,,,,,145.82693700003438,146.84433069988154,144.29097529989667,144.29097529989667,144.29097529989667,144.29097529989667,new_sceneIn_3.png,23,5.0,1.5390995999332517,,013,1,2024-10-17_16h45.45.979,Surprise recog test,2023.1.3,59.95164295762369,
23,0,23,0,,,,,,,,,,,,,,,,,,,,,,,,,,,,,,,,,,,,148.47897009993903,149.49363989988342,146.84433069988154,146.84433069988154,146.84433069988154,146.84433069988154,new_sceneIn_31.png,24,5.0,1.6308035000693053,,013,1,2024-10-17_16h45.45.979,Surprise recog test,2023.1.3,59.95164295762369,
24,0,24,0,,,,,,,,,,,,,,,,,,,,,,,,,,,,,,,,,,,,151.1662286000792,152.19674509996548,149.49363989988342,149.49363989988342,149.49363989988342,149.49363989988342,old_stationery_48.png,25,1.0,1.668292700080201,,013,1,2024-10-17_16h45.45.979,Surprise recog test,2023.1.3,59.95164295762369,
25,0,25,0,,,,,,,,,,,,,,,,,,,,,,,,,,,,,,,,,,,,154.2218373999931,155.24228650005534,152.19674509996548,152.19674509996548,152.19674509996548,152.19674509996548,old_fruit_37.png,26,1.0,2.028047899948433,,013,1,2024-10-17_16h45.45.979,Surprise recog test,2023.1.3,59.95164295762369,
26,0,26,0,,,,,,,,,,,,,,,,,,,,,,,,,,,,,,,,,,,,157.16604569996707,,155.24228650005534,155.24228650005534,155.24228650005534,155.24228650005534,old_sceneOut_29.png,27,4.0,1.9241967000998557,,013,1,2024-10-17_16h45.45.979,Surprise recog test,2023.1.3,59.95164295762369,
27,0,27,0,,,,,,,,,,,,,,,,,,,,,,,,,,,,,,,,,,,,159.5080393999815,160.52038199990056,158.18653790000826,158.18653790000826,158.18653790000826,158.18653790000826,new_sceneOut_22.png,28,4.0,1.3167609998490661,,013,1,2024-10-17_16h45.45.979,Surprise recog test,2023.1.3,59.95164295762369,
28,0,28,0,,,,,,,,,,,,,,,,,,,,,,,,,,,,,,,,,,,,162.51209339988418,163.53755169990472,160.52038199990056,160.52038199990056,160.52038199990056,160.52038199990056,new_sceneOut_18.png,29,5.0,1.9883217997848988,,013,1,2024-10-17_16h45.45.979,Surprise recog test,2023.1.3,59.95164295762369,
29,0,29,0,,,,,,,,,,,,,,,,,,,,,,,,,,,,,,,,,,,,165.09019570006058,,163.53755169990472,163.53755169990472,163.53755169990472,163.53755169990472,old_stationery_43.png,30,1.0,1.5555147000122815,,013,1,2024-10-17_16h45.45.979,Surprise recog test,2023.1.3,59.95164295762369,
30,0,30,0,,,,,,,,,,,,,,,,,,,,,,,,,,,,,,,,,,,,167.1597476999741,168.17968999990262,166.1074339998886,166.1074339998886,166.1074339998886,166.1074339998886,new_fruit_9.png,31,1.0,1.047183700138703,,013,1,2024-10-17_16h45.45.979,Surprise recog test,2023.1.3,59.95164295762369,
31,0,31,0,,,,,,,,,,,,,,,,,,,,,,,,,,,,,,,,,,,,170.0521937001031,171.0654547000304,168.17968999990262,168.17968999990262,168.17968999990262,168.17968999990262,old_sceneOut_42.png,32,5.0,1.8686567000113428,,013,1,2024-10-17_16h45.45.979,Surprise recog test,2023.1.3,59.95164295762369,
32,0,32,0,,,,,,,,,,,,,,,,,,,,,,,,,,,,,,,,,,,,172.19936580001377,173.2275103998836,171.0654547000304,171.0654547000304,171.0654547000304,171.0654547000304,new_sceneOut_15.png,33,5.0,1.1294332998804748,,013,1,2024-10-17_16h45.45.979,Surprise recog test,2023.1.3,59.95164295762369,
33,0,33,0,,,,,,,,,,,,,,,,,,,,,,,,,,,,,,,,,,,,175.7729829000309,176.798698999919,173.2275103998836,173.2275103998836,173.2275103998836,173.2275103998836,old_sceneIn_31.png,34,3.0,2.541205999907106,,013,1,2024-10-17_16h45.45.979,Surprise recog test,2023.1.3,59.95164295762369,
34,0,34,0,,,,,,,,,,,,,,,,,,,,,,,,,,,,,,,,,,,,179.007402200019,180.03708879998885,176.798698999919,176.798698999919,176.798698999919,176.798698999919,old_fruit_35.png,35,4.0,2.2104674000293016,,013,1,2024-10-17_16h45.45.979,Surprise recog test,2023.1.3,59.95164295762369,
35,0,35,0,,,,,,,,,,,,,,,,,,,,,,,,,,,,,,,,,,,,181.89545330009423,182.91849309997633,180.03708879998885,180.03708879998885,180.03708879998885,180.03708879998885,new_stationery_18.png,36,1.0,1.8578929000068456,,013,1,2024-10-17_16h45.45.979,Surprise recog test,2023.1.3,59.95164295762369,
36,0,36,0,,,,,,,,,,,,,,,,,,,,,,,,,,,,,,,,,,,,185.61808310006745,186.63874859991483,182.91849309997633,182.91849309997633,182.91849309997633,182.91849309997633,new_sceneOut_4.png,37,5.0,2.7000456999521703,,013,1,2024-10-17_16h45.45.979,Surprise recog test,2023.1.3,59.95164295762369,
37,0,37,0,,,,,,,,,,,,,,,,,,,,,,,,,,,,,,,,,,,,189.76536759990267,190.7814531000331,186.63874859991483,186.63874859991483,186.63874859991483,186.63874859991483,new_fruit_11.png,38,4.0,3.1284008999355137,,013,1,2024-10-17_16h45.45.979,Surprise recog test,2023.1.3,59.95164295762369,
38,0,38,0,,,,,,,,,,,,,,,,,,,,,,,,,,,,,,,,,,,,192.56968050007708,193.59326640004292,190.7814531000331,190.7814531000331,190.7814531000331,190.7814531000331,new_sceneOut_19.png,39,4.0,1.782573499949649,,013,1,2024-10-17_16h45.45.979,Surprise recog test,2023.1.3,59.95164295762369,
39,0,39,0,,,,,,,,,,,,,,,,,,,,,,,,,,,,,,,,,,,,195.46497939992696,,193.59326640004292,193.59326640004292,193.59326640004292,193.59326640004292,new_sceneIn_50.png,40,4.0,1.870314900064841,,013,1,2024-10-17_16h45.45.979,Surprise recog test,2023.1.3,59.95164295762369,
40,0,40,0,,,,,,,,,,,,,,,,,,,,,,,,,,,,,,,,,,,,197.9309517000802,198.95566580002196,196.4987007000018,196.4987007000018,196.4987007000018,196.4987007000018,new_sceneIn_7.png,41,4.0,1.4342104999814183,,013,1,2024-10-17_16h45.45.979,Surprise recog test,2023.1.3,59.95164295762369,
41,0,41,0,,,,,,,,,,,,,,,,,,,,,,,,,,,,,,,,,,,,200.46500109997578,201.46977160009556,198.95566580002196,198.95566580002196,198.95566580002196,198.95566580002196,old_fruit_31.png,42,4.0,1.5135963999200612,,013,1,2024-10-17_16h45.45.979,Surprise recog test,2023.1.3,59.95164295762369,
42,0,42,0,,,,,,,,,,,,,,,,,,,,,,,,,,,,,,,,,,,,203.5343748999294,204.55523919989355,201.46977160009556,201.46977160009556,201.46977160009556,201.46977160009556,old_sceneOut_48.png,43,5.0,2.056960500078276,,013,1,2024-10-17_16h45.45.979,Surprise recog test,2023.1.3,59.95164295762369,
43,0,43,0,,,,,,,,,,,,,,,,,,,,,,,,,,,,,,,,,,,,206.20404829992913,207.22238730010577,204.55523919989355,204.55523919989355,204.55523919989355,204.55523919989355,new_fruit_7.png,44,5.0,1.6389793001580983,,013,1,2024-10-17_16h45.45.979,Surprise recog test,2023.1.3,59.95164295762369,
44,0,44,0,,,,,,,,,,,,,,,,,,,,,,,,,,,,,,,,,,,,208.78964630002156,209.7930091000162,207.22238730010577,207.22238730010577,207.22238730010577,207.22238730010577,old_sceneOut_35.png,45,5.0,1.5681295001413673,,013,1,2024-10-17_16h45.45.979,Surprise recog test,2023.1.3,59.95164295762369,
45,0,45,0,,,,,,,,,,,,,,,,,,,,,,,,,,,,,,,,,,,,212.3967202999629,213.42630490008742,209.7930091000162,209.7930091000162,209.7930091000162,209.7930091000162,new_fruit_39.png,46,4.0,2.5962850998621434,,013,1,2024-10-17_16h45.45.979,Surprise recog test,2023.1.3,59.95164295762369,
46,0,46,0,,,,,,,,,,,,,,,,,,,,,,,,,,,,,,,,,,,,216.43681089999154,217.46746809990145,213.42630490008742,213.42630490008742,213.42630490008742,213.42630490008742,old_fruit_38.png,47,4.0,3.0127954999916255,,013,1,2024-10-17_16h45.45.979,Surprise recog test,2023.1.3,59.95164295762369,
47,0,47,0,,,,,,,,,,,,,,,,,,,,,,,,,,,,,,,,,,,,219.43081829999574,220.45383409992792,217.46746809990145,217.46746809990145,217.46746809990145,217.46746809990145,new_sceneIn_25.png,48,5.0,1.9587192998733371,,013,1,2024-10-17_16h45.45.979,Surprise recog test,2023.1.3,59.95164295762369,
48,0,48,0,,,,,,,,,,,,,,,,,,,,,,,,,,,,,,,,,,,,222.54436159995385,223.55940679996274,220.45383409992792,220.45383409992792,220.45383409992792,220.45383409992792,old_stationery_36.png,49,2.0,2.0926254999358207,,013,1,2024-10-17_16h45.45.979,Surprise recog test,2023.1.3,59.95164295762369,
49,0,49,0,,,,,,,,,,,,,,,,,,,,,,,,,,,,,,,,,,,,225.6441979999654,226.66157260001637,223.55940679996274,223.55940679996274,223.55940679996274,223.55940679996274,old_sceneOut_39.png,50,3.0,2.0821183000225574,,013,1,2024-10-17_16h45.45.979,Surprise recog test,2023.1.3,59.95164295762369,
50,0,50,0,,,,,,,,,,,,,,,,,,,,,,,,,,,,,,,,,,,,228.4239902999252,,226.66157260001637,226.66157260001637,226.66157260001637,226.66157260001637,new_sceneIn_18.png,51,5.0,1.758162499871105,,013,1,2024-10-17_16h45.45.979,Surprise recog test,2023.1.3,59.95164295762369,
51,0,51,0,,,,,,,,,,,,,,,,,,,,,,,,,,,,,,,,,,,,230.84952960000373,231.87825460010208,229.44653329998255,229.44653329998255,229.44653329998255,229.44653329998255,new_stationery_46.png,52,5.0,1.396624700166285,,013,1,2024-10-17_16h45.45.979,Surprise recog test,2023.1.3,59.95164295762369,
52,0,52,0,,,,,,,,,,,,,,,,,,,,,,,,,,,,,,,,,,,,234.76678860001266,235.78173960000277,231.87825460010208,231.87825460010208,231.87825460010208,231.87825460010208,new_fruit_16.png,53,4.0,2.888998500071466,,013,1,2024-10-17_16h45.45.979,Surprise recog test,2023.1.3,59.95164295762369,
53,0,53,0,,,,,,,,,,,,,,,,,,,,,,,,,,,,,,,,,,,,237.2690697000362,238.29918240010738,235.78173960000277,235.78173960000277,235.78173960000277,235.78173960000277,new_sceneIn_9.png,54,5.0,1.4833731998223811,,013,1,2024-10-17_16h45.45.979,Surprise recog test,2023.1.3,59.95164295762369,
54,0,54,0,,,,,,,,,,,,,,,,,,,,,,,,,,,,,,,,,,,,239.43613740010187,240.46220539999194,238.29918240010738,238.29918240010738,238.29918240010738,238.29918240010738,old_sceneOut_32.png,55,5.0,1.138816700084135,,013,1,2024-10-17_16h45.45.979,Surprise recog test,2023.1.3,59.95164295762369,
55,0,55,0,,,,,,,,,,,,,,,,,,,,,,,,,,,,,,,,,,,,241.80646539991722,242.82636649999768,240.46220539999194,240.46220539999194,240.46220539999194,240.46220539999194,new_stationery_22.png,56,5.0,1.3403232998680323,,013,1,2024-10-17_16h45.45.979,Surprise recog test,2023.1.3,59.95164295762369,
56,0,56,0,,,,,,,,,,,,,,,,,,,,,,,,,,,,,,,,,,,,245.01880709989928,246.0402476999443,242.82636649999768,242.82636649999768,242.82636649999768,242.82636649999768,old_sceneIn_50.png,57,4.0,2.183324799872935,,013,1,2024-10-17_16h45.45.979,Surprise recog test,2023.1.3,59.95164295762369,
57,0,57,0,,,,,,,,,,,,,,,,,,,,,,,,,,,,,,,,,,,,247.67919480009004,248.7024751000572,246.0402476999443,246.0402476999443,246.0402476999443,246.0402476999443,old_sceneIn_38.png,58,5.0,1.6385877998545766,,013,1,2024-10-17_16h45.45.979,Surprise recog test,2023.1.3,59.95164295762369,
58,0,58,0,,,,,,,,,,,,,,,,,,,,,,,,,,,,,,,,,,,,250.5581559999846,251.5837614000775,248.7024751000572,248.7024751000572,248.7024751000572,248.7024751000572,new_sceneOut_9.png,59,2.0,1.85168999992311,,013,1,2024-10-17_16h45.45.979,Surprise recog test,2023.1.3,59.95164295762369,
59,0,59,0,,,,,,,,,,,,,,,,,,,,,,,,,,,,,,,,,,,,253.1128567000851,,251.5837614000775,251.5837614000775,251.5837614000775,251.5837614000775,new_stationery_28.png,60,2.0,1.5333465000148863,,013,1,2024-10-17_16h45.45.979,Surprise recog test,2023.1.3,59.95164295762369,
60,0,60,0,,,,,,,,,,,,,,,,,,,,,,,,,,,,,,,,,,,,255.7874495999422,256.8024031999521,254.13810610002838,254.13810610002838,254.13810610002838,254.13810610002838,old_stationery_32.png,61,1.0,1.647791099967435,,013,1,2024-10-17_16h45.45.979,Surprise recog test,2023.1.3,59.95164295762369,
61,0,61,0,,,,,,,,,,,,,,,,,,,,,,,,,,,,,,,,,,,,258.75245209992863,259.77315769996494,256.8024031999521,256.8024031999521,256.8024031999521,256.8024031999521,new_sceneOut_27.png,62,4.0,1.9436894999817014,,013,1,2024-10-17_16h45.45.979,Surprise recog test,2023.1.3,59.95164295762369,
62,0,62,0,,,,,,,,,,,,,,,,,,,,,,,,,,,,,,,,,,,,261.86013710009865,262.8752965000458,259.77315769996494,259.77315769996494,259.77315769996494,259.77315769996494,old_sceneIn_9.png,63,2.0,2.0831279999110848,,013,1,2024-10-17_16h45.45.979,Surprise recog test,2023.1.3,59.95164295762369,
63,0,63,0,,,,,,,,,,,,,,,,,,,,,,,,,,,,,,,,,,,,264.67798130004667,265.70679589989595,262.8752965000458,262.8752965000458,262.8752965000458,262.8752965000458,new_sceneOut_38.png,64,5.0,1.7993280000519007,,013,1,2024-10-17_16h45.45.979,Surprise recog test,2023.1.3,59.95164295762369,
64,0,64,0,,,,,,,,,,,,,,,,,,,,,,,,,,,,,,,,,,,,267.8725580999162,268.8785776998848,265.70679589989595,265.70679589989595,265.70679589989595,265.70679589989595,new_fruit_29.png,65,3.0,2.168221900006756,,013,1,2024-10-17_16h45.45.979,Surprise recog test,2023.1.3,59.95164295762369,
65,0,65,0,,,,,,,,,,,,,,,,,,,,,,,,,,,,,,,,,,,,270.83207540004514,271.85006289999,268.8785776998848,268.8785776998848,268.8785776998848,268.8785776998848,old_fruit_24.png,66,1.0,1.9511198999825865,,013,1,2024-10-17_16h45.45.979,Surprise recog test,2023.1.3,59.95164295762369,
66,0,66,0,,,,,,,,,,,,,,,,,,,,,,,,,,,,,,,,,,,,273.1222242999356,274.1344359999057,271.85006289999,271.85006289999,271.85006289999,271.85006289999,new_sceneIn_13.png,67,5.0,1.2659881999716163,,013,1,2024-10-17_16h45.45.979,Surprise recog test,2023.1.3,59.95164295762369,
67,0,67,0,,,,,,,,,,,,,,,,,,,,,,,,,,,,,,,,,,,,276.04807009990327,,274.1344359999057,274.1344359999057,274.1344359999057,274.1344359999057,old_stationery_10.png,68,1.0,1.90865459991619,,013,1,2024-10-17_16h45.45.979,Surprise recog test,2023.1.3,59.95164295762369,
68,0,68,0,,,,,,,,,,,,,,,,,,,,,,,,,,,,,,,,,,,,278.91387629997917,279.9332338999957,277.06953949993476,277.06953949993476,277.06953949993476,277.06953949993476,old_sceneIn_46.png,69,5.0,1.837957700015977,,013,1,2024-10-17_16h45.45.979,Surprise recog test,2023.1.3,59.95164295762369,
69,0,69,0,,,,,,,,,,,,,,,,,,,,,,,,,,,,,,,,,,,,281.89853799995035,282.91016980004497,279.9332338999957,279.9332338999957,279.9332338999957,279.9332338999957,new_fruit_22.png,70,4.0,1.964115999871865,,013,1,2024-10-17_16h45.45.979,Surprise recog test,2023.1.3,59.95164295762369,
70,0,70,0,,,,,,,,,,,,,,,,,,,,,,,,,,,,,,,,,,,,285.3459383000154,286.3613825000357,282.91016980004497,282.91016980004497,282.91016980004497,282.91016980004497,old_sceneOut_6.png,71,2.0,2.4336777001153678,,013,1,2024-10-17_16h45.45.979,Surprise recog test,2023.1.3,59.95164295762369,
71,0,71,0,,,,,,,,,,,,,,,,,,,,,,,,,,,,,,,,,,,,288.5984853000846,289.6129856999032,286.3613825000357,286.3613825000357,286.3613825000357,286.3613825000357,new_fruit_34.png,72,5.0,2.2301272999029607,,013,1,2024-10-17_16h45.45.979,Surprise recog test,2023.1.3,59.95164295762369,
72,0,72,0,,,,,,,,,,,,,,,,,,,,,,,,,,,,,,,,,,,,291.28017739998177,292.31982990005054,289.6129856999032,289.6129856999032,289.6129856999032,289.6129856999032,new_fruit_24.png,73,5.0,1.6631024000234902,,013,1,2024-10-17_16h45.45.979,Surprise recog test,2023.1.3,59.95164295762369,
73,0,73,0,,,,,,,,,,,,,,,,,,,,,,,,,,,,,,,,,,,,293.4889372999314,294.51593100000173,292.31982990005054,292.31982990005054,292.31982990005054,292.31982990005054,old_sceneOut_19.png,74,5.0,1.1739046999718994,,013,1,2024-10-17_16h45.45.979,Surprise recog test,2023.1.3,59.95164295762369,
74,0,74,0,,,,,,,,,,,,,,,,,,,,,,,,,,,,,,,,,,,,296.86270860000513,297.87048800010234,294.51593100000173,294.51593100000173,294.51593100000173,294.51593100000173,new_sceneOut_33.png,75,4.0,2.348973900079727,,013,1,2024-10-17_16h45.45.979,Surprise recog test,2023.1.3,59.95164295762369,
75,0,75,0,,,,,,,,,,,,,,,,,,,,,,,,,,,,,,,,,,,,299.0192503000144,300.0390542000532,297.87048800010234,297.87048800010234,297.87048800010234,297.87048800010234,old_sceneOut_40.png,76,4.0,1.1446322000119835,,013,1,2024-10-17_16h45.45.979,Surprise recog test,2023.1.3,59.95164295762369,
76,0,76,0,,,,,,,,,,,,,,,,,,,,,,,,,,,,,,,,,,,,302.7228101999499,303.7544803000055,300.0390542000532,300.0390542000532,300.0390542000532,300.0390542000532,old_fruit_27.png,77,4.0,2.6799154998734593,,013,1,2024-10-17_16h45.45.979,Surprise recog test,2023.1.3,59.95164295762369,
77,0,77,0,,,,,,,,,,,,,,,,,,,,,,,,,,,,,,,,,,,,305.7026253999211,306.723848399939,303.7544803000055,303.7544803000055,303.7544803000055,303.7544803000055,new_stationery_20.png,78,5.0,1.9478934002108872,,013,1,2024-10-17_16h45.45.979,Surprise recog test,2023.1.3,59.95164295762369,
78,0,78,0,,,,,,,,,,,,,,,,,,,,,,,,,,,,,,,,,,,,308.2673971001059,309.29245890001766,306.723848399939,306.723848399939,306.723848399939,306.723848399939,new_stationery_31.png,79,5.0,1.5434268000535667,,013,1,2024-10-17_16h45.45.979,Surprise recog test,2023.1.3,59.95164295762369,
79,0,79,0,,,,,,,,,,,,,,,,,,,,,,,,,,,,,,,,,,,,310.56383099989034,311.59434979991056,309.29245890001766,309.29245890001766,309.29245890001766,309.29245890001766,old_stationery_40.png,80,1.0,1.2738020000979304,,013,1,2024-10-17_16h45.45.979,Surprise recog test,2023.1.3,59.95164295762369,
80,0,80,0,,,,,,,,,,,,,,,,,,,,,,,,,,,,,,,,,,,,313.58172610006295,314.60861840005964,311.59434979991056,311.59434979991056,311.59434979991056,311.59434979991056,new_fruit_15.png,81,2.0,1.989185499958694,,013,1,2024-10-17_16h45.45.979,Surprise recog test,2023.1.3,59.95164295762369,
81,0,81,0,,,,,,,,,,,,,,,,,,,,,,,,,,,,,,,,,,,,316.3669243999757,317.3911278001033,314.60861840005964,314.60861840005964,314.60861840005964,314.60861840005964,old_stationery_4.png,82,1.0,1.7550874999724329,,013,1,2024-10-17_16h45.45.979,Surprise recog test,2023.1.3,59.95164295762369,
82,0,82,0,,,,,,,,,,,,,,,,,,,,,,,,,,,,,,,,,,,,319.5772901000455,320.6001764999237,317.3911278001033,317.3911278001033,317.3911278001033,317.3911278001033,new_sceneIn_47.png,83,1.0,2.186633100034669,,013,1,2024-10-17_16h45.45.979,Surprise recog test,2023.1.3,59.95164295762369,
83,0,83,0,,,,,,,,,,,,,,,,,,,,,,,,,,,,,,,,,,,,322.1328898000065,323.1415768000297,320.6001764999237,320.6001764999237,320.6001764999237,320.6001764999237,new_sceneOut_42.png,84,3.0,1.5301200000103563,,013,1,2024-10-17_16h45.45.979,Surprise recog test,2023.1.3,59.95164295762369,
84,0,84,0,,,,,,,,,,,,,,,,,,,,,,,,,,,,,,,,,,,,324.4605072999839,325.4762911000289,323.1415768000297,323.1415768000297,323.1415768000297,323.1415768000297,new_sceneIn_6.png,85,5.0,1.314861899940297,,013,1,2024-10-17_16h45.45.979,Surprise recog test,2023.1.3,59.95164295762369,
85,0,85,0,,,,,,,,,,,,,,,,,,,,,,,,,,,,,,,,,,,,328.1388588999398,329.14591969992034,325.4762911000289,325.4762911000289,325.4762911000289,325.4762911000289,old_sceneOut_45.png,86,5.0,2.655546500114724,,013,1,2024-10-17_16h45.45.979,Surprise recog test,2023.1.3,59.95164295762369,
86,0,86,0,,,,,,,,,,,,,,,,,,,,,,,,,,,,,,,,,,,,331.2403931999579,332.26023410004564,329.14591969992034,329.14591969992034,329.14591969992034,329.14591969992034,new_fruit_35.png,87,4.0,2.087206600001082,,013,1,2024-10-17_16h45.45.979,Surprise recog test,2023.1.3,59.95164295762369,
87,0,87,0,,,,,,,,,,,,,,,,,,,,,,,,,,,,,,,,,,,,333.6060200999491,334.62919089989737,332.26023410004564,332.26023410004564,332.26023410004564,332.26023410004564,old_sceneOut_46.png,88,4.0,1.346036700066179,,013,1,2024-10-17_16h45.45.979,Surprise recog test,2023.1.3,59.95164295762369,
88,0,88,0,,,,,,,,,,,,,,,,,,,,,,,,,,,,,,,,,,,,337.0452032000758,338.06789870001376,334.62919089989737,334.62919089989737,334.62919089989737,334.62919089989737,new_stationery_3.png,89,5.0,2.4173119000624865,,013,1,2024-10-17_16h45.45.979,Surprise recog test,2023.1.3,59.95164295762369,
89,0,89,0,,,,,,,,,,,,,,,,,,,,,,,,,,,,,,,,,,,,339.08239019988105,,338.06789870001376,338.06789870001376,338.06789870001376,338.06789870001376,old_sceneIn_47.png,90,5.0,1.0148601999972016,,013,1,2024-10-17_16h45.45.979,Surprise recog test,2023.1.3,59.95164295762369,
90,0,90,0,,,,,,,,,,,,,,,,,,,,,,,,,,,,,,,,,,,,342.24958520010114,343.2700038999319,340.1157770000864,340.1157770000864,340.1157770000864,340.1157770000864,new_fruit_20.png,91,4.0,2.129840600071475,,013,1,2024-10-17_16h45.45.979,Surprise recog test,2023.1.3,59.95164295762369,
91,0,91,0,,,,,,,,,,,,,,,,,,,,,,,,,,,,,,,,,,,,345.25095480005257,346.2581164999865,343.2700038999319,343.2700038999319,343.2700038999319,343.2700038999319,old_stationery_26.png,92,2.0,1.9826646998990327,,013,1,2024-10-17_16h45.45.979,Surprise recog test,2023.1.3,59.95164295762369,
92,0,92,0,,,,,,,,,,,,,,,,,,,,,,,,,,,,,,,,,,,,348.09598760004155,349.11596229998395,346.2581164999865,346.2581164999865,346.2581164999865,346.2581164999865,old_fruit_6.png,93,1.0,1.8313780000898987,,013,1,2024-10-17_16h45.45.979,Surprise recog test,2023.1.3,59.95164295762369,
93,0,93,0,,,,,,,,,,,,,,,,,,,,,,,,,,,,,,,,,,,,350.9746449999511,351.9958875000011,349.11596229998395,349.11596229998395,349.11596229998395,349.11596229998395,new_fruit_42.png,94,4.0,1.8585661000106484,,013,1,2024-10-17_16h45.45.979,Surprise recog test,2023.1.3,59.95164295762369,
94,0,94,0,,,,,,,,,,,,,,,,,,,,,,,,,,,,,,,,,,,,353.53240319993347,354.5626765000634,351.9958875000011,351.9958875000011,351.9958875000011,351.9958875000011,old_sceneOut_5.png,95,5.0,1.539306600112468,,013,1,2024-10-17_16h45.45.979,Surprise recog test,2023.1.3,59.95164295762369,
95,0,95,0,,,,,,,,,,,,,,,,,,,,,,,,,,,,,,,,,,,,356.15570580004714,357.18246220005676,354.5626765000634,354.5626765000634,354.5626765000634,354.5626765000634,new_fruit_14.png,96,4.0,1.5945035999175161,,013,1,2024-10-17_16h45.45.979,Surprise recog test,2023.1.3,59.95164295762369,
96,0,96,0,,,,,,,,,,,,,,,,,,,,,,,,,,,,,,,,,,,,358.74487709999084,359.76746440003626,357.18246220005676,357.18246220005676,357.18246220005676,357.18246220005676,old_stationery_14.png,97,1.0,1.563843100098893,,013,1,2024-10-17_16h45.45.979,Surprise recog test,2023.1.3,59.95164295762369,
97,0,97,0,,,,,,,,,,,,,,,,,,,,,,,,,,,,,,,,,,,,362.4673200000543,363.4756587999873,359.76746440003626,359.76746440003626,359.76746440003626,359.76746440003626,old_fruit_46.png,98,3.0,2.7022877000272274,,013,1,2024-10-17_16h45.45.979,Surprise recog test,2023.1.3,59.95164295762369,
98,0,98,0,,,,,,,,,,,,,,,,,,,,,,,,,,,,,,,,,,,,365.02231890009716,,363.4756587999873,363.4756587999873,363.4756587999873,363.4756587999873,old_fruit_29.png,99,2.0,1.5405034001450986,,013,1,2024-10-17_16h45.45.979,Surprise recog test,2023.1.3,59.95164295762369,
99,0,99,0,,,,,,,,,,,,,,,,,,,,,,,,,,,,,,,,,,,,367.4237317999359,,366.0556439999491,366.0556439999491,366.0556439999491,366.0556439999491,old_stationery_27.png,100,1.0,1.36836940003559,,013,1,2024-10-17_16h45.45.979,Surprise recog test,2023.1.3,59.95164295762369,
100,0,100,0,,,,,,,,,,,,,,,,,,,,,,,,,,,,,,,,,,,,369.9881718000397,371.00873499992304,368.4583606000524,368.4583606000524,368.4583606000524,368.4583606000524,new_sceneOut_8.png,101,5.0,1.5316883001942188,,013,1,2024-10-17_16h45.45.979,Surprise recog test,2023.1.3,59.95164295762369,
101,0,101,0,,,,,,,,,,,,,,,,,,,,,,,,,,,,,,,,,,,,372.7810655001085,373.79971439996734,371.00873499992304,371.00873499992304,371.00873499992304,371.00873499992304,new_sceneIn_15.png,102,5.0,1.771731099812314,,013,1,2024-10-17_16h45.45.979,Surprise recog test,2023.1.3,59.95164295762369,
102,0,102,0,,,,,,,,,,,,,,,,,,,,,,,,,,,,,,,,,,,,376.0972126999404,,373.79971439996734,373.79971439996734,373.79971439996734,373.79971439996734,new_sceneIn_26.png,103,2.0,2.2955289999954402,,013,1,2024-10-17_16h45.45.979,Surprise recog test,2023.1.3,59.95164295762369,
103,0,103,0,,,,,,,,,,,,,,,,,,,,,,,,,,,,,,,,,,,,378.54427290009335,379.55880909995176,377.1348929000087,377.1348929000087,377.1348929000087,377.1348929000087,new_sceneOut_37.png,104,5.0,1.411258300067857,,013,1,2024-10-17_16h45.45.979,Surprise recog test,2023.1.3,59.95164295762369,
104,0,104,0,,,,,,,,,,,,,,,,,,,,,,,,,,,,,,,,,,,,380.3375812000595,381.3667576999869,379.55880909995176,379.55880909995176,379.55880909995176,379.55880909995176,new_sceneOut_30.png,105,5.0,0.7795637999661267,,013,1,2024-10-17_16h45.45.979,Surprise recog test,2023.1.3,59.95164295762369,
105,0,105,0,,,,,,,,,,,,,,,,,,,,,,,,,,,,,,,,,,,,383.1292008999735,384.14901720010675,381.3667576999869,381.3667576999869,381.3667576999869,381.3667576999869,new_fruit_30.png,106,2.0,1.7639039000496268,,013,1,2024-10-17_16h45.45.979,Surprise recog test,2023.1.3,59.95164295762369,
106,0,106,0,,,,,,,,,,,,,,,,,,,,,,,,,,,,,,,,,,,,385.6410179999657,386.6663760000374,384.14901720010675,384.14901720010675,384.14901720010675,384.14901720010675,new_stationery_41.png,107,5.0,1.4940011999569833,,013,1,2024-10-17_16h45.45.979,Surprise recog test,2023.1.3,59.95164295762369,
107,0,107,0,,,,,,,,,,,,,,,,,,,,,,,,,,,,,,,,,,,,388.67510699993,,386.6663760000374,386.6663760000374,386.6663760000374,386.6663760000374,new_fruit_18.png,108,3.0,2.0087631000205874,,013,1,2024-10-17_16h45.45.979,Surprise recog test,2023.1.3,59.95164295762369,
108,0,108,0,,,,,,,,,,,,,,,,,,,,,,,,,,,,,,,,,,,,391.4972777001094,392.52738839993253,389.6982275999617,389.6982275999617,389.6982275999617,389.6982275999617,old_stationery_24.png,109,2.0,1.7958716000430286,,013,1,2024-10-17_16h45.45.979,Surprise recog test,2023.1.3,59.95164295762369,
109,0,109,0,,,,,,,,,,,,,,,,,,,,,,,,,,,,,,,,,,,,394.37622420000844,395.3950288000051,392.52738839993253,392.52738839993253,392.52738839993253,392.52738839993253,old_fruit_43.png,110,4.0,1.847358400002122,,013,1,2024-10-17_16h45.45.979,Surprise recog test,2023.1.3,59.95164295762369,
110,0,110,0,,,,,,,,,,,,,,,,,,,,,,,,,,,,,,,,,,,,397.2285730999429,398.2493406999856,395.3950288000051,395.3950288000051,395.3950288000051,395.3950288000051,old_fruit_26.png,111,1.0,1.8283214000985026,,013,1,2024-10-17_16h45.45.979,Surprise recog test,2023.1.3,59.95164295762369,
111,0,111,0,,,,,,,,,,,,,,,,,,,,,,,,,,,,,,,,,,,,399.4807458999567,400.4957461999729,398.2493406999856,398.2493406999856,398.2493406999856,398.2493406999856,old_stationery_38.png,112,1.0,1.231322200037539,,013,1,2024-10-17_16h45.45.979,Surprise recog test,2023.1.3,59.95164295762369,
112,0,112,0,,,,,,,,,,,,,,,,,,,,,,,,,,,,,,,,,,,,401.6412855000235,402.67181279999204,400.4957461999729,400.4957461999729,400.4957461999729,400.4957461999729,old_fruit_18.png,113,1.0,1.1475120999384671,,013,1,2024-10-17_16h45.45.979,Surprise recog test,2023.1.3,59.95164295762369,
113,0,113,0,,,,,,,,,,,,,,,,,,,,,,,,,,,,,,,,,,,,404.559771399945,405.58803800004534,402.67181279999204,402.67181279999204,402.67181279999204,402.67181279999204,old_fruit_33.png,114,4.0,1.89011780009605,,013,1,2024-10-17_16h45.45.979,Surprise recog test,2023.1.3,59.95164295762369,
114,0,114,0,,,,,,,,,,,,,,,,,,,,,,,,,,,,,,,,,,,,406.82015560008585,407.8380185000133,405.58803800004534,405.58803800004534,405.58803800004534,405.58803800004534,old_sceneOut_12.png,115,5.0,1.2334406999871135,,013,1,2024-10-17_16h45.45.979,Surprise recog test,2023.1.3,59.95164295762369,
115,0,115,0,,,,,,,,,,,,,,,,,,,,,,,,,,,,,,,,,,,,408.69984090002254,409.7211190001108,407.8380185000133,407.8380185000133,407.8380185000133,407.8380185000133,old_sceneIn_17.png,116,5.0,0.8634145001415163,,013,1,2024-10-17_16h45.45.979,Surprise recog test,2023.1.3,59.95164295762369,
116,0,116,0,,,,,,,,,,,,,,,,,,,,,,,,,,,,,,,,,,,,411.16911510005593,412.19403970008716,409.7211190001108,409.7211190001108,409.7211190001108,409.7211190001108,old_sceneOut_14.png,117,5.0,1.4488342001568526,,013,1,2024-10-17_16h45.45.979,Surprise recog test,2023.1.3,59.95164295762369,
117,0,117,0,,,,,,,,,,,,,,,,,,,,,,,,,,,,,,,,,,,,414.0312838999089,415.06740660010837,412.19403970008716,412.19403970008716,412.19403970008716,412.19403970008716,old_sceneIn_32.png,118,4.0,1.8394091001246125,,013,1,2024-10-17_16h45.45.979,Surprise recog test,2023.1.3,59.95164295762369,
118,0,118,0,,,,,,,,,,,,,,,,,,,,,,,,,,,,,,,,,,,,416.36173080001026,417.38057649997063,415.06740660010837,415.06740660010837,415.06740660010837,415.06740660010837,new_sceneIn_30.png,119,5.0,1.295959300128743,,013,1,2024-10-17_16h45.45.979,Surprise recog test,2023.1.3,59.95164295762369,
119,0,119,0,,,,,,,,,,,,,,,,,,,,,,,,,,,,,,,,,,,,419.3020359000657,420.33518710010685,417.38057649997063,417.38057649997063,417.38057649997063,417.38057649997063,new_sceneOut_6.png,120,5.0,1.9238279999699444,,013,1,2024-10-17_16h45.45.979,Surprise recog test,2023.1.3,59.95164295762369,
120,0,120,0,,,,,,,,,,,,,,,,,,,,,,,,,,,,,,,,,,,,422.1881552999839,423.2085990998894,420.33518710010685,420.33518710010685,420.33518710010685,420.33518710010685,new_stationery_7.png,121,4.0,1.857251999899745,,013,1,2024-10-17_16h45.45.979,Surprise recog test,2023.1.3,59.95164295762369,
121,0,121,0,,,,,,,,,,,,,,,,,,,,,,,,,,,,,,,,,,,,424.5083220999222,425.5399607999716,423.2085990998894,423.2085990998894,423.2085990998894,423.2085990998894,old_stationery_13.png,122,1.0,1.295855199918151,,013,1,2024-10-17_16h45.45.979,Surprise recog test,2023.1.3,59.95164295762369,
122,0,122,0,,,,,,,,,,,,,,,,,,,,,,,,,,,,,,,,,,,,427.5370636000298,428.55665519996546,425.5399607999716,425.5399607999716,425.5399607999716,425.5399607999716,old_sceneOut_50.png,123,5.0,1.994906899984926,,013,1,2024-10-17_16h45.45.979,Surprise recog test,2023.1.3,59.95164295762369,
123,0,123,0,,,,,,,,,,,,,,,,,,,,,,,,,,,,,,,,,,,,430.012007500045,431.0388579000719,428.55665519996546,428.55665519996546,428.55665519996546,428.55665519996546,old_stationery_21.png,124,1.0,1.457111299969256,,013,1,2024-10-17_16h45.45.979,Surprise recog test,2023.1.3,59.95164295762369,
124,0,124,0,,,,,,,,,,,,,,,,,,,,,,,,,,,,,,,,,,,,432.06823249999434,433.0957722000312,431.0388579000719,431.0388579000719,431.0388579000719,431.0388579000719,new_fruit_3.png,125,1.0,1.0302919999230653,,013,1,2024-10-17_16h45.45.979,Surprise recog test,2023.1.3,59.95164295762369,
125,0,125,0,,,,,,,,,,,,,,,,,,,,,,,,,,,,,,,,,,,,434.87662260001525,435.8964080000296,433.0957722000312,433.0957722000312,433.0957722000312,433.0957722000312,new_sceneIn_22.png,126,4.0,1.779552899999544,,013,1,2024-10-17_16h45.45.979,Surprise recog test,2023.1.3,59.95164295762369,
126,0,126,0,,,,,,,,,,,,,,,,,,,,,,,,,,,,,,,,,,,,437.69171039992943,438.7044218000956,435.8964080000296,435.8964080000296,435.8964080000296,435.8964080000296,new_sceneOut_50.png,127,4.0,1.7946478000376374,,013,1,2024-10-17_16h45.45.979,Surprise recog test,2023.1.3,59.95164295762369,
127,0,127,0,,,,,,,,,,,,,,,,,,,,,,,,,,,,,,,,,,,,440.29464409989305,441.323434199905,438.7044218000956,438.7044218000956,438.7044218000956,438.7044218000956,new_fruit_46.png,128,4.0,1.5843895999714732,,013,1,2024-10-17_16h45.45.979,Surprise recog test,2023.1.3,59.95164295762369,
128,0,128,0,,,,,,,,,,,,,,,,,,,,,,,,,,,,,,,,,,,,442.64973459998146,443.6688840999268,441.323434199905,441.323434199905,441.323434199905,441.323434199905,old_fruit_9.png,129,1.0,1.327157599851489,,013,1,2024-10-17_16h45.45.979,Surprise recog test,2023.1.3,59.95164295762369,
129,0,129,0,,,,,,,,,,,,,,,,,,,,,,,,,,,,,,,,,,,,445.225265200017,446.2595244999975,443.6688840999268,443.6688840999268,443.6688840999268,443.6688840999268,new_fruit_47.png,130,5.0,1.5579991999547929,,013,1,2024-10-17_16h45.45.979,Surprise recog test,2023.1.3,59.95164295762369,
130,0,130,0,,,,,,,,,,,,,,,,,,,,,,,,,,,,,,,,,,,,447.7226583000738,448.7396527999081,446.2595244999975,446.2595244999975,446.2595244999975,446.2595244999975,new_sceneIn_42.png,131,5.0,1.4680566999595612,,013,1,2024-10-17_16h45.45.979,Surprise recog test,2023.1.3,59.95164295762369,
131,0,131,0,,,,,,,,,,,,,,,,,,,,,,,,,,,,,,,,,,,,449.7802126999013,450.8116623000242,448.7396527999081,448.7396527999081,448.7396527999081,448.7396527999081,new_sceneIn_12.png,132,5.0,1.0402981000952423,,013,1,2024-10-17_16h45.45.979,Surprise recog test,2023.1.3,59.95164295762369,
132,0,132,0,,,,,,,,,,,,,,,,,,,,,,,,,,,,,,,,,,,,452.8050949999597,453.83022079989314,450.8116623000242,450.8116623000242,450.8116623000242,450.8116623000242,new_stationery_13.png,133,4.0,1.9974628000054508,,013,1,2024-10-17_16h45.45.979,Surprise recog test,2023.1.3,59.95164295762369,
133,0,133,0,,,,,,,,,,,,,,,,,,,,,,,,,,,,,,,,,,,,455.21086860005744,456.2227205000818,453.83022079989314,453.83022079989314,453.83022079989314,453.83022079989314,new_fruit_8.png,134,4.0,1.3834538999944925,,013,1,2024-10-17_16h45.45.979,Surprise recog test,2023.1.3,59.95164295762369,
134,0,134,0,,,,,,,,,,,,,,,,,,,,,,,,,,,,,,,,,,,,457.6371698998846,458.6676735000219,456.2227205000818,456.2227205000818,456.2227205000818,456.2227205000818,new_sceneIn_11.png,135,4.0,1.4146891999989748,,013,1,2024-10-17_16h45.45.979,Surprise recog test,2023.1.3,59.95164295762369,
135,0,135,0,,,,,,,,,,,,,,,,,,,,,,,,,,,,,,,,,,,,460.5095760000404,461.5269567000214,458.6676735000219,458.6676735000219,458.6676735000219,458.6676735000219,new_sceneOut_45.png,136,5.0,1.8446039999835193,,013,1,2024-10-17_16h45.45.979,Surprise recog test,2023.1.3,59.95164295762369,
136,0,136,0,,,,,,,,,,,,,,,,,,,,,,,,,,,,,,,,,,,,463.13291119993664,464.1472694000695,461.5269567000214,461.5269567000214,461.5269567000214,461.5269567000214,old_sceneIn_48.png,137,5.0,1.603716399986297,,013,1,2024-10-17_16h45.45.979,Surprise recog test,2023.1.3,59.95164295762369,
137,0,137,0,,,,,,,,,,,,,,,,,,,,,,,,,,,,,,,,,,,,466.10277240001597,467.10798009997234,464.1472694000695,464.1472694000695,464.1472694000695,464.1472694000695,old_stationery_44.png,138,1.0,1.9509123000316322,,013,1,2024-10-17_16h45.45.979,Surprise recog test,2023.1.3,59.95164295762369,
138,0,138,0,,,,,,,,,,,,,,,,,,,,,,,,,,,,,,,,,,,,468.6946672000922,469.709123800043,467.10798009997234,467.10798009997234,467.10798009997234,467.10798009997234,new_fruit_28.png,139,4.0,1.5839736999478191,,013,1,2024-10-17_16h45.45.979,Surprise recog test,2023.1.3,59.95164295762369,
139,0,139,0,,,,,,,,,,,,,,,,,,,,,,,,,,,,,,,,,,,,471.7403579999227,472.75784259987995,469.709123800043,469.709123800043,469.709123800043,469.709123800043,old_stationery_41.png,140,2.0,2.027144700055942,,013,1,2024-10-17_16h45.45.979,Surprise recog test,2023.1.3,59.95164295762369,
140,0,140,0,,,,,,,,,,,,,,,,,,,,,,,,,,,,,,,,,,,,474.91129479999654,475.9260694999248,472.75784259987995,472.75784259987995,472.75784259987995,472.75784259987995,old_fruit_7.png,141,3.0,2.1537864999845624,,013,1,2024-10-17_16h45.45.979,Surprise recog test,2023.1.3,59.95164295762369,
141,0,141,0,,,,,,,,,,,,,,,,,,,,,,,,,,,,,,,,,,,,477.38175530009903,,475.9260694999248,475.9260694999248,475.9260694999248,475.9260694999248,old_sceneOut_21.png,142,5.0,1.4523861000780016,,013,1,2024-10-17_16h45.45.979,Surprise recog test,2023.1.3,59.95164295762369,
142,0,142,0,,,,,,,,,,,,,,,,,,,,,,,,,,,,,,,,,,,,479.8962185999844,480.91797509999014,478.41681220009923,478.41681220009923,478.41681220009923,478.41681220009923,new_sceneIn_44.png,143,5.0,1.482691700104624,,013,1,2024-10-17_16h45.45.979,Surprise recog test,2023.1.3,59.95164295762369,
143,0,143,0,,,,,,,,,,,,,,,,,,,,,,,,,,,,,,,,,,,,483.0125257000327,484.0364043000154,480.91797509999014,480.91797509999014,480.91797509999014,480.91797509999014,new_fruit_23.png,144,3.0,2.0959250000305474,,013,1,2024-10-17_16h45.45.979,Surprise recog test,2023.1.3,59.95164295762369,
144,0,144,0,,,,,,,,,,,,,,,,,,,,,,,,,,,,,,,,,,,,485.9023070000112,486.92748939991,484.0364043000154,484.0364043000154,484.0364043000154,484.0364043000154,new_fruit_27.png,145,3.0,1.8674858999438584,,013,1,2024-10-17_16h45.45.979,Surprise recog test,2023.1.3,59.95164295762369,
145,0,145,0,,,,,,,,,,,,,,,,,,,,,,,,,,,,,,,,,,,,488.4479479000438,489.4678217000328,486.92748939991,486.92748939991,486.92748939991,486.92748939991,new_sceneIn_37.png,146,4.0,1.5247696998994797,,013,1,2024-10-17_16h45.45.979,Surprise recog test,2023.1.3,59.95164295762369,
146,0,146,0,,,,,,,,,,,,,,,,,,,,,,,,,,,,,,,,,,,,490.974694600096,491.9923479000572,489.4678217000328,489.4678217000328,489.4678217000328,489.4678217000328,old_sceneIn_1.png,147,5.0,1.507109200116247,,013,1,2024-10-17_16h45.45.979,Surprise recog test,2023.1.3,59.95164295762369,
147,0,147,0,,,,,,,,,,,,,,,,,,,,,,,,,,,,,,,,,,,,493.461526399944,,491.9923479000572,491.9923479000572,491.9923479000572,491.9923479000572,new_stationery_38.png,148,1.0,1.469711400102824,,013,1,2024-10-17_16h45.45.979,Surprise recog test,2023.1.3,59.95164295762369,
148,0,148,0,,,,,,,,,,,,,,,,,,,,,,,,,,,,,,,,,,,,496.24424610007554,497.26104540005326,494.49546519992873,494.49546519992873,494.49546519992873,494.49546519992873,new_stationery_42.png,149,5.0,1.7435723000671715,,013,1,2024-10-17_16h45.45.979,Surprise recog test,2023.1.3,59.95164295762369,
149,0,149,0,,,,,,,,,,,,,,,,,,,,,,,,,,,,,,,,,,,,498.4548136999365,499.4771654000506,497.26104540005326,497.26104540005326,497.26104540005326,497.26104540005326,old_sceneOut_1.png,150,4.0,1.1908550998196006,,013,1,2024-10-17_16h45.45.979,Surprise recog test,2023.1.3,59.95164295762369,
150,0,150,0,,,,,,,,,,,,,,,,,,,,,,,,,,,,,,,,,,,,500.8327162999194,501.8535426000599,499.4771654000506,499.4771654000506,499.4771654000506,499.4771654000506,old_sceneIn_49.png,151,5.0,1.3579005999490619,,013,1,2024-10-17_16h45.45.979,Surprise recog test,2023.1.3,59.95164295762369,
151,0,151,0,,,,,,,,,,,,,,,,,,,,,,,,,,,,,,,,,,,,502.80350839998573,,501.8535426000599,501.8535426000599,501.8535426000599,501.8535426000599,new_sceneIn_8.png,152,5.0,0.9542756001465023,,013,1,2024-10-17_16h45.45.979,Surprise recog test,2023.1.3,59.95164295762369,
152,0,152,0,,,,,,,,,,,,,,,,,,,,,,,,,,,,,,,,,,,,505.0942245000042,506.12154920003377,503.836771100061,503.836771100061,503.836771100061,503.836771100061,new_stationery_40.png,153,5.0,1.2584130999166518,,013,1,2024-10-17_16h45.45.979,Surprise recog test,2023.1.3,59.95164295762369,
153,0,153,0,,,,,,,,,,,,,,,,,,,,,,,,,,,,,,,,,,,,507.2293589001056,508.2592555000447,506.12154920003377,506.12154920003377,506.12154920003377,506.12154920003377,old_sceneOut_33.png,154,5.0,1.109712899895385,,013,1,2024-10-17_16h45.45.979,Surprise recog test,2023.1.3,59.95164295762369,
154,0,154,0,,,,,,,,,,,,,,,,,,,,,,,,,,,,,,,,,,,,509.29856540006585,510.315327799879,508.2592555000447,508.2592555000447,508.2592555000447,508.2592555000447,new_fruit_10.png,155,5.0,1.0428709001280367,,013,1,2024-10-17_16h45.45.979,Surprise recog test,2023.1.3,59.95164295762369,
155,0,155,0,,,,,,,,,,,,,,,,,,,,,,,,,,,,,,,,,,,,511.4696996998973,512.4833668000065,510.315327799879,510.315327799879,510.315327799879,510.315327799879,old_fruit_49.png,156,5.0,1.1512540001422167,,013,1,2024-10-17_16h45.45.979,Surprise recog test,2023.1.3,59.95164295762369,
156,0,156,0,,,,,,,,,,,,,,,,,,,,,,,,,,,,,,,,,,,,513.7117230999283,,512.4833668000065,512.4833668000065,512.4833668000065,512.4833668000065,old_sceneOut_4.png,157,5.0,1.2233810999896377,,013,1,2024-10-17_16h45.45.979,Surprise recog test,2023.1.3,59.95164295762369,
157,0,157,0,,,,,,,,,,,,,,,,,,,,,,,,,,,,,,,,,,,,515.7437680000439,516.7601038999856,514.7479040999897,514.7479040999897,514.7479040999897,514.7479040999897,new_stationery_5.png,158,5.0,0.9950599998701364,,013,1,2024-10-17_16h45.45.979,Surprise recog test,2023.1.3,59.95164295762369,
158,0,158,0,,,,,,,,,,,,,,,,,,,,,,,,,,,,,,,,,,,,517.9909391999245,519.0064197999891,516.7601038999856,516.7601038999856,516.7601038999856,516.7601038999856,old_sceneOut_10.png,159,5.0,1.2338118001352996,,013,1,2024-10-17_16h45.45.979,Surprise recog test,2023.1.3,59.95164295762369,
159,0,159,0,,,,,,,,,,,,,,,,,,,,,,,,,,,,,,,,,,,,520.8735032998957,521.9031964000314,519.0064197999891,519.0064197999891,519.0064197999891,519.0064197999891,old_fruit_32.png,160,4.0,1.8647435000166297,,013,1,2024-10-17_16h45.45.979,Surprise recog test,2023.1.3,59.95164295762369,
160,0,160,0,,,,,,,,,,,,,,,,,,,,,,,,,,,,,,,,,,,,522.8644697999116,523.8893675000872,521.9031964000314,521.9031964000314,521.9031964000314,521.9031964000314,old_sceneOut_16.png,161,4.0,0.9615340000018477,,013,1,2024-10-17_16h45.45.979,Surprise recog test,2023.1.3,59.95164295762369,
161,0,161,0,,,,,,,,,,,,,,,,,,,,,,,,,,,,,,,,,,,,525.4103055999149,526.4340623000171,523.8893675000872,523.8893675000872,523.8893675000872,523.8893675000872,new_sceneIn_2.png,162,5.0,1.5226076999679208,,013,1,2024-10-17_16h45.45.979,Surprise recog test,2023.1.3,59.95164295762369,
162,0,162,0,,,,,,,,,,,,,,,,,,,,,,,,,,,,,,,,,,,,527.2581257999409,528.2940946999006,526.4340623000171,526.4340623000171,526.4340623000171,526.4340623000171,old_sceneIn_5.png,163,5.0,0.8254193000029773,,013,1,2024-10-17_16h45.45.979,Surprise recog test,2023.1.3,59.95164295762369,
163,0,163,0,,,,,,,,,,,,,,,,,,,,,,,,,,,,,,,,,,,,529.9315963999834,530.9559273999184,528.2940946999006,528.2940946999006,528.2940946999006,528.2940946999006,old_sceneOut_22.png,164,5.0,1.6383935997728258,,013,1,2024-10-17_16h45.45.979,Surprise recog test,2023.1.3,59.95164295762369,
164,0,164,0,,,,,,,,,,,,,,,,,,,,,,,,,,,,,,,,,,,,531.8658501999453,532.8946589999832,530.9559273999184,530.9559273999184,530.9559273999184,530.9559273999184,old_sceneIn_37.png,165,5.0,0.911161300027743,,013,1,2024-10-17_16h45.45.979,Surprise recog test,2023.1.3,59.95164295762369,
165,0,165,0,,,,,,,,,,,,,,,,,,,,,,,,,,,,,,,,,,,,534.2156610998791,535.2337072999217,532.8946589999832,532.8946589999832,532.8946589999832,532.8946589999832,old_fruit_3.png,166,4.0,1.3229352999478579,,013,1,2024-10-17_16h45.45.979,Surprise recog test,2023.1.3,59.95164295762369,
166,0,166,0,,,,,,,,,,,,,,,,,,,,,,,,,,,,,,,,,,,,536.582873800071,537.6179835998919,535.2337072999217,535.2337072999217,535.2337072999217,535.2337072999217,new_fruit_1.png,167,4.0,1.3447110000997782,,013,1,2024-10-17_16h45.45.979,Surprise recog test,2023.1.3,59.95164295762369,
167,0,167,0,,,,,,,,,,,,,,,,,,,,,,,,,,,,,,,,,,,,539.7756757999305,540.7966203000396,537.6179835998919,537.6179835998919,537.6179835998919,537.6179835998919,new_stationery_35.png,168,3.0,2.158910300116986,,013,1,2024-10-17_16h45.45.979,Surprise recog test,2023.1.3,59.95164295762369,
168,0,168,0,,,,,,,,,,,,,,,,,,,,,,,,,,,,,,,,,,,,542.512286500074,543.539896100061,540.7966203000396,540.7966203000396,540.7966203000396,540.7966203000396,new_fruit_43.png,169,5.0,1.7167847000528127,,013,1,2024-10-17_16h45.45.979,Surprise recog test,2023.1.3,59.95164295762369,
169,0,169,0,,,,,,,,,,,,,,,,,,,,,,,,,,,,,,,,,,,,545.0395843000151,,543.539896100061,543.539896100061,543.539896100061,543.539896100061,new_sceneOut_20.png,170,4.0,1.5001436001621187,,013,1,2024-10-17_16h45.45.979,Surprise recog test,2023.1.3,59.95164295762369,
170,0,170,0,,,,,,,,,,,,,,,,,,,,,,,,,,,,,,,,,,,,547.4868365998846,548.5023854000028,546.0717990000267,546.0717990000267,546.0717990000267,546.0717990000267,new_sceneOut_13.png,171,4.0,1.4130363001022488,,013,1,2024-10-17_16h45.45.979,Surprise recog test,2023.1.3,59.95164295762369,
171,0,171,0,,,,,,,,,,,,,,,,,,,,,,,,,,,,,,,,,,,,549.8950724001043,550.9273053999059,548.5023854000028,548.5023854000028,548.5023854000028,548.5023854000028,old_sceneOut_3.png,172,4.0,1.3935808998066932,,013,1,2024-10-17_16h45.45.979,Surprise recog test,2023.1.3,59.95164295762369,
172,0,172,0,,,,,,,,,,,,,,,,,,,,,,,,,,,,,,,,,,,,553.3583837000187,554.3801003999542,550.9273053999059,550.9273053999059,550.9273053999059,550.9273053999059,new_stationery_30.png,173,2.0,2.433449799893424,,013,1,2024-10-17_16h45.45.979,Surprise recog test,2023.1.3,59.95164295762369,
173,0,173,0,,,,,,,,,,,,,,,,,,,,,,,,,,,,,,,,,,,,555.6971362999175,,554.3801003999542,554.3801003999542,554.3801003999542,554.3801003999542,old_stationery_18.png,174,2.0,1.319599499925971,,013,1,2024-10-17_16h45.45.979,Surprise recog test,2023.1.3,59.95164295762369,
174,0,174,0,,,,,,,,,,,,,,,,,,,,,,,,,,,,,,,,,,,,558.1352923000231,559.1649744999595,556.7179696999956,556.7179696999956,556.7179696999956,556.7179696999956,new_fruit_50.png,175,3.0,1.409573300043121,,013,1,2024-10-17_16h45.45.979,Surprise recog test,2023.1.3,59.95164295762369,
175,0,175,0,,,,,,,,,,,,,,,,,,,,,,,,,,,,,,,,,,,,561.1866077000741,562.2218156000599,559.1649744999595,559.1649744999595,559.1649744999595,559.1649744999595,old_fruit_25.png,176,4.0,2.021470099920407,,013,1,2024-10-17_16h45.45.979,Surprise recog test,2023.1.3,59.95164295762369,
176,0,176,0,,,,,,,,,,,,,,,,,,,,,,,,,,,,,,,,,,,,563.7617993999738,564.7884947999846,562.2218156000599,562.2218156000599,562.2218156000599,562.2218156000599,old_sceneIn_19.png,177,5.0,1.53944219998084,,013,1,2024-10-17_16h45.45.979,Surprise recog test,2023.1.3,59.95164295762369,
177,0,177,0,,,,,,,,,,,,,,,,,,,,,,,,,,,,,,,,,,,,566.1371730000246,567.1501342998818,564.7884947999846,564.7884947999846,564.7884947999846,564.7884947999846,new_fruit_2.png,178,2.0,1.3526416001841426,,013,1,2024-10-17_16h45.45.979,Surprise recog test,2023.1.3,59.95164295762369,
178,0,178,0,,,,,,,,,,,,,,,,,,,,,,,,,,,,,,,,,,,,568.8073851999361,,567.1501342998818,567.1501342998818,567.1501342998818,567.1501342998818,old_fruit_36.png,179,2.0,1.6584511001128703,,013,1,2024-10-17_16h45.45.979,Surprise recog test,2023.1.3,59.95164295762369,
179,0,179,0,,,,,,,,,,,,,,,,,,,,,,,,,,,,,,,,,,,,571.2565764999017,572.2740346000064,569.84771979996,569.84771979996,569.84771979996,569.84771979996,old_sceneIn_28.png,180,5.0,1.413692899979651,,013,1,2024-10-17_16h45.45.979,Surprise recog test,2023.1.3,59.95164295762369,
180,0,180,0,,,,,,,,,,,,,,,,,,,,,,,,,,,,,,,,,,,,573.3060449999757,574.3294901999179,572.2740346000064,572.2740346000064,572.2740346000064,572.2740346000064,old_sceneOut_47.png,181,5.0,1.0320596999954432,,013,1,2024-10-17_16h45.45.979,Surprise recog test,2023.1.3,59.95164295762369,
181,0,181,0,,,,,,,,,,,,,,,,,,,,,,,,,,,,,,,,,,,,576.9768970001023,577.9977996000089,574.3294901999179,574.3294901999179,574.3294901999179,574.3294901999179,old_sceneIn_10.png,182,4.0,2.6490992999169976,,013,1,2024-10-17_16h45.45.979,Surprise recog test,2023.1.3,59.95164295762369,
182,0,182,0,,,,,,,,,,,,,,,,,,,,,,,,,,,,,,,,,,,,578.9718528999947,580.002349599963,577.9977996000089,577.9977996000089,577.9977996000089,577.9977996000089,old_sceneOut_28.png,183,4.0,0.9753501999657601,,013,1,2024-10-17_16h45.45.979,Surprise recog test,2023.1.3,59.95164295762369,
183,0,183,0,,,,,,,,,,,,,,,,,,,,,,,,,,,,,,,,,,,,581.2532605999149,582.285736199934,580.002349599963,580.002349599963,580.002349599963,580.002349599963,old_sceneIn_18.png,184,4.0,1.254834999796003,,013,1,2024-10-17_16h45.45.979,Surprise recog test,2023.1.3,59.95164295762369,
184,0,184,0,,,,,,,,,,,,,,,,,,,,,,,,,,,,,,,,,,,,583.9261121999007,584.9400551000144,582.285736199934,582.285736199934,582.285736199934,582.285736199934,old_fruit_20.png,185,1.0,1.642109600128606,,013,1,2024-10-17_16h45.45.979,Surprise recog test,2023.1.3,59.95164295762369,
185,0,185,0,,,,,,,,,,,,,,,,,,,,,,,,,,,,,,,,,,,,586.7695520000998,587.7907648999244,584.9400551000144,584.9400551000144,584.9400551000144,584.9400551000144,new_sceneIn_21.png,186,4.0,1.8225761000066996,,013,1,2024-10-17_16h45.45.979,Surprise recog test,2023.1.3,59.95164295762369,
186,0,186,0,,,,,,,,,,,,,,,,,,,,,,,,,,,,,,,,,,,,589.3546925000846,590.3642102000304,587.7907648999244,587.7907648999244,587.7907648999244,587.7907648999244,old_sceneIn_16.png,187,4.0,1.5662328999023885,,013,1,2024-10-17_16h45.45.979,Surprise recog test,2023.1.3,59.95164295762369,
187,0,187,0,,,,,,,,,,,,,,,,,,,,,,,,,,,,,,,,,,,,591.814795000013,592.8329074999783,590.3642102000304,590.3642102000304,590.3642102000304,590.3642102000304,old_stationery_28.png,188,1.0,1.446724999928847,,013,1,2024-10-17_16h45.45.979,Surprise recog test,2023.1.3,59.95164295762369,
188,0,188,0,,,,,,,,,,,,,,,,,,,,,,,,,,,,,,,,,,,,594.6028754999861,595.6335519999266,592.8329074999783,592.8329074999783,592.8329074999783,592.8329074999783,new_fruit_41.png,189,3.0,1.7665448000188917,,013,1,2024-10-17_16h45.45.979,Surprise recog test,2023.1.3,59.95164295762369,
189,0,189,0,,,,,,,,,,,,,,,,,,,,,,,,,,,,,,,,,,,,597.4109044000506,598.4317407999188,595.6335519999266,595.6335519999266,595.6335519999266,595.6335519999266,new_sceneOut_40.png,190,2.0,1.7800370999611914,,013,1,2024-10-17_16h45.45.979,Surprise recog test,2023.1.3,59.95164295762369,
190,0,190,0,,,,,,,,,,,,,,,,,,,,,,,,,,,,,,,,,,,,599.6972890000325,600.7160956000444,598.4317407999188,598.4317407999188,598.4317407999188,598.4317407999188,new_fruit_25.png,191,3.0,1.266556299990043,,013,1,2024-10-17_16h45.45.979,Surprise recog test,2023.1.3,59.95164295762369,
191,0,191,0,,,,,,,,,,,,,,,,,,,,,,,,,,,,,,,,,,,,602.215546600055,603.2347418998834,600.7160956000444,600.7160956000444,600.7160956000444,600.7160956000444,old_sceneIn_25.png,192,5.0,1.4994366001337767,,013,1,2024-10-17_16h45.45.979,Surprise recog test,2023.1.3,59.95164295762369,
192,0,192,0,,,,,,,,,,,,,,,,,,,,,,,,,,,,,,,,,,,,605.2737853999715,606.2923687999137,603.2347418998834,603.2347418998834,603.2347418998834,603.2347418998834,old_fruit_16.png,193,3.0,2.039644999895245,,013,1,2024-10-17_16h45.45.979,Surprise recog test,2023.1.3,59.95164295762369,
193,0,193,0,,,,,,,,,,,,,,,,,,,,,,,,,,,,,,,,,,,,608.2170132999308,609.2292492000852,606.2923687999137,606.2923687999137,606.2923687999137,606.2923687999137,new_sceneOut_11.png,194,4.0,1.9194171000272036,,013,1,2024-10-17_16h45.45.979,Surprise recog test,2023.1.3,59.95164295762369,
194,0,194,0,,,,,,,,,,,,,,,,,,,,,,,,,,,,,,,,,,,,610.2054777999874,611.2140333999414,609.2292492000852,609.2292492000852,609.2292492000852,609.2292492000852,new_sceneIn_10.png,195,4.0,0.9696129001677036,,013,1,2024-10-17_16h45.45.979,Surprise recog test,2023.1.3,59.95164295762369,
195,0,195,0,,,,,,,,,,,,,,,,,,,,,,,,,,,,,,,,,,,,612.8546710999217,613.865742099937,611.2140333999414,611.2140333999414,611.2140333999414,611.2140333999414,new_stationery_34.png,196,5.0,1.6340314999688417,,013,1,2024-10-17_16h45.45.979,Surprise recog test,2023.1.3,59.95164295762369,
196,0,196,0,,,,,,,,,,,,,,,,,,,,,,,,,,,,,,,,,,,,615.6235537000466,616.6494750001002,613.865742099937,613.865742099937,613.865742099937,613.865742099937,old_fruit_1.png,197,3.0,1.7541287001222372,,013,1,2024-10-17_16h45.45.979,Surprise recog test,2023.1.3,59.95164295762369,
197,0,197,0,,,,,,,,,,,,,,,,,,,,,,,,,,,,,,,,,,,,618.062060700031,619.080401299987,616.6494750001002,616.6494750001002,616.6494750001002,616.6494750001002,old_sceneIn_22.png,198,5.0,1.4135736001189798,,013,1,2024-10-17_16h45.45.979,Surprise recog test,2023.1.3,59.95164295762369,
198,0,198,0,,,,,,,,,,,,,,,,,,,,,,,,,,,,,,,,,,,,620.145741699962,621.1683730001096,619.080401299987,619.080401299987,619.080401299987,619.080401299987,old_sceneOut_9.png,199,5.0,1.066936300136149,,013,1,2024-10-17_16h45.45.979,Surprise recog test,2023.1.3,59.95164295762369,
199,0,199,0,,,,,,,,,,,,,,,,,,,,,,,,,,,,,,,,,,,,623.1318308999762,624.1416090999264,621.1683730001096,621.1683730001096,621.1683730001096,621.1683730001096,new_stationery_4.png,200,3.0,1.9662897000089288,,013,1,2024-10-17_16h45.45.979,Surprise recog test,2023.1.3,59.95164295762369,
200,0,200,0,,,,,,,,,,,,,,,,,,,,,,,,,,,,,,,,,,,,625.4370255998801,,624.1416090999264,624.1416090999264,624.1416090999264,624.1416090999264,old_stationery_22.png,201,1.0,1.2909935000352561,,013,1,2024-10-17_16h45.45.979,Surprise recog test,2023.1.3,59.95164295762369,
201,0,201,0,,,,,,,,,,,,,,,,,,,,,,,,,,,,,,,,,,,,628.1463860999793,629.1757253999822,626.4710315999109,626.4710315999109,626.4710315999109,626.4710315999109,new_stationery_49.png,202,5.0,1.6772257999982685,,013,1,2024-10-17_16h45.45.979,Surprise recog test,2023.1.3,59.95164295762369,
202,0,202,0,,,,,,,,,,,,,,,,,,,,,,,,,,,,,,,,,,,,631.1392759999726,632.1621989998966,629.1757253999822,629.1757253999822,629.1757253999822,629.1757253999822,new_fruit_21.png,203,3.0,1.9652734999544919,,013,1,2024-10-17_16h45.45.979,Surprise recog test,2023.1.3,59.95164295762369,
203,0,203,0,,,,,,,,,,,,,,,,,,,,,,,,,,,,,,,,,,,,634.1969725999516,635.2268795999698,632.1621989998966,632.1621989998966,632.1621989998966,632.1621989998966,new_sceneOut_31.png,204,3.0,2.0376762999221683,,013,1,2024-10-17_16h45.45.979,Surprise recog test,2023.1.3,59.95164295762369,
204,0,204,0,,,,,,,,,,,,,,,,,,,,,,,,,,,,,,,,,,,,636.7019865999464,637.7197066000663,635.2268795999698,635.2268795999698,635.2268795999698,635.2268795999698,old_sceneIn_40.png,205,5.0,1.4724967000074685,,013,1,2024-10-17_16h45.45.979,Surprise recog test,2023.1.3,59.95164295762369,
205,0,205,0,,,,,,,,,,,,,,,,,,,,,,,,,,,,,,,,,,,,639.465811500093,,637.7197066000663,637.7197066000663,637.7197066000663,637.7197066000663,old_sceneOut_2.png,206,3.0,1.742197799962014,,013,1,2024-10-17_16h45.45.979,Surprise recog test,2023.1.3,59.95164295762369,
206,0,206,0,,,,,,,,,,,,,,,,,,,,,,,,,,,,,,,,,,,,642.3635082000401,643.3811546000652,640.4876222999301,640.4876222999301,640.4876222999301,640.4876222999301,new_sceneOut_39.png,207,4.0,1.8716102000325918,,013,1,2024-10-17_16h45.45.979,Surprise recog test,2023.1.3,59.95164295762369,
207,0,207,0,,,,,,,,,,,,,,,,,,,,,,,,,,,,,,,,,,,,644.8230326001067,645.8430925998837,643.3811546000652,643.3811546000652,643.3811546000652,643.3811546000652,new_stationery_39.png,208,4.0,1.4358807001262903,,013,1,2024-10-17_16h45.45.979,Surprise recog test,2023.1.3,59.95164295762369,
208,0,208,0,,,,,,,,,,,,,,,,,,,,,,,,,,,,,,,,,,,,647.2684545000084,648.2897880999371,645.8430925998837,645.8430925998837,645.8430925998837,645.8430925998837,old_stationery_45.png,209,1.0,1.4211242999881506,,013,1,2024-10-17_16h45.45.979,Surprise recog test,2023.1.3,59.95164295762369,
209,0,209,0,,,,,,,,,,,,,,,,,,,,,,,,,,,,,,,,,,,,650.5457746000029,651.5773318998981,648.2897880999371,648.2897880999371,648.2897880999371,648.2897880999371,old_fruit_17.png,210,2.0,2.255155400140211,,013,1,2024-10-17_16h45.45.979,Surprise recog test,2023.1.3,59.95164295762369,
210,0,210,0,,,,,,,,,,,,,,,,,,,,,,,,,,,,,,,,,,,,652.996519499924,654.0165065000765,651.5773318998981,651.5773318998981,651.5773318998981,651.5773318998981,old_sceneIn_3.png,211,5.0,1.4221556999254972,,013,1,2024-10-17_16h45.45.979,Surprise recog test,2023.1.3,59.95164295762369,
211,0,211,0,,,,,,,,,,,,,,,,,,,,,,,,,,,,,,,,,,,,656.2703885000665,657.2863018999342,654.0165065000765,654.0165065000765,654.0165065000765,654.0165065000765,old_stationery_16.png,212,1.0,2.249114800011739,,013,1,2024-10-17_16h45.45.979,Surprise recog test,2023.1.3,59.95164295762369,
212,0,212,0,,,,,,,,,,,,,,,,,,,,,,,,,,,,,,,,,,,,658.839641999919,659.8681040999945,657.2863018999342,657.2863018999342,657.2863018999342,657.2863018999342,old_sceneIn_27.png,213,4.0,1.5469541000202298,,013,1,2024-10-17_16h45.45.979,Surprise recog test,2023.1.3,59.95164295762369,
213,0,213,0,,,,,,,,,,,,,,,,,,,,,,,,,,,,,,,,,,,,661.2556135000195,662.2867040999699,659.8681040999945,659.8681040999945,659.8681040999945,659.8681040999945,old_stationery_39.png,214,1.0,1.3870415999554098,,013,1,2024-10-17_16h45.45.979,Surprise recog test,2023.1.3,59.95164295762369,
214,0,214,0,,,,,,,,,,,,,,,,,,,,,,,,,,,,,,,,,,,,663.6667688000016,664.6879889999982,662.2867040999699,662.2867040999699,662.2867040999699,662.2867040999699,new_sceneOut_25.png,215,4.0,1.3761869999580085,,013,1,2024-10-17_16h45.45.979,Surprise recog test,2023.1.3,59.95164295762369,
215,0,215,0,,,,,,,,,,,,,,,,,,,,,,,,,,,,,,,,,,,,665.5563646999653,666.5726725000422,664.6879889999982,664.6879889999982,664.6879889999982,664.6879889999982,new_sceneIn_45.png,216,4.0,0.8676207999233156,,013,1,2024-10-17_16h45.45.979,Surprise recog test,2023.1.3,59.95164295762369,
216,0,216,0,,,,,,,,,,,,,,,,,,,,,,,,,,,,,,,,,,,,668.5785125000402,669.5959280999377,666.5726725000422,666.5726725000422,666.5726725000422,666.5726725000422,old_stationery_6.png,217,1.0,2.0020677999127656,,013,1,2024-10-17_16h45.45.979,Surprise recog test,2023.1.3,59.95164295762369,
217,0,217,0,,,,,,,,,,,,,,,,,,,,,,,,,,,,,,,,,,,,671.2438777999487,,669.5959280999377,669.5959280999377,669.5959280999377,669.5959280999377,new_sceneOut_3.png,218,3.0,1.6456088998820633,,013,1,2024-10-17_16h45.45.979,Surprise recog test,2023.1.3,59.95164295762369,
218,0,218,0,,,,,,,,,,,,,,,,,,,,,,,,,,,,,,,,,,,,673.7394159000833,674.7502967999317,672.276996999979,672.276996999979,672.276996999979,672.276996999979,old_stationery_50.png,219,1.0,1.4647635999135673,,013,1,2024-10-17_16h45.45.979,Surprise recog test,2023.1.3,59.95164295762369,
219,0,219,0,,,,,,,,,,,,,,,,,,,,,,,,,,,,,,,,,,,,676.9081629998982,677.9201783998869,674.7502967999317,674.7502967999317,674.7502967999317,674.7502967999317,new_fruit_49.png,220,3.0,2.1503788998816162,,013,1,2024-10-17_16h45.45.979,Surprise recog test,2023.1.3,59.95164295762369,
220,0,220,0,,,,,,,,,,,,,,,,,,,,,,,,,,,,,,,,,,,,679.2240985999815,680.2531777000986,677.9201783998869,677.9201783998869,677.9201783998869,677.9201783998869,new_fruit_44.png,221,3.0,1.298775800038129,,013,1,2024-10-17_16h45.45.979,Surprise recog test,2023.1.3,59.95164295762369,
221,0,221,0,,,,,,,,,,,,,,,,,,,,,,,,,,,,,,,,,,,,681.832229899941,682.841768699931,680.2531777000986,680.2531777000986,680.2531777000986,680.2531777000986,old_sceneOut_41.png,222,3.0,1.5823751001153141,,013,1,2024-10-17_16h45.45.979,Surprise recog test,2023.1.3,59.95164295762369,
222,0,222,0,,,,,,,,,,,,,,,,,,,,,,,,,,,,,,,,,,,,684.4358490998857,685.4436449999921,682.841768699931,682.841768699931,682.841768699931,682.841768699931,old_stationery_35.png,223,1.0,1.5904597998596728,,013,1,2024-10-17_16h45.45.979,Surprise recog test,2023.1.3,59.95164295762369,
223,0,223,0,,,,,,,,,,,,,,,,,,,,,,,,,,,,,,,,,,,,687.0082934999373,688.0417514999863,685.4436449999921,685.4436449999921,685.4436449999921,685.4436449999921,old_sceneIn_26.png,224,5.0,1.5594925000332296,,013,1,2024-10-17_16h45.45.979,Surprise recog test,2023.1.3,59.95164295762369,
224,0,224,0,,,,,,,,,,,,,,,,,,,,,,,,,,,,,,,,,,,,689.5495921999682,690.5592431998812,688.0417514999863,688.0417514999863,688.0417514999863,688.0417514999863,old_stationery_5.png,225,1.0,1.5100624999031425,,013,1,2024-10-17_16h45.45.979,Surprise recog test,2023.1.3,59.95164295762369,
225,0,225,0,,,,,,,,,,,,,,,,,,,,,,,,,,,,,,,,,,,,692.69731399999,693.7292349000927,690.5592431998812,690.5592431998812,690.5592431998812,690.5592431998812,new_stationery_33.png,226,3.0,2.131699200021103,,013,1,2024-10-17_16h45.45.979,Surprise recog test,2023.1.3,59.95164295762369,
226,0,226,0,,,,,,,,,,,,,,,,,,,,,,,,,,,,,,,,,,,,695.0951759000309,,693.7292349000927,693.7292349000927,693.7292349000927,693.7292349000927,new_stationery_8.png,227,5.0,1.366353000048548,,013,1,2024-10-17_16h45.45.979,Surprise recog test,2023.1.3,59.95164295762369,
227,0,227,0,,,,,,,,,,,,,,,,,,,,,,,,,,,,,,,,,,,,697.8512186000589,698.8839811999351,696.1280354999471,696.1280354999471,696.1280354999471,696.1280354999471,old_fruit_47.png,228,2.0,1.7246604999527335,,013,1,2024-10-17_16h45.45.979,Surprise recog test,2023.1.3,59.95164295762369,
228,0,228,0,,,,,,,,,,,,,,,,,,,,,,,,,,,,,,,,,,,,700.1187497999053,701.1404230000917,698.8839811999351,698.8839811999351,698.8839811999351,698.8839811999351,new_sceneIn_46.png,229,4.0,1.2366939999628812,,013,1,2024-10-17_16h45.45.979,Surprise recog test,2023.1.3,59.95164295762369,
229,0,229,0,,,,,,,,,,,,,,,,,,,,,,,,,,,,,,,,,,,,702.321476199897,703.338967599906,701.1404230000917,701.1404230000917,701.1404230000917,701.1404230000917,new_sceneOut_34.png,230,4.0,1.1784238999243826,,013,1,2024-10-17_16h45.45.979,Surprise recog test,2023.1.3,59.95164295762369,
230,0,230,0,,,,,,,,,,,,,,,,,,,,,,,,,,,,,,,,,,,,704.8434343000408,705.8690615999512,703.338967599906,703.338967599906,703.338967599906,703.338967599906,old_stationery_25.png,231,1.0,1.4981066000182182,,013,1,2024-10-17_16h45.45.979,Surprise recog test,2023.1.3,59.95164295762369,
231,0,231,0,,,,,,,,,,,,,,,,,,,,,,,,,,,,,,,,,,,,707.5448006999213,708.5769454999827,705.8690615999512,705.8690615999512,705.8690615999512,705.8690615999512,old_sceneIn_42.png,232,4.0,1.6789427001494914,,013,1,2024-10-17_16h45.45.979,Surprise recog test,2023.1.3,59.95164295762369,
232,0,232,0,,,,,,,,,,,,,,,,,,,,,,,,,,,,,,,,,,,,710.6725274000783,711.6961006000638,708.5769454999827,708.5769454999827,708.5769454999827,708.5769454999827,new_sceneIn_23.png,233,4.0,2.093814500141889,,013,1,2024-10-17_16h45.45.979,Surprise recog test,2023.1.3,59.95164295762369,
233,0,233,0,,,,,,,,,,,,,,,,,,,,,,,,,,,,,,,,,,,,713.250486300094,714.2783216999378,711.6961006000638,711.6961006000638,711.6961006000638,711.6961006000638,new_sceneOut_23.png,234,5.0,1.5569579000584781,,013,1,2024-10-17_16h45.45.979,Surprise recog test,2023.1.3,59.95164295762369,
234,0,234,0,,,,,,,,,,,,,,,,,,,,,,,,,,,,,,,,,,,,716.0621694000438,,714.2783216999378,714.2783216999378,714.2783216999378,714.2783216999378,new_sceneOut_43.png,235,3.0,1.785309099825099,,013,1,2024-10-17_16h45.45.979,Surprise recog test,2023.1.3,59.95164295762369,
235,0,235,0,,,,,,,,,,,,,,,,,,,,,,,,,,,,,,,,,,,,718.7819997998886,,717.0864627999254,717.0864627999254,717.0864627999254,717.0864627999254,new_stationery_11.png,236,5.0,1.6928909998387098,,013,1,2024-10-17_16h45.45.979,Surprise recog test,2023.1.3,59.95164295762369,
236,0,236,0,,,,,,,,,,,,,,,,,,,,,,,,,,,,,,,,,,,,720.5817474999931,721.5896385998931,719.8093528000172,719.8093528000172,719.8093528000172,719.8093528000172,new_sceneIn_14.png,237,5.0,0.7714855000376701,,013,1,2024-10-17_16h45.45.979,Surprise recog test,2023.1.3,59.95164295762369,
237,0,237,0,,,,,,,,,,,,,,,,,,,,,,,,,,,,,,,,,,,,722.6027617999353,,721.5896385998931,721.5896385998931,721.5896385998931,721.5896385998931,new_sceneIn_33.png,238,5.0,1.0094383999239653,,013,1,2024-10-17_16h45.45.979,Surprise recog test,2023.1.3,59.95164295762369,
238,0,238,0,,,,,,,,,,,,,,,,,,,,,,,,,,,,,,,,,,,,724.8893955000676,725.9094187999144,723.6203469000757,723.6203469000757,723.6203469000757,723.6203469000757,new_sceneOut_44.png,239,5.0,1.2654337999410927,,013,1,2024-10-17_16h45.45.979,Surprise recog test,2023.1.3,59.95164295762369,
239,0,239,0,,,,,,,,,,,,,,,,,,,,,,,,,,,,,,,,,,,,727.152792399982,728.1578549998812,725.9094187999144,725.9094187999144,725.9094187999144,725.9094187999144,new_stationery_29.png,240,5.0,1.2342282000463456,,013,1,2024-10-17_16h45.45.979,Surprise recog test,2023.1.3,59.95164295762369,
240,0,240,0,,,,,,,,,,,,,,,,,,,,,,,,,,,,,,,,,,,,729.3106156000867,730.3259209000971,728.1578549998812,728.1578549998812,728.1578549998812,728.1578549998812,new_sceneIn_20.png,241,5.0,1.148815199965611,,013,1,2024-10-17_16h45.45.979,Surprise recog test,2023.1.3,59.95164295762369,
241,0,241,0,,,,,,,,,,,,,,,,,,,,,,,,,,,,,,,,,,,,732.7741370000876,733.7832176999655,730.3259209000971,730.3259209000971,730.3259209000971,730.3259209000971,new_stationery_12.png,242,3.0,2.4425710001960397,,013,1,2024-10-17_16h45.45.979,Surprise recog test,2023.1.3,59.95164295762369,
242,0,242,0,,,,,,,,,,,,,,,,,,,,,,,,,,,,,,,,,,,,735.0033561999444,736.0295070998836,733.7832176999655,733.7832176999655,733.7832176999655,733.7832176999655,old_sceneOut_36.png,243,4.0,1.213826399995014,,013,1,2024-10-17_16h45.45.979,Surprise recog test,2023.1.3,59.95164295762369,
243,0,243,0,,,,,,,,,,,,,,,,,,,,,,,,,,,,,,,,,,,,737.4523028000258,738.4662262999918,736.0295070998836,736.0295070998836,736.0295070998836,736.0295070998836,new_sceneOut_49.png,244,3.0,1.4237424000166357,,013,1,2024-10-17_16h45.45.979,Surprise recog test,2023.1.3,59.95164295762369,
244,0,244,0,,,,,,,,,,,,,,,,,,,,,,,,,,,,,,,,,,,,740.0232096000109,741.0492120000999,738.4662262999918,738.4662262999918,738.4662262999918,738.4662262999918,old_fruit_50.png,245,3.0,1.552754599833861,,013,1,2024-10-17_16h45.45.979,Surprise recog test,2023.1.3,59.95164295762369,
245,0,245,0,,,,,,,,,,,,,,,,,,,,,,,,,,,,,,,,,,,,742.5512733000796,,741.0492120000999,741.0492120000999,741.0492120000999,741.0492120000999,old_sceneIn_45.png,246,4.0,1.50263260002248,,013,1,2024-10-17_16h45.45.979,Surprise recog test,2023.1.3,59.95164295762369,
246,0,246,0,,,,,,,,,,,,,,,,,,,,,,,,,,,,,,,,,,,,745.2662760999519,746.2896579999942,743.5848944999743,743.5848944999743,743.5848944999743,743.5848944999743,old_fruit_11.png,247,2.0,1.6832588000688702,,013,1,2024-10-17_16h45.45.979,Surprise recog test,2023.1.3,59.95164295762369,
247,0,247,0,,,,,,,,,,,,,,,,,,,,,,,,,,,,,,,,,,,,747.9179920000024,748.944520900026,746.2896579999942,746.2896579999942,746.2896579999942,746.2896579999942,old_sceneOut_26.png,248,4.0,1.6304355999454856,,013,1,2024-10-17_16h45.45.979,Surprise recog test,2023.1.3,59.95164295762369,
248,0,248,0,,,,,,,,,,,,,,,,,,,,,,,,,,,,,,,,,,,,750.9327877000906,751.9623233999591,748.944520900026,748.944520900026,748.944520900026,748.944520900026,new_sceneOut_5.png,249,4.0,1.9910788000561297,,013,1,2024-10-17_16h45.45.979,Surprise recog test,2023.1.3,59.95164295762369,
249,0,249,0,,,,,,,,,,,,,,,,,,,,,,,,,,,,,,,,,,,,753.2464346999768,754.2793646000791,751.9623233999591,751.9623233999591,751.9623233999591,751.9623233999591,new_sceneIn_19.png,250,5.0,1.2833114000968635,,013,1,2024-10-17_16h45.45.979,Surprise recog test,2023.1.3,59.95164295762369,
250,0,250,0,,,,,,,,,,,,,,,,,,,,,,,,,,,,,,,,,,,,755.114671499934,756.1341655000579,754.2793646000791,754.2793646000791,754.2793646000791,754.2793646000791,new_sceneOut_28.png,251,5.0,0.8381732997950166,,013,1,2024-10-17_16h45.45.979,Surprise recog test,2023.1.3,59.95164295762369,
251,0,251,0,,,,,,,,,,,,,,,,,,,,,,,,,,,,,,,,,,,,757.7862710999325,758.8145806998946,756.1341655000579,756.1341655000579,756.1341655000579,756.1341655000579,old_fruit_12.png,252,2.0,1.6471195998601615,,013,1,2024-10-17_16h45.45.979,Surprise recog test,2023.1.3,59.95164295762369,
252,0,252,0,,,,,,,,,,,,,,,,,,,,,,,,,,,,,,,,,,,,760.2303847998846,761.251407600008,758.8145806998946,758.8145806998946,758.8145806998946,758.8145806998946,old_fruit_39.png,253,3.0,1.4168670000508428,,013,1,2024-10-17_16h45.45.979,Surprise recog test,2023.1.3,59.95164295762369,
253,0,253,0,,,,,,,,,,,,,,,,,,,,,,,,,,,,,,,,,,,,763.8432452999987,764.858569300035,761.251407600008,761.251407600008,761.251407600008,761.251407600008,new_sceneIn_27.png,254,3.0,2.5941629000008106,,013,1,2024-10-17_16h45.45.979,Surprise recog test,2023.1.3,59.95164295762369,
254,0,254,0,,,,,,,,,,,,,,,,,,,,,,,,,,,,,,,,,,,,766.3658928999212,767.3890545999166,764.858569300035,764.858569300035,764.858569300035,764.858569300035,old_stationery_12.png,255,1.0,1.503295199945569,,013,1,2024-10-17_16h45.45.979,Surprise recog test,2023.1.3,59.95164295762369,
255,0,255,0,,,,,,,,,,,,,,,,,,,,,,,,,,,,,,,,,,,,768.8541937998962,769.8641264000908,767.3890545999166,767.3890545999166,767.3890545999166,767.3890545999166,new_stationery_32.png,256,4.0,1.4651746000163257,,013,1,2024-10-17_16h45.45.979,Surprise recog test,2023.1.3,59.95164295762369,
256,0,256,0,,,,,,,,,,,,,,,,,,,,,,,,,,,,,,,,,,,,771.0976199998986,772.1141550000757,769.8641264000908,769.8641264000908,769.8641264000908,769.8641264000908,new_sceneIn_39.png,257,5.0,1.2328107000794262,,013,1,2024-10-17_16h45.45.979,Surprise recog test,2023.1.3,59.95164295762369,
257,0,257,0,,,,,,,,,,,,,,,,,,,,,,,,,,,,,,,,,,,,773.774705399992,774.7968071999494,772.1141550000757,772.1141550000757,772.1141550000757,772.1141550000757,old_fruit_21.png,258,4.0,1.6561487999279052,,013,1,2024-10-17_16h45.45.979,Surprise recog test,2023.1.3,59.95164295762369,
258,0,258,0,,,,,,,,,,,,,,,,,,,,,,,,,,,,,,,,,,,,776.1396860000677,777.1635112999938,774.7968071999494,774.7968071999494,774.7968071999494,774.7968071999494,old_stationery_49.png,259,1.0,1.3447067001834512,,013,1,2024-10-17_16h45.45.979,Surprise recog test,2023.1.3,59.95164295762369,
259,0,259,0,,,,,,,,,,,,,,,,,,,,,,,,,,,,,,,,,,,,778.6759718998801,779.6994229999837,777.1635112999938,777.1635112999938,777.1635112999938,777.1635112999938,new_sceneOut_24.png,260,4.0,1.5118903999682516,,013,1,2024-10-17_16h45.45.979,Surprise recog test,2023.1.3,59.95164295762369,
260,0,260,0,,,,,,,,,,,,,,,,,,,,,,,,,,,,,,,,,,,,781.1763802999631,782.189341600053,779.6994229999837,779.6994229999837,779.6994229999837,779.6994229999837,new_fruit_6.png,261,4.0,1.4753962999675423,,013,1,2024-10-17_16h45.45.979,Surprise recog test,2023.1.3,59.95164295762369,
261,0,261,0,,,,,,,,,,,,,,,,,,,,,,,,,,,,,,,,,,,,783.9748476000968,785.005487699993,782.189341600053,782.189341600053,782.189341600053,782.189341600053,old_stationery_17.png,262,1.0,1.7815785999409854,,013,1,2024-10-17_16h45.45.979,Surprise recog test,2023.1.3,59.95164295762369,
262,0,262,0,,,,,,,,,,,,,,,,,,,,,,,,,,,,,,,,,,,,786.5170303001069,787.5387953000609,785.005487699993,785.005487699993,785.005487699993,785.005487699993,new_stationery_50.png,263,5.0,1.5152425998821855,,013,1,2024-10-17_16h45.45.979,Surprise recog test,2023.1.3,59.95164295762369,
263,0,263,0,,,,,,,,,,,,,,,,,,,,,,,,,,,,,,,,,,,,788.4913447001018,,787.5387953000609,787.5387953000609,787.5387953000609,787.5387953000609,new_sceneOut_2.png,264,5.0,0.9545275000855327,,013,1,2024-10-17_16h45.45.979,Surprise recog test,2023.1.3,59.95164295762369,
264,0,264,0,,,,,,,,,,,,,,,,,,,,,,,,,,,,,,,,,,,,790.6603761999868,791.6939602000639,789.512958999956,789.512958999956,789.512958999956,789.512958999956,new_sceneIn_43.png,265,5.0,1.1441448000259697,,013,1,2024-10-17_16h45.45.979,Surprise recog test,2023.1.3,59.95164295762369,
265,0,265,0,,,,,,,,,,,,,,,,,,,,,,,,,,,,,,,,,,,,793.7273560999893,,791.6939602000639,791.6939602000639,791.6939602000639,791.6939602000639,old_fruit_15.png,266,3.0,2.0336636998690665,,013,1,2024-10-17_16h45.45.979,Surprise recog test,2023.1.3,59.95164295762369,
266,0,266,0,,,,,,,,,,,,,,,,,,,,,,,,,,,,,,,,,,,,795.852371300105,796.8819230999798,794.7609155999962,794.7609155999962,794.7609155999962,794.7609155999962,old_sceneIn_13.png,267,4.0,1.0933384001255035,,013,1,2024-10-17_16h45.45.979,Surprise recog test,2023.1.3,59.95164295762369,
267,0,267,0,,,,,,,,,,,,,,,,,,,,,,,,,,,,,,,,,,,,798.1904676000122,799.2178342998959,796.8819230999798,796.8819230999798,796.8819230999798,796.8819230999798,new_stationery_10.png,268,4.0,1.3090456000063568,,013,1,2024-10-17_16h45.45.979,Surprise recog test,2023.1.3,59.95164295762369,
268,0,268,0,,,,,,,,,,,,,,,,,,,,,,,,,,,,,,,,,,,,801.0114128000569,802.0340440999717,799.2178342998959,799.2178342998959,799.2178342998959,799.2178342998959,new_fruit_19.png,269,5.0,1.7969098000321537,,013,1,2024-10-17_16h45.45.979,Surprise recog test,2023.1.3,59.95164295762369,
269,0,269,0,,,,,,,,,,,,,,,,,,,,,,,,,,,,,,,,,,,,802.7657522999216,803.7878660999704,802.0340440999717,802.0340440999717,802.0340440999717,802.0340440999717,old_sceneOut_8.png,270,5.0,0.7285069001372904,,013,1,2024-10-17_16h45.45.979,Surprise recog test,2023.1.3,59.95164295762369,
270,0,270,0,,,,,,,,,,,,,,,,,,,,,,,,,,,,,,,,,,,,804.438990799943,805.4709681000095,803.7878660999704,803.7878660999704,803.7878660999704,803.7878660999704,old_sceneIn_24.png,271,5.0,0.6545184999704361,,013,1,2024-10-17_16h45.45.979,Surprise recog test,2023.1.3,59.95164295762369,
271,0,271,0,,,,,,,,,,,,,,,,,,,,,,,,,,,,,,,,,,,,806.9101686999202,807.9267227000091,805.4709681000095,805.4709681000095,805.4709681000095,805.4709681000095,new_fruit_12.png,272,3.0,1.4409175999462605,,013,1,2024-10-17_16h45.45.979,Surprise recog test,2023.1.3,59.95164295762369,
272,0,272,0,,,,,,,,,,,,,,,,,,,,,,,,,,,,,,,,,,,,809.542455600109,810.5627909998875,807.9267227000091,807.9267227000091,807.9267227000091,807.9267227000091,old_sceneOut_17.png,273,4.0,1.6106843999587,,013,1,2024-10-17_16h45.45.979,Surprise recog test,2023.1.3,59.95164295762369,
273,0,273,0,,,,,,,,,,,,,,,,,,,,,,,,,,,,,,,,,,,,811.6230955999345,812.6441742999014,810.5627909998875,810.5627909998875,810.5627909998875,810.5627909998875,old_fruit_19.png,274,4.0,1.0498364998493344,,013,1,2024-10-17_16h45.45.979,Surprise recog test,2023.1.3,59.95164295762369,
274,0,274,0,,,,,,,,,,,,,,,,,,,,,,,,,,,,,,,,,,,,814.476264799945,815.4920892999507,812.6441742999014,812.6441742999014,812.6441742999014,812.6441742999014,new_stationery_15.png,275,1.0,1.8343440999742597,,013,1,2024-10-17_16h45.45.979,Surprise recog test,2023.1.3,59.95164295762369,
275,0,275,0,,,,,,,,,,,,,,,,,,,,,,,,,,,,,,,,,,,,817.1461290000007,818.1672374000773,815.4920892999507,815.4920892999507,815.4920892999507,815.4920892999507,new_fruit_37.png,276,4.0,1.6550047998316586,,013,1,2024-10-17_16h45.45.979,Surprise recog test,2023.1.3,59.95164295762369,
276,0,276,0,,,,,,,,,,,,,,,,,,,,,,,,,,,,,,,,,,,,818.9253589001019,819.9350095998961,818.1672374000773,818.1672374000773,818.1672374000773,818.1672374000773,old_sceneIn_33.png,277,4.0,0.761800599982962,,013,1,2024-10-17_16h45.45.979,Surprise recog test,2023.1.3,59.95164295762369,
277,0,277,0,,,,,,,,,,,,,,,,,,,,,,,,,,,,,,,,,,,,821.1590150999837,822.185652300017,819.9350095998961,819.9350095998961,819.9350095998961,819.9350095998961,old_stationery_33.png,278,1.0,1.2199647000525147,,013,1,2024-10-17_16h45.45.979,Surprise recog test,2023.1.3,59.95164295762369,
278,0,278,0,,,,,,,,,,,,,,,,,,,,,,,,,,,,,,,,,,,,823.4682956000324,,822.185652300017,822.185652300017,822.185652300017,822.185652300017,old_sceneIn_8.png,279,5.0,1.2819415000267327,,013,1,2024-10-17_16h45.45.979,Surprise recog test,2023.1.3,59.95164295762369,
279,0,279,0,,,,,,,,,,,,,,,,,,,,,,,,,,,,,,,,,,,,825.1844202999491,826.2055484000593,824.5042554999236,824.5042554999236,824.5042554999236,824.5042554999236,old_sceneIn_4.png,280,5.0,0.6790905001107603,,013,1,2024-10-17_16h45.45.979,Surprise recog test,2023.1.3,59.95164295762369,
280,0,280,0,,,,,,,,,,,,,,,,,,,,,,,,,,,,,,,,,,,,826.8538134000264,827.8739362999331,826.2055484000593,826.2055484000593,826.2055484000593,826.2055484000593,old_sceneOut_49.png,281,5.0,0.6483551999554038,,013,1,2024-10-17_16h45.45.979,Surprise recog test,2023.1.3,59.95164295762369,
281,0,281,0,,,,,,,,,,,,,,,,,,,,,,,,,,,,,,,,,,,,828.5406094000209,,827.8739362999331,827.8739362999331,827.8739362999331,827.8739362999331,old_sceneIn_23.png,282,5.0,0.6663559000007808,,013,1,2024-10-17_16h45.45.979,Surprise recog test,2023.1.3,59.95164295762369,
282,0,282,0,,,,,,,,,,,,,,,,,,,,,,,,,,,,,,,,,,,,830.2085414000321,,829.5614326999057,829.5614326999057,829.5614326999057,829.5614326999057,new_sceneOut_46.png,283,5.0,0.6427826997824013,,013,1,2024-10-17_16h45.45.979,Surprise recog test,2023.1.3,59.95164295762369,
283,0,283,0,,,,,,,,,,,,,,,,,,,,,,,,,,,,,,,,,,,,832.7142336999532,833.7434078000952,831.2291419999674,831.2291419999674,831.2291419999674,831.2291419999674,old_stationery_19.png,284,1.0,1.481116299983114,,013,1,2024-10-17_16h45.45.979,Surprise recog test,2023.1.3,59.95164295762369,
284,0,284,0,,,,,,,,,,,,,,,,,,,,,,,,,,,,,,,,,,,,835.6246164999902,836.6318594000768,833.7434078000952,833.7434078000952,833.7434078000952,833.7434078000952,new_sceneIn_28.png,285,5.0,1.8827394000254571,,013,1,2024-10-17_16h45.45.979,Surprise recog test,2023.1.3,59.95164295762369,
285,0,285,0,,,,,,,,,,,,,,,,,,,,,,,,,,,,,,,,,,,,837.72131980001,838.7498530999292,836.6318594000768,836.6318594000768,836.6318594000768,836.6318594000768,new_sceneIn_4.png,286,5.0,1.0861003999598324,,013,1,2024-10-17_16h45.45.979,Surprise recog test,2023.1.3,59.95164295762369,
286,0,286,0,,,,,,,,,,,,,,,,,,,,,,,,,,,,,,,,,,,,840.5277690000366,841.549942899961,838.7498530999292,838.7498530999292,838.7498530999292,838.7498530999292,old_sceneOut_43.png,287,3.0,1.77934499992989,,013,1,2024-10-17_16h45.45.979,Surprise recog test,2023.1.3,59.95164295762369,
287,0,287,0,,,,,,,,,,,,,,,,,,,,,,,,,,,,,,,,,,,,842.9821593998931,844.003472500015,841.549942899961,841.549942899961,841.549942899961,841.549942899961,old_fruit_45.png,288,1.0,1.4337265999056399,,013,1,2024-10-17_16h45.45.979,Surprise recog test,2023.1.3,59.95164295762369,
288,0,288,0,,,,,,,,,,,,,,,,,,,,,,,,,,,,,,,,,,,,845.8127927999012,846.8367079999298,844.003472500015,844.003472500015,844.003472500015,844.003472500015,new_stationery_25.png,289,2.0,1.8119151999708265,,013,1,2024-10-17_16h45.45.979,Surprise recog test,2023.1.3,59.95164295762369,
289,0,289,0,,,,,,,,,,,,,,,,,,,,,,,,,,,,,,,,,,,,848.0699167998973,849.0784614998847,846.8367079999298,846.8367079999298,846.8367079999298,846.8367079999298,old_stationery_15.png,290,2.0,1.2297466997988522,,013,1,2024-10-17_16h45.45.979,Surprise recog test,2023.1.3,59.95164295762369,
290,0,290,0,,,,,,,,,,,,,,,,,,,,,,,,,,,,,,,,,,,,850.6558026000857,851.6778655000962,849.0784614998847,849.0784614998847,849.0784614998847,849.0784614998847,new_stationery_37.png,291,5.0,1.57342189992778,,013,1,2024-10-17_16h45.45.979,Surprise recog test,2023.1.3,59.95164295762369,
291,0,291,0,,,,,,,,,,,,,,,,,,,,,,,,,,,,,,,,,,,,853.2329694000073,854.248664899962,851.6778655000962,851.6778655000962,851.6778655000962,851.6778655000962,old_stationery_8.png,292,2.0,1.5575395000632852,,013,1,2024-10-17_16h45.45.979,Surprise recog test,2023.1.3,59.95164295762369,
292,0,292,0,,,,,,,,,,,,,,,,,,,,,,,,,,,,,,,,,,,,856.1919362999033,857.2022055999842,854.248664899962,854.248664899962,854.248664899962,854.248664899962,old_fruit_30.png,293,4.0,1.937991000013426,,013,1,2024-10-17_16h45.45.979,Surprise recog test,2023.1.3,59.95164295762369,
293,0,293,0,,,,,,,,,,,,,,,,,,,,,,,,,,,,,,,,,,,,858.5454555000179,859.5598627999425,857.2022055999842,857.2022055999842,857.2022055999842,857.2022055999842,old_stationery_34.png,294,1.0,1.3322554000187665,,013,1,2024-10-17_16h45.45.979,Surprise recog test,2023.1.3,59.95164295762369,
294,0,294,0,,,,,,,,,,,,,,,,,,,,,,,,,,,,,,,,,,,,861.0336879999377,,859.5598627999425,859.5598627999425,859.5598627999425,859.5598627999425,old_sceneOut_37.png,295,4.0,1.4747628001496196,,013,1,2024-10-17_16h45.45.979,Surprise recog test,2023.1.3,59.95164295762369,
295,0,295,0,,,,,,,,,,,,,,,,,,,,,,,,,,,,,,,,,,,,862.8096982999705,863.8243668999057,862.0702740999404,862.0702740999404,862.0702740999404,862.0702740999404,old_sceneIn_36.png,296,4.0,0.7430880998726934,,013,1,2024-10-17_16h45.45.979,Surprise recog test,2023.1.3,59.95164295762369,
296,0,296,0,,,,,,,,,,,,,,,,,,,,,,,,,,,,,,,,,,,,864.5107448000927,865.527593600098,863.8243668999057,863.8243668999057,863.8243668999057,863.8243668999057,new_sceneOut_29.png,297,4.0,0.6817183000966907,,013,1,2024-10-17_16h45.45.979,Surprise recog test,2023.1.3,59.95164295762369,
297,0,297,0,,,,,,,,,,,,,,,,,,,,,,,,,,,,,,,,,,,,867.3764106999151,868.4080072999932,865.527593600098,865.527593600098,865.527593600098,865.527593600098,new_stationery_23.png,298,5.0,1.8454686999320984,,013,1,2024-10-17_16h45.45.979,Surprise recog test,2023.1.3,59.95164295762369,
298,0,298,0,,,,,,,,,,,,,,,,,,,,,,,,,,,,,,,,,,,,869.4657815000974,870.4791574000847,868.4080072999932,868.4080072999932,868.4080072999932,868.4080072999932,old_fruit_48.png,299,5.0,1.0615429000463337,,013,1,2024-10-17_16h45.45.979,Surprise recog test,2023.1.3,59.95164295762369,
299,0,299,0,,,,,,,,,,,,,,,,,,,,,,,,,,,,,,,,,,,,872.416603300022,873.4471372000407,870.4791574000847,870.4791574000847,870.4791574000847,870.4791574000847,old_fruit_22.png,300,1.0,1.9334489998873323,,013,1,2024-10-17_16h45.45.979,Surprise recog test,2023.1.3,59.95164295762369,
300,0,300,0,,,,,,,,,,,,,,,,,,,,,,,,,,,,,,,,,,,,875.0242415999528,876.0335448000114,873.4471372000407,873.4471372000407,873.4471372000407,873.4471372000407,new_sceneOut_7.png,301,4.0,1.5821923001203686,,013,1,2024-10-17_16h45.45.979,Surprise recog test,2023.1.3,59.95164295762369,
301,0,301,0,,,,,,,,,,,,,,,,,,,,,,,,,,,,,,,,,,,,877.6199574000202,878.6431130999699,876.0335448000114,876.0335448000114,876.0335448000114,876.0335448000114,old_fruit_8.png,302,1.0,1.581446300027892,,013,1,2024-10-17_16h45.45.979,Surprise recog test,2023.1.3,59.95164295762369,
302,0,302,0,,,,,,,,,,,,,,,,,,,,,,,,,,,,,,,,,,,,880.3950738999993,881.4166033999063,878.6431130999699,878.6431130999699,878.6431130999699,878.6431130999699,new_sceneOut_21.png,303,4.0,1.7534441000316292,,013,1,2024-10-17_16h45.45.979,Surprise recog test,2023.1.3,59.95164295762369,
303,0,303,0,,,,,,,,,,,,,,,,,,,,,,,,,,,,,,,,,,,,882.8505593000446,883.8683539999183,881.4166033999063,881.4166033999063,881.4166033999063,881.4166033999063,old_sceneIn_12.png,304,4.0,1.4359732000157237,,013,1,2024-10-17_16h45.45.979,Surprise recog test,2023.1.3,59.95164295762369,
304,0,304,0,,,,,,,,,,,,,,,,,,,,,,,,,,,,,,,,,,,,885.4310528999195,886.4586791999172,883.8683539999183,883.8683539999183,883.8683539999183,883.8683539999183,old_stationery_29.png,305,1.0,1.5645874000620097,,013,1,2024-10-17_16h45.45.979,Surprise recog test,2023.1.3,59.95164295762369,
305,0,305,0,,,,,,,,,,,,,,,,,,,,,,,,,,,,,,,,,,,,888.2402484000195,,886.4586791999172,886.4586791999172,886.4586791999172,886.4586791999172,old_fruit_4.png,306,2.0,1.7838918000925332,,013,1,2024-10-17_16h45.45.979,Surprise recog test,2023.1.3,59.95164295762369,
306,0,306,0,,,,,,,,,,,,,,,,,,,,,,,,,,,,,,,,,,,,890.5140456000809,891.5398506000638,889.2732287000399,889.2732287000399,889.2732287000399,889.2732287000399,new_sceneIn_17.png,307,5.0,1.2421687000896782,,013,1,2024-10-17_16h45.45.979,Surprise recog test,2023.1.3,59.95164295762369,
307,0,307,0,,,,,,,,,,,,,,,,,,,,,,,,,,,,,,,,,,,,892.5025442999322,893.5278777000494,891.5398506000638,891.5398506000638,891.5398506000638,891.5398506000638,new_sceneOut_35.png,308,5.0,0.9614951000548899,,013,1,2024-10-17_16h45.45.979,Surprise recog test,2023.1.3,59.95164295762369,
308,0,308,0,,,,,,,,,,,,,,,,,,,,,,,,,,,,,,,,,,,,894.3264778999146,895.3365541999228,893.5278777000494,893.5278777000494,893.5278777000494,893.5278777000494,old_sceneIn_7.png,309,5.0,0.8003136999905109,,013,1,2024-10-17_16h45.45.979,Surprise recog test,2023.1.3,59.95164295762369,
309,0,309,0,,,,,,,,,,,,,,,,,,,,,,,,,,,,,,,,,,,,896.1193347000517,897.1455457000993,895.3365541999228,895.3365541999228,895.3365541999228,895.3365541999228,new_stationery_14.png,310,5.0,0.7794004997704178,,013,1,2024-10-17_16h45.45.979,Surprise recog test,2023.1.3,59.95164295762369,
310,0,310,0,,,,,,,,,,,,,,,,,,,,,,,,,,,,,,,,,,,,898.5374916000292,899.5647658000235,897.1455457000993,897.1455457000993,897.1455457000993,897.1455457000993,old_stationery_30.png,311,1.0,1.3943621001672,,013,1,2024-10-17_16h45.45.979,Surprise recog test,2023.1.3,59.95164295762369,
311,0,311,0,,,,,,,,,,,,,,,,,,,,,,,,,,,,,,,,,,,,900.8548357998952,901.8722172998823,899.5647658000235,899.5647658000235,899.5647658000235,899.5647658000235,new_sceneIn_16.png,312,5.0,1.290620099985972,,013,1,2024-10-17_16h45.45.979,Surprise recog test,2023.1.3,59.95164295762369,
312,0,312,0,,,,,,,,,,,,,,,,,,,,,,,,,,,,,,,,,,,,902.511613199953,903.5364304000977,901.8722172998823,901.8722172998823,901.8722172998823,901.8722172998823,new_sceneOut_48.png,313,5.0,0.6349360998719931,,013,1,2024-10-17_16h45.45.979,Surprise recog test,2023.1.3,59.95164295762369,
313,0,313,0,,,,,,,,,,,,,,,,,,,,,,,,,,,,,,,,,,,,904.1146384999156,905.1380654999521,903.5364304000977,903.5364304000977,903.5364304000977,903.5364304000977,old_sceneIn_11.png,314,5.0,0.5803920000325888,,013,1,2024-10-17_16h45.45.979,Surprise recog test,2023.1.3,59.95164295762369,
314,0,314,0,,,,,,,,,,,,,,,,,,,,,,,,,,,,,,,,,,,,905.8880344000645,,905.1380654999521,905.1380654999521,905.1380654999521,905.1380654999521,new_stationery_26.png,315,5.0,0.7530894000083208,,013,1,2024-10-17_16h45.45.979,Surprise recog test,2023.1.3,59.95164295762369,
315,0,315,0,,,,,,,,,,,,,,,,,,,,,,,,,,,,,,,,,,,,907.4993028999306,908.5251625999808,906.9231970000546,906.9231970000546,906.9231970000546,906.9231970000546,new_sceneOut_14.png,316,5.0,0.5787315999623388,,013,1,2024-10-17_16h45.45.979,Surprise recog test,2023.1.3,59.95164295762369,
316,0,316,0,,,,,,,,,,,,,,,,,,,,,,,,,,,,,,,,,,,,909.5105451000854,910.5268476998899,908.5251625999808,908.5251625999808,908.5251625999808,908.5251625999808,new_sceneIn_48.png,317,5.0,0.9894475999753922,,013,1,2024-10-17_16h45.45.979,Surprise recog test,2023.1.3,59.95164295762369,
317,0,317,0,,,,,,,,,,,,,,,,,,,,,,,,,,,,,,,,,,,,912.6421584000345,913.6622424998786,910.5268476998899,910.5268476998899,910.5268476998899,910.5268476998899,old_stationery_9.png,318,4.0,2.11242809984833,,013,1,2024-10-17_16h45.45.979,Surprise recog test,2023.1.3,59.95164295762369,
318,0,318,0,,,,,,,,,,,,,,,,,,,,,,,,,,,,,,,,,,,,914.3926895998884,915.4141951999627,913.6622424998786,913.6622424998786,913.6622424998786,913.6622424998786,old_sceneOut_38.png,319,4.0,0.7328953999094665,,013,1,2024-10-17_16h45.45.979,Surprise recog test,2023.1.3,59.95164295762369,
319,0,319,0,,,,,,,,,,,,,,,,,,,,,,,,,,,,,,,,,,,,916.021290600067,917.0418136001099,915.4141951999627,915.4141951999627,915.4141951999627,915.4141951999627,old_sceneOut_34.png,320,4.0,0.6095236998517066,,013,1,2024-10-17_16h45.45.979,Surprise recog test,2023.1.3,59.95164295762369,
320,0,320,0,,,,,,,,,,,,,,,,,,,,,,,,,,,,,,,,,,,,917.7501387998927,918.783403800102,917.0418136001099,917.0418136001099,917.0418136001099,917.0418136001099,new_sceneOut_36.png,321,4.0,0.7066498000640422,,013,1,2024-10-17_16h45.45.979,Surprise recog test,2023.1.3,59.95164295762369,
321,0,321,0,,,,,,,,,,,,,,,,,,,,,,,,,,,,,,,,,,,,919.8627367001027,920.8713223000523,918.783403800102,918.783403800102,918.783403800102,918.783403800102,new_fruit_32.png,322,4.0,1.0813263000454754,,013,1,2024-10-17_16h45.45.979,Surprise recog test,2023.1.3,59.95164295762369,
322,0,322,0,,,,,,,,,,,,,,,,,,,,,,,,,,,,,,,,,,,,922.2417391999625,923.2572621998843,920.8713223000523,920.8713223000523,920.8713223000523,920.8713223000523,old_stationery_20.png,323,1.0,1.3665314998943359,,013,1,2024-10-17_16h45.45.979,Surprise recog test,2023.1.3,59.95164295762369,
323,0,323,0,,,,,,,,,,,,,,,,,,,,,,,,,,,,,,,,,,,,924.8325545999687,925.8510944000445,923.2572621998843,923.2572621998843,923.2572621998843,923.2572621998843,old_sceneIn_34.png,324,5.0,1.568722500000149,,013,1,2024-10-17_16h45.45.979,Surprise recog test,2023.1.3,59.95164295762369,
324,0,324,0,,,,,,,,,,,,,,,,,,,,,,,,,,,,,,,,,,,,927.0066625000909,,925.8510944000445,925.8510944000445,925.8510944000445,925.8510944000445,old_stationery_3.png,325,1.0,1.1561685998458415,,013,1,2024-10-17_16h45.45.979,Surprise recog test,2023.1.3,59.95164295762369,
325,0,325,0,,,,,,,,,,,,,,,,,,,,,,,,,,,,,,,,,,,,930.0588875999674,,928.0427355000284,928.0427355000284,928.0427355000284,928.0427355000284,new_stationery_43.png,326,3.0,2.0211819000542164,,013,1,2024-10-17_16h45.45.979,Surprise recog test,2023.1.3,59.95164295762369,
326,0,326,0,,,,,,,,,,,,,,,,,,,,,,,,,,,,,,,,,,,,932.3017740999348,933.3302243999206,931.0794081001077,931.0794081001077,931.0794081001077,931.0794081001077,old_sceneOut_24.png,327,4.0,1.2176566999405622,,013,1,2024-10-17_16h45.45.979,Surprise recog test,2023.1.3,59.95164295762369,
327,0,327,0,,,,,,,,,,,,,,,,,,,,,,,,,,,,,,,,,,,,935.1325952000916,936.1669266999234,933.3302243999206,933.3302243999206,933.3302243999206,933.3302243999206,new_stationery_17.png,328,5.0,1.8067701999098063,,013,1,2024-10-17_16h45.45.979,Surprise recog test,2023.1.3,59.95164295762369,
328,0,328,0,,,,,,,,,,,,,,,,,,,,,,,,,,,,,,,,,,,,936.7317590001039,937.7522565999534,936.1669266999234,936.1669266999234,936.1669266999234,936.1669266999234,old_sceneIn_35.png,329,5.0,0.5692875001113862,,013,1,2024-10-17_16h45.45.979,Surprise recog test,2023.1.3,59.95164295762369,
329,0,329,0,,,,,,,,,,,,,,,,,,,,,,,,,,,,,,,,,,,,939.1849464999977,940.2040671999566,937.7522565999534,937.7522565999534,937.7522565999534,937.7522565999534,old_fruit_2.png,330,3.0,1.4286577000748366,,013,1,2024-10-17_16h45.45.979,Surprise recog test,2023.1.3,59.95164295762369,
330,0,330,0,,,,,,,,,,,,,,,,,,,,,,,,,,,,,,,,,,,,941.4790606999304,942.5074571000878,940.2040671999566,940.2040671999566,940.2040671999566,940.2040671999566,old_fruit_5.png,331,4.0,1.27001339988783,,013,1,2024-10-17_16h45.45.979,Surprise recog test,2023.1.3,59.95164295762369,
331,0,331,0,,,,,,,,,,,,,,,,,,,,,,,,,,,,,,,,,,,,943.7528731001075,,942.5074571000878,942.5074571000878,942.5074571000878,942.5074571000878,old_sceneIn_43.png,332,5.0,1.2491309999022633,,013,1,2024-10-17_16h45.45.979,Surprise recog test,2023.1.3,59.95164295762369,
332,0,332,0,,,,,,,,,,,,,,,,,,,,,,,,,,,,,,,,,,,,946.3436988000758,947.3745512000751,944.7742594999727,944.7742594999727,944.7742594999727,944.7742594999727,old_fruit_13.png,333,1.0,1.5643859999254346,,013,1,2024-10-17_16h45.45.979,Surprise recog test,2023.1.3,59.95164295762369,
333,0,333,0,,,,,,,,,,,,,,,,,,,,,,,,,,,,,,,,,,,,949.1045659999363,950.1086136999074,947.3745512000751,947.3745512000751,947.3745512000751,947.3745512000751,new_stationery_48.png,334,5.0,1.7325836999807507,,013,1,2024-10-17_16h45.45.979,Surprise recog test,2023.1.3,59.95164295762369,
334,0,334,0,,,,,,,,,,,,,,,,,,,,,,,,,,,,,,,,,,,,951.0908536000643,952.1088217999786,950.1086136999074,950.1086136999074,950.1086136999074,950.1086136999074,old_sceneOut_15.png,335,5.0,0.9783733000513166,,013,1,2024-10-17_16h45.45.979,Surprise recog test,2023.1.3,59.95164295762369,
335,0,335,0,,,,,,,,,,,,,,,,,,,,,,,,,,,,,,,,,,,,953.1761239001062,954.1988488999195,952.1088217999786,952.1088217999786,952.1088217999786,952.1088217999786,new_sceneIn_35.png,336,5.0,1.0654637000989169,,013,1,2024-10-17_16h45.45.979,Surprise recog test,2023.1.3,59.95164295762369,
336,0,336,0,,,,,,,,,,,,,,,,,,,,,,,,,,,,,,,,,,,,956.2235012000892,957.2428293998819,954.1988488999195,954.1988488999195,954.1988488999195,954.1988488999195,new_fruit_4.png,337,4.0,2.027645800029859,,013,1,2024-10-17_16h45.45.979,Surprise recog test,2023.1.3,59.95164295762369,
337,0,337,0,,,,,,,,,,,,,,,,,,,,,,,,,,,,,,,,,,,,958.8531202999875,959.877299200045,957.2428293998819,957.2428293998819,957.2428293998819,957.2428293998819,new_fruit_38.png,338,3.0,1.6132224001921713,,013,1,2024-10-17_16h45.45.979,Surprise recog test,2023.1.3,59.95164295762369,
338,0,338,0,,,,,,,,,,,,,,,,,,,,,,,,,,,,,,,,,,,,961.6143730001058,962.6231853000354,959.877299200045,959.877299200045,959.877299200045,959.877299200045,new_sceneOut_41.png,339,3.0,1.727924699895084,,013,1,2024-10-17_16h45.45.979,Surprise recog test,2023.1.3,59.95164295762369,
339,0,339,0,,,,,,,,,,,,,,,,,,,,,,,,,,,,,,,,,,,,963.9633533000015,964.9903100000229,962.6231853000354,962.6231853000354,962.6231853000354,962.6231853000354,new_sceneIn_40.png,340,5.0,1.3359548000153154,,013,1,2024-10-17_16h45.45.979,Surprise recog test,2023.1.3,59.95164295762369,
340,0,340,0,,,,,,,,,,,,,,,,,,,,,,,,,,,,,,,,,,,,965.5755290000234,966.5929646999575,964.9903100000229,964.9903100000229,964.9903100000229,964.9903100000229,old_sceneOut_44.png,341,5.0,0.5866948999464512,,013,1,2024-10-17_16h45.45.979,Surprise recog test,2023.1.3,59.95164295762369,
341,0,341,0,,,,,,,,,,,,,,,,,,,,,,,,,,,,,,,,,,,,968.7979421999771,969.8127929000184,966.5929646999575,966.5929646999575,966.5929646999575,966.5929646999575,new_stationery_2.png,342,3.0,2.190593499923125,,013,1,2024-10-17_16h45.45.979,Surprise recog test,2023.1.3,59.95164295762369,
342,0,342,0,,,,,,,,,,,,,,,,,,,,,,,,,,,,,,,,,,,,971.1178536000662,972.1401166000869,969.8127929000184,969.8127929000184,969.8127929000184,969.8127929000184,new_sceneIn_24.png,343,4.0,1.300576499896124,,013,1,2024-10-17_16h45.45.979,Surprise recog test,2023.1.3,59.95164295762369,
343,0,343,0,,,,,,,,,,,,,,,,,,,,,,,,,,,,,,,,,,,,973.4575853000861,974.4664483999368,972.1401166000869,972.1401166000869,972.1401166000869,972.1401166000869,old_stationery_2.png,344,5.0,1.3159815000835806,,013,1,2024-10-17_16h45.45.979,Surprise recog test,2023.1.3,59.95164295762369,
344,0,344,0,,,,,,,,,,,,,,,,,,,,,,,,,,,,,,,,,,,,975.40051759989,976.4181804999243,974.4664483999368,974.4664483999368,974.4664483999368,974.4664483999368,new_stationery_36.png,345,5.0,0.9299528999254107,,013,1,2024-10-17_16h45.45.979,Surprise recog test,2023.1.3,59.95164295762369,
345,0,345,0,,,,,,,,,,,,,,,,,,,,,,,,,,,,,,,,,,,,977.8598879999481,978.8818850999232,976.4181804999243,976.4181804999243,976.4181804999243,976.4181804999243,new_fruit_33.png,346,5.0,1.4375188001431525,,013,1,2024-10-17_16h45.45.979,Surprise recog test,2023.1.3,59.95164295762369,
346,0,346,0,,,,,,,,,,,,,,,,,,,,,,,,,,,,,,,,,,,,979.7480291998945,980.7684730000328,978.8818850999232,978.8818850999232,978.8818850999232,978.8818850999232,old_sceneOut_20.png,347,5.0,0.8683672999031842,,013,1,2024-10-17_16h45.45.979,Surprise recog test,2023.1.3,59.95164295762369,
347,0,347,0,,,,,,,,,,,,,,,,,,,,,,,,,,,,,,,,,,,,981.5977024999447,982.6191499999259,980.7684730000328,980.7684730000328,980.7684730000328,980.7684730000328,old_sceneOut_25.png,348,5.0,0.8260815998073667,,013,1,2024-10-17_16h45.45.979,Surprise recog test,2023.1.3,59.95164295762369,
348,0,348,0,,,,,,,,,,,,,,,,,,,,,,,,,,,,,,,,,,,,983.4335151000414,984.4411579000298,982.6191499999259,982.6191499999259,982.6191499999259,982.6191499999259,new_sceneOut_16.png,349,5.0,0.8148862000089139,,013,1,2024-10-17_16h45.45.979,Surprise recog test,2023.1.3,59.95164295762369,
349,0,349,0,,,,,,,,,,,,,,,,,,,,,,,,,,,,,,,,,,,,985.0934824999422,986.1249770000577,984.4411579000298,984.4411579000298,984.4411579000298,984.4411579000298,new_sceneIn_49.png,350,5.0,0.6486158000770956,,013,1,2024-10-17_16h45.45.979,Surprise recog test,2023.1.3,59.95164295762369,
350,0,350,0,,,,,,,,,,,,,,,,,,,,,,,,,,,,,,,,,,,,988.5125851000194,989.5288499000017,986.1249770000577,986.1249770000577,986.1249770000577,986.1249770000577,old_fruit_14.png,351,4.0,2.390384499914944,,013,1,2024-10-17_16h45.45.979,Surprise recog test,2023.1.3,59.95164295762369,
351,0,351,0,,,,,,,,,,,,,,,,,,,,,,,,,,,,,,,,,,,,990.9067728000227,991.9143459999468,989.5288499000017,989.5288499000017,989.5288499000017,989.5288499000017,old_sceneIn_2.png,352,5.0,1.3719115999992937,,013,1,2024-10-17_16h45.45.979,Surprise recog test,2023.1.3,59.95164295762369,
352,0,352,0,,,,,,,,,,,,,,,,,,,,,,,,,,,,,,,,,,,,992.6605293001048,,991.9143459999468,991.9143459999468,991.9143459999468,991.9143459999468,new_sceneIn_29.png,353,5.0,0.7417514999397099,,013,1,2024-10-17_16h45.45.979,Surprise recog test,2023.1.3,59.95164295762369,
