trial_loop.thisRepN,trial_loop.thisTrialN,trial_loop.thisN,trial_loop.thisIndex,VAS_slider.started,VAS_text.started,VAS_notstressed_text.started,VAS_stressed_text.started,continue_input.started,continue_text.started,label0.started,label10.started,label20.started,label30.started,label40.started,label50.started,label60.started,label70.started,label80.started,label90.started,label100.started,VAS_slider.response,VAS_slider.rt,VAS_slider.history,Answer_VAS,continue_input.keys,instruction_text.started,continue_text_2.started,continue_input_2.started,continue_input_2.keys,continue_input_2.rt,continue_input_2.duration,example_text.started,example_slider_2.started,example_image.started,example_slider_2.response,example_slider_2.rt,fixcross.started,fixcross.stopped,front_square.started,stim_images.started,trial_inst_images.started,slider_images.started,thisImg,trial_count,slider_images.response,slider_images.rt,outro.started,participant,condition,date,expName,psychopyVersion,frameRate,
,,,,199.148128300003,199.148128300003,199.148128300003,199.148128300003,199.148128300003,199.148128300003,199.148128300003,199.148128300003,199.148128300003,199.148128300003,199.148128300003,199.148128300003,199.148128300003,199.148128300003,199.148128300003,199.148128300003,199.148128300003,1.9555555555555553,8.679193100018892,"[(1.9555555555555553, 8.679193100018892)]",1.9555555555555553,None,,,,,,,,,,,,,,,,,,,,,,,014,1,2024-10-30_14h02.26.552,Surprise recog test,2023.1.3,59.77579295694391,
,,,,,,,,,,,,,,,,,,,,,,,,,,207.85538019999512,207.85538019999512,207.85538019999512,space,26.57538939997903,None,,,,,,,,,,,,,,,,,014,1,2024-10-30_14h02.26.552,Surprise recog test,2023.1.3,59.77579295694391,
0,0,0,0,,,,,,,,,,,,,,,,,,,,,,,,,,,,,234.65860379999503,234.65860379999503,234.65860379999503,5.0,44.659800099994754,283.252917100006,280.20151330000954,280.20151330000954,280.20151330000954,280.20151330000954,280.20151330000954,new_sceneOut_28.png,1,4.0,3.0580708000052255,,014,1,2024-10-30_14h02.26.552,Surprise recog test,2023.1.3,59.77579295694391,
1,0,1,0,,,,,,,,,,,,,,,,,,,,,,,,,,,,,,,,,,286.5712079000077,,284.2851493000053,284.2851493000053,284.2851493000053,284.2851493000053,new_stationery_35.png,2,2.0,2.2892028000205755,,014,1,2024-10-30_14h02.26.552,Surprise recog test,2023.1.3,59.77579295694391,
2,0,2,0,,,,,,,,,,,,,,,,,,,,,,,,,,,,,,,,,,290.5191937999916,291.54585990001215,287.5925653000013,287.5925653000013,287.5925653000013,287.5925653000013,new_fruit_13.png,3,3.0,2.921804499987047,,014,1,2024-10-30_14h02.26.552,Surprise recog test,2023.1.3,59.77579295694391,
3,0,3,0,,,,,,,,,,,,,,,,,,,,,,,,,,,,,,,,,,293.80422349998844,294.8320742000069,291.54585990001215,291.54585990001215,291.54585990001215,291.54585990001215,new_stationery_25.png,4,5.0,2.261928399995668,,014,1,2024-10-30_14h02.26.552,Surprise recog test,2023.1.3,59.77579295694391,
4,0,4,0,,,,,,,,,,,,,,,,,,,,,,,,,,,,,,,,,,298.50868140000966,299.5198725000082,294.8320742000069,294.8320742000069,294.8320742000069,294.8320742000069,new_fruit_9.png,5,2.0,3.680430200009141,,014,1,2024-10-30_14h02.26.552,Surprise recog test,2023.1.3,59.77579295694391,
5,0,5,0,,,,,,,,,,,,,,,,,,,,,,,,,,,,,,,,,,302.18741159999627,303.2177926999866,299.5198725000082,299.5198725000082,299.5198725000082,299.5198725000082,old_sceneIn_1.png,6,5.0,2.661522399983369,,014,1,2024-10-30_14h02.26.552,Surprise recog test,2023.1.3,59.77579295694391,
6,0,6,0,,,,,,,,,,,,,,,,,,,,,,,,,,,,,,,,,,305.0563562999887,306.08302670001285,303.2177926999866,303.2177926999866,303.2177926999866,303.2177926999866,old_fruit_16.png,7,1.0,1.8391255000024103,,014,1,2024-10-30_14h02.26.552,Surprise recog test,2023.1.3,59.77579295694391,
7,0,7,0,,,,,,,,,,,,,,,,,,,,,,,,,,,,,,,,,,307.969383299991,308.9893343000149,306.08302670001285,306.08302670001285,306.08302670001285,306.08302670001285,new_stationery_44.png,8,4.0,1.8808756000071298,,014,1,2024-10-30_14h02.26.552,Surprise recog test,2023.1.3,59.77579295694391,
8,0,8,0,,,,,,,,,,,,,,,,,,,,,,,,,,,,,,,,,,310.9164021000033,311.94106250000186,308.9893343000149,308.9893343000149,308.9893343000149,308.9893343000149,old_stationery_41.png,9,2.0,1.9291265000065323,,014,1,2024-10-30_14h02.26.552,Surprise recog test,2023.1.3,59.77579295694391,
9,0,9,0,,,,,,,,,,,,,,,,,,,,,,,,,,,,,,,,,,314.33516740001505,315.3504957999976,311.94106250000186,311.94106250000186,311.94106250000186,311.94106250000186,old_sceneOut_1.png,10,5.0,2.395976100000553,,014,1,2024-10-30_14h02.26.552,Surprise recog test,2023.1.3,59.77579295694391,
10,0,10,0,,,,,,,,,,,,,,,,,,,,,,,,,,,,,,,,,,317.211898700014,318.2231858999876,315.3504957999976,315.3504957999976,315.3504957999976,315.3504957999976,new_fruit_20.png,11,4.0,1.858054699987406,,014,1,2024-10-30_14h02.26.552,Surprise recog test,2023.1.3,59.77579295694391,
11,0,11,0,,,,,,,,,,,,,,,,,,,,,,,,,,,,,,,,,,320.27968740000506,321.2967464000103,318.2231858999876,318.2231858999876,318.2231858999876,318.2231858999876,old_sceneIn_11.png,12,5.0,2.0561777999973856,,014,1,2024-10-30_14h02.26.552,Surprise recog test,2023.1.3,59.77579295694391,
12,0,12,0,,,,,,,,,,,,,,,,,,,,,,,,,,,,,,,,,,323.6151496999955,324.6354890000075,321.2967464000103,321.2967464000103,321.2967464000103,321.2967464000103,old_stationery_12.png,13,5.0,2.3174094000132754,,014,1,2024-10-30_14h02.26.552,Surprise recog test,2023.1.3,59.77579295694391,
13,0,13,0,,,,,,,,,,,,,,,,,,,,,,,,,,,,,,,,,,327.60064099999727,328.6241816999973,324.6354890000075,324.6354890000075,324.6354890000075,324.6354890000075,new_fruit_34.png,14,4.0,2.9647649999824353,,014,1,2024-10-30_14h02.26.552,Surprise recog test,2023.1.3,59.77579295694391,
14,0,14,0,,,,,,,,,,,,,,,,,,,,,,,,,,,,,,,,,,330.0523969999922,331.0765745000099,328.6241816999973,328.6241816999973,328.6241816999973,328.6241816999973,new_sceneOut_27.png,15,5.0,1.4301178000168875,,014,1,2024-10-30_14h02.26.552,Surprise recog test,2023.1.3,59.77579295694391,
15,0,15,0,,,,,,,,,,,,,,,,,,,,,,,,,,,,,,,,,,334.73937170000863,335.75902060000226,331.0765745000099,331.0765745000099,331.0765745000099,331.0765745000099,old_sceneIn_40.png,16,4.0,3.6663346999848727,,014,1,2024-10-30_14h02.26.552,Surprise recog test,2023.1.3,59.77579295694391,
16,0,16,0,,,,,,,,,,,,,,,,,,,,,,,,,,,,,,,,,,338.70490099999006,339.73150769999484,335.75902060000226,335.75902060000226,335.75902060000226,335.75902060000226,old_sceneOut_33.png,17,4.0,2.9459674000099767,,014,1,2024-10-30_14h02.26.552,Surprise recog test,2023.1.3,59.77579295694391,
17,0,17,0,,,,,,,,,,,,,,,,,,,,,,,,,,,,,,,,,,341.7272990999918,342.74853829998756,339.73150769999484,339.73150769999484,339.73150769999484,339.73150769999484,old_sceneIn_18.png,18,5.0,1.9979883999913,,014,1,2024-10-30_14h02.26.552,Surprise recog test,2023.1.3,59.77579295694391,
18,0,18,0,,,,,,,,,,,,,,,,,,,,,,,,,,,,,,,,,,344.43814069998916,345.4686881999951,342.74853829998756,342.74853829998756,342.74853829998756,342.74853829998756,new_stationery_19.png,19,4.0,1.69023219999508,,014,1,2024-10-30_14h02.26.552,Surprise recog test,2023.1.3,59.77579295694391,
19,0,19,0,,,,,,,,,,,,,,,,,,,,,,,,,,,,,,,,,,347.8722431999922,,345.4686881999951,345.4686881999951,345.4686881999951,345.4686881999951,old_stationery_4.png,20,3.0,2.405142400006298,,014,1,2024-10-30_14h02.26.552,Surprise recog test,2023.1.3,59.77579295694391,
20,0,20,0,,,,,,,,,,,,,,,,,,,,,,,,,,,,,,,,,,351.9911010999931,353.0094771999866,348.90946510000504,348.90946510000504,348.90946510000504,348.90946510000504,old_sceneIn_33.png,21,5.0,3.086923700000625,,014,1,2024-10-30_14h02.26.552,Surprise recog test,2023.1.3,59.77579295694391,
21,0,21,0,,,,,,,,,,,,,,,,,,,,,,,,,,,,,,,,,,354.888343300001,355.9148834999942,353.0094771999866,353.0094771999866,353.0094771999866,353.0094771999866,old_sceneOut_10.png,22,4.0,1.8805070999951568,,014,1,2024-10-30_14h02.26.552,Surprise recog test,2023.1.3,59.77579295694391,
22,0,22,0,,,,,,,,,,,,,,,,,,,,,,,,,,,,,,,,,,358.64498099999037,359.6635714000149,355.9148834999942,355.9148834999942,355.9148834999942,355.9148834999942,new_fruit_1.png,23,4.0,2.734770999988541,,014,1,2024-10-30_14h02.26.552,Surprise recog test,2023.1.3,59.77579295694391,
23,0,23,0,,,,,,,,,,,,,,,,,,,,,,,,,,,,,,,,,,362.366308800003,363.3757217999955,359.6635714000149,359.6635714000149,359.6635714000149,359.6635714000149,new_fruit_15.png,24,3.0,2.7062291000038385,,014,1,2024-10-30_14h02.26.552,Surprise recog test,2023.1.3,59.77579295694391,
24,0,24,0,,,,,,,,,,,,,,,,,,,,,,,,,,,,,,,,,,365.4182931999967,366.42956210000557,363.3757217999955,363.3757217999955,363.3757217999955,363.3757217999955,new_fruit_16.png,25,5.0,2.0374253999907523,,014,1,2024-10-30_14h02.26.552,Surprise recog test,2023.1.3,59.77579295694391,
25,0,25,0,,,,,,,,,,,,,,,,,,,,,,,,,,,,,,,,,,367.9671842000098,368.9739195999864,366.42956210000557,366.42956210000557,366.42956210000557,366.42956210000557,old_sceneOut_20.png,26,5.0,1.5270214000192937,,014,1,2024-10-30_14h02.26.552,Surprise recog test,2023.1.3,59.77579295694391,
26,0,26,0,,,,,,,,,,,,,,,,,,,,,,,,,,,,,,,,,,373.1235103000072,374.1289326999977,368.9739195999864,368.9739195999864,368.9739195999864,368.9739195999864,new_fruit_5.png,27,2.0,4.13979049999034,,014,1,2024-10-30_14h02.26.552,Surprise recog test,2023.1.3,59.77579295694391,
27,0,27,0,,,,,,,,,,,,,,,,,,,,,,,,,,,,,,,,,,375.64310580000165,376.64762910001446,374.1289326999977,374.1289326999977,374.1289326999977,374.1289326999977,new_stationery_37.png,28,5.0,1.5096002999925986,,014,1,2024-10-30_14h02.26.552,Surprise recog test,2023.1.3,59.77579295694391,
28,0,28,0,,,,,,,,,,,,,,,,,,,,,,,,,,,,,,,,,,378.01566699999967,379.0346147000091,376.64762910001446,376.64762910001446,376.64762910001446,376.64762910001446,new_stationery_26.png,29,5.0,1.3620979999832343,,014,1,2024-10-30_14h02.26.552,Surprise recog test,2023.1.3,59.77579295694391,
29,0,29,0,,,,,,,,,,,,,,,,,,,,,,,,,,,,,,,,,,381.3665828999947,,379.0346147000091,379.0346147000091,379.0346147000091,379.0346147000091,new_fruit_3.png,30,4.0,2.3282013999996707,,014,1,2024-10-30_14h02.26.552,Surprise recog test,2023.1.3,59.77579295694391,
30,0,30,0,,,,,,,,,,,,,,,,,,,,,,,,,,,,,,,,,,384.46052759999293,385.4712881000014,382.3855679999979,382.3855679999979,382.3855679999979,382.3855679999979,new_stationery_10.png,31,5.0,2.0699604999972507,,014,1,2024-10-30_14h02.26.552,Surprise recog test,2023.1.3,59.77579295694391,
31,0,31,0,,,,,,,,,,,,,,,,,,,,,,,,,,,,,,,,,,387.7449628000031,388.76095930000884,385.4712881000014,385.4712881000014,385.4712881000014,385.4712881000014,new_stationery_12.png,32,2.0,2.268337799992878,,014,1,2024-10-30_14h02.26.552,Surprise recog test,2023.1.3,59.77579295694391,
32,0,32,0,,,,,,,,,,,,,,,,,,,,,,,,,,,,,,,,,,390.322178500006,391.34786700000404,388.76095930000884,388.76095930000884,388.76095930000884,388.76095930000884,new_fruit_43.png,33,5.0,1.556132500001695,,014,1,2024-10-30_14h02.26.552,Surprise recog test,2023.1.3,59.77579295694391,
33,0,33,0,,,,,,,,,,,,,,,,,,,,,,,,,,,,,,,,,,392.14479729998857,393.1771866999916,391.34786700000404,391.34786700000404,391.34786700000404,391.34786700000404,new_sceneIn_36.png,34,5.0,0.8002784999844152,,014,1,2024-10-30_14h02.26.552,Surprise recog test,2023.1.3,59.77579295694391,
34,0,34,0,,,,,,,,,,,,,,,,,,,,,,,,,,,,,,,,,,396.6931723000016,397.7021187999926,393.1771866999916,393.1771866999916,393.1771866999916,393.1771866999916,new_stationery_2.png,35,3.0,3.5168104999756906,,014,1,2024-10-30_14h02.26.552,Surprise recog test,2023.1.3,59.77579295694391,
35,0,35,0,,,,,,,,,,,,,,,,,,,,,,,,,,,,,,,,,,399.9464889999945,400.96604769999976,397.7021187999926,397.7021187999926,397.7021187999926,397.7021187999926,new_sceneOut_12.png,36,4.0,2.237669199996162,,014,1,2024-10-30_14h02.26.552,Surprise recog test,2023.1.3,59.77579295694391,
36,0,36,0,,,,,,,,,,,,,,,,,,,,,,,,,,,,,,,,,,403.36552839999786,404.38810929999454,400.96604769999976,400.96604769999976,400.96604769999976,400.96604769999976,old_sceneOut_34.png,37,2.0,2.401640600000974,,014,1,2024-10-30_14h02.26.552,Surprise recog test,2023.1.3,59.77579295694391,
37,0,37,0,,,,,,,,,,,,,,,,,,,,,,,,,,,,,,,,,,406.2666997000051,407.2859579999931,404.38810929999454,404.38810929999454,404.38810929999454,404.38810929999454,new_fruit_40.png,38,4.0,1.8795070000051055,,014,1,2024-10-30_14h02.26.552,Surprise recog test,2023.1.3,59.77579295694391,
38,0,38,0,,,,,,,,,,,,,,,,,,,,,,,,,,,,,,,,,,408.6865850999893,409.7065292999905,407.2859579999931,407.2859579999931,407.2859579999931,407.2859579999931,new_stationery_40.png,39,5.0,1.3966740999894682,,014,1,2024-10-30_14h02.26.552,Surprise recog test,2023.1.3,59.77579295694391,
39,0,39,0,,,,,,,,,,,,,,,,,,,,,,,,,,,,,,,,,,411.3314750000136,412.3594916999864,409.7065292999905,409.7065292999905,409.7065292999905,409.7065292999905,old_fruit_18.png,40,1.0,1.6270607000042219,,014,1,2024-10-30_14h02.26.552,Surprise recog test,2023.1.3,59.77579295694391,
40,0,40,0,,,,,,,,,,,,,,,,,,,,,,,,,,,,,,,,,,414.3412612999964,415.3458638000011,412.3594916999864,412.3594916999864,412.3594916999864,412.3594916999864,new_fruit_31.png,41,2.0,1.978501999983564,,014,1,2024-10-30_14h02.26.552,Surprise recog test,2023.1.3,59.77579295694391,
41,0,41,0,,,,,,,,,,,,,,,,,,,,,,,,,,,,,,,,,,416.8599871000042,417.8663179000141,415.3458638000011,415.3458638000011,415.3458638000011,415.3458638000011,old_stationery_32.png,42,3.0,1.5036389000015333,,014,1,2024-10-30_14h02.26.552,Surprise recog test,2023.1.3,59.77579295694391,
42,0,42,0,,,,,,,,,,,,,,,,,,,,,,,,,,,,,,,,,,420.095966199995,421.1007963999873,417.8663179000141,417.8663179000141,417.8663179000141,417.8663179000141,new_sceneOut_50.png,43,5.0,2.219312800007174,,014,1,2024-10-30_14h02.26.552,Surprise recog test,2023.1.3,59.77579295694391,
43,0,43,0,,,,,,,,,,,,,,,,,,,,,,,,,,,,,,,,,,422.6814699000097,423.68571079999674,421.1007963999873,421.1007963999873,421.1007963999873,421.1007963999873,new_sceneOut_41.png,44,1.0,1.5708425999910105,,014,1,2024-10-30_14h02.26.552,Surprise recog test,2023.1.3,59.77579295694391,
44,0,44,0,,,,,,,,,,,,,,,,,,,,,,,,,,,,,,,,,,425.83400930001517,426.8393536999938,423.68571079999674,423.68571079999674,423.68571079999674,423.68571079999674,new_stationery_21.png,45,4.0,2.1376630000013392,,014,1,2024-10-30_14h02.26.552,Surprise recog test,2023.1.3,59.77579295694391,
45,0,45,0,,,,,,,,,,,,,,,,,,,,,,,,,,,,,,,,,,429.1535191000148,430.15838070001337,426.8393536999938,426.8393536999938,426.8393536999938,426.8393536999938,new_sceneIn_4.png,46,5.0,2.3036215000029188,,014,1,2024-10-30_14h02.26.552,Surprise recog test,2023.1.3,59.77579295694391,
46,0,46,0,,,,,,,,,,,,,,,,,,,,,,,,,,,,,,,,,,432.5729730000021,433.5784871999931,430.15838070001337,430.15838070001337,430.15838070001337,430.15838070001337,new_fruit_45.png,47,4.0,2.404388499999186,,014,1,2024-10-30_14h02.26.552,Surprise recog test,2023.1.3,59.77579295694391,
47,0,47,0,,,,,,,,,,,,,,,,,,,,,,,,,,,,,,,,,,435.94239630000084,436.9479243000096,433.5784871999931,433.5784871999931,433.5784871999931,433.5784871999931,old_stationery_25.png,48,2.0,2.358826899988344,,014,1,2024-10-30_14h02.26.552,Surprise recog test,2023.1.3,59.77579295694391,
48,0,48,0,,,,,,,,,,,,,,,,,,,,,,,,,,,,,,,,,,438.5994459000067,439.6169380999927,436.9479243000096,436.9479243000096,436.9479243000096,436.9479243000096,old_stationery_30.png,49,4.0,1.647498700011056,,014,1,2024-10-30_14h02.26.552,Surprise recog test,2023.1.3,59.77579295694391,
49,0,49,0,,,,,,,,,,,,,,,,,,,,,,,,,,,,,,,,,,441.6971928999992,442.7034675999894,439.6169380999927,439.6169380999927,439.6169380999927,439.6169380999927,old_stationery_48.png,50,3.0,2.0735610999981873,,014,1,2024-10-30_14h02.26.552,Surprise recog test,2023.1.3,59.77579295694391,
50,0,50,0,,,,,,,,,,,,,,,,,,,,,,,,,,,,,,,,,,445.2045182000147,446.22208199999295,442.7034675999894,442.7034675999894,442.7034675999894,442.7034675999894,old_sceneOut_22.png,51,3.0,2.496798599982867,,014,1,2024-10-30_14h02.26.552,Surprise recog test,2023.1.3,59.77579295694391,
51,0,51,0,,,,,,,,,,,,,,,,,,,,,,,,,,,,,,,,,,448.56969189998927,449.57619140000315,446.22208199999295,446.22208199999295,446.22208199999295,446.22208199999295,new_fruit_35.png,52,4.0,2.337707300001057,,014,1,2024-10-30_14h02.26.552,Surprise recog test,2023.1.3,59.77579295694391,
52,0,52,0,,,,,,,,,,,,,,,,,,,,,,,,,,,,,,,,,,451.0383848999918,452.04395749999094,449.57619140000315,449.57619140000315,449.57619140000315,449.57619140000315,old_sceneOut_27.png,53,5.0,1.4539760000188835,,014,1,2024-10-30_14h02.26.552,Surprise recog test,2023.1.3,59.77579295694391,
53,0,53,0,,,,,,,,,,,,,,,,,,,,,,,,,,,,,,,,,,453.1400738999946,454.1504744999984,452.04395749999094,452.04395749999094,452.04395749999094,452.04395749999094,old_sceneIn_24.png,54,5.0,1.0914055000175722,,014,1,2024-10-30_14h02.26.552,Surprise recog test,2023.1.3,59.77579295694391,
54,0,54,0,,,,,,,,,,,,,,,,,,,,,,,,,,,,,,,,,,456.7263702999917,457.7345944000117,454.1504744999984,454.1504744999984,454.1504744999984,454.1504744999984,old_stationery_33.png,55,2.0,2.5729711999883875,,014,1,2024-10-30_14h02.26.552,Surprise recog test,2023.1.3,59.77579295694391,
55,0,55,0,,,,,,,,,,,,,,,,,,,,,,,,,,,,,,,,,,460.41278710000915,461.41944749999675,457.7345944000117,457.7345944000117,457.7345944000117,457.7345944000117,new_sceneIn_23.png,56,3.0,2.673251500003971,,014,1,2024-10-30_14h02.26.552,Surprise recog test,2023.1.3,59.77579295694391,
56,0,56,0,,,,,,,,,,,,,,,,,,,,,,,,,,,,,,,,,,464.3994219999877,465.40524029999506,461.41944749999675,461.41944749999675,461.41944749999675,461.41944749999675,old_sceneOut_38.png,57,4.0,2.9750487999990582,,014,1,2024-10-30_14h02.26.552,Surprise recog test,2023.1.3,59.77579295694391,
57,0,57,0,,,,,,,,,,,,,,,,,,,,,,,,,,,,,,,,,,466.90149160000146,467.9070575000078,465.40524029999506,465.40524029999506,465.40524029999506,465.40524029999506,new_sceneOut_42.png,58,5.0,1.4906153000192717,,014,1,2024-10-30_14h02.26.552,Surprise recog test,2023.1.3,59.77579295694391,
58,0,58,0,,,,,,,,,,,,,,,,,,,,,,,,,,,,,,,,,,470.4268846999912,471.444571,467.9070575000078,467.9070575000078,467.9070575000078,467.9070575000078,old_sceneIn_13.png,59,2.0,2.506627499999013,,014,1,2024-10-30_14h02.26.552,Surprise recog test,2023.1.3,59.77579295694391,
59,0,59,0,,,,,,,,,,,,,,,,,,,,,,,,,,,,,,,,,,473.2734874000016,474.2804971000005,471.444571,471.444571,471.444571,471.444571,new_sceneIn_50.png,60,4.0,1.8236031999986153,,014,1,2024-10-30_14h02.26.552,Surprise recog test,2023.1.3,59.77579295694391,
60,0,60,0,,,,,,,,,,,,,,,,,,,,,,,,,,,,,,,,,,477.226762300008,478.232233799994,474.2804971000005,474.2804971000005,474.2804971000005,474.2804971000005,old_sceneIn_7.png,61,5.0,2.9397758999839425,,014,1,2024-10-30_14h02.26.552,Surprise recog test,2023.1.3,59.77579295694391,
61,0,61,0,,,,,,,,,,,,,,,,,,,,,,,,,,,,,,,,,,480.363002099999,481.36836150000454,478.232233799994,478.232233799994,478.232233799994,478.232233799994,old_fruit_29.png,62,2.0,2.12432699999772,,014,1,2024-10-30_14h02.26.552,Surprise recog test,2023.1.3,59.77579295694391,
62,0,62,0,,,,,,,,,,,,,,,,,,,,,,,,,,,,,,,,,,484.1325049000152,485.1385383000015,481.36836150000454,481.36836150000454,481.36836150000454,481.36836150000454,new_sceneOut_26.png,63,4.0,2.757045400008792,,014,1,2024-10-30_14h02.26.552,Surprise recog test,2023.1.3,59.77579295694391,
63,0,63,0,,,,,,,,,,,,,,,,,,,,,,,,,,,,,,,,,,486.48477770001045,487.490343100013,485.1385383000015,485.1385383000015,485.1385383000015,485.1385383000015,old_fruit_22.png,64,1.0,1.340833800000837,,014,1,2024-10-30_14h02.26.552,Surprise recog test,2023.1.3,59.77579295694391,
64,0,64,0,,,,,,,,,,,,,,,,,,,,,,,,,,,,,,,,,,490.42106039999635,491.4263706000056,487.490343100013,487.490343100013,487.490343100013,487.490343100013,new_stationery_38.png,65,3.0,2.9225775999948382,,014,1,2024-10-30_14h02.26.552,Surprise recog test,2023.1.3,59.77579295694391,
65,0,65,0,,,,,,,,,,,,,,,,,,,,,,,,,,,,,,,,,,493.2073773999873,494.2120302999974,491.4263706000056,491.4263706000056,491.4263706000056,491.4263706000056,old_sceneOut_29.png,66,5.0,1.776289800007362,,014,1,2024-10-30_14h02.26.552,Surprise recog test,2023.1.3,59.77579295694391,
66,0,66,0,,,,,,,,,,,,,,,,,,,,,,,,,,,,,,,,,,496.32602040001075,497.33171339999535,494.2120302999974,494.2120302999974,494.2120302999974,494.2120302999974,old_sceneIn_31.png,67,4.0,2.104500999994343,,014,1,2024-10-30_14h02.26.552,Surprise recog test,2023.1.3,59.77579295694391,
67,0,67,0,,,,,,,,,,,,,,,,,,,,,,,,,,,,,,,,,,498.7114619000058,499.71670489999815,497.33171339999535,497.33171339999535,497.33171339999535,497.33171339999535,old_sceneOut_19.png,68,5.0,1.3721383000083733,,014,1,2024-10-30_14h02.26.552,Surprise recog test,2023.1.3,59.77579295694391,
68,0,68,0,,,,,,,,,,,,,,,,,,,,,,,,,,,,,,,,,,501.18016160000116,502.18510199998855,499.71670489999815,499.71670489999815,499.71670489999815,499.71670489999815,old_sceneIn_29.png,69,5.0,1.4537670999998227,,014,1,2024-10-30_14h02.26.552,Surprise recog test,2023.1.3,59.77579295694391,
69,0,69,0,,,,,,,,,,,,,,,,,,,,,,,,,,,,,,,,,,505.0333888999885,506.0541849999863,502.18510199998855,502.18510199998855,502.18510199998855,502.18510199998855,old_stationery_35.png,70,3.0,2.842631600011373,,014,1,2024-10-30_14h02.26.552,Surprise recog test,2023.1.3,59.77579295694391,
70,0,70,0,,,,,,,,,,,,,,,,,,,,,,,,,,,,,,,,,,507.53566679998767,508.54073300000164,506.0541849999863,506.0541849999863,506.0541849999863,506.0541849999863,new_stationery_20.png,71,5.0,1.4825162999914028,,014,1,2024-10-30_14h02.26.552,Surprise recog test,2023.1.3,59.77579295694391,
71,0,71,0,,,,,,,,,,,,,,,,,,,,,,,,,,,,,,,,,,511.22389100000146,,508.54073300000164,508.54073300000164,508.54073300000164,508.54073300000164,old_sceneIn_2.png,72,2.0,2.6781717000121716,,014,1,2024-10-30_14h02.26.552,Surprise recog test,2023.1.3,59.77579295694391,
72,0,72,0,,,,,,,,,,,,,,,,,,,,,,,,,,,,,,,,,,514.3028091999877,515.3135718000121,512.2454314999923,512.2454314999923,512.2454314999923,512.2454314999923,new_sceneOut_39.png,73,4.0,2.0498297000012826,,014,1,2024-10-30_14h02.26.552,Surprise recog test,2023.1.3,59.77579295694391,
73,0,73,0,,,,,,,,,,,,,,,,,,,,,,,,,,,,,,,,,,516.5753260999918,517.5850335000141,515.3135718000121,515.3135718000121,515.3135718000121,515.3135718000121,old_sceneIn_15.png,74,5.0,1.2561041000008117,,014,1,2024-10-30_14h02.26.552,Surprise recog test,2023.1.3,59.77579295694391,
74,0,74,0,,,,,,,,,,,,,,,,,,,,,,,,,,,,,,,,,,519.8624005999882,520.8882598000055,517.5850335000141,517.5850335000141,517.5850335000141,517.5850335000141,new_fruit_19.png,75,5.0,2.2709255999943707,,014,1,2024-10-30_14h02.26.552,Surprise recog test,2023.1.3,59.77579295694391,
75,0,75,0,,,,,,,,,,,,,,,,,,,,,,,,,,,,,,,,,,523.2859052999993,,520.8882598000055,520.8882598000055,520.8882598000055,520.8882598000055,new_stationery_11.png,76,2.0,2.4032748000172433,,014,1,2024-10-30_14h02.26.552,Surprise recog test,2023.1.3,59.77579295694391,
76,0,76,0,,,,,,,,,,,,,,,,,,,,,,,,,,,,,,,,,,526.8515618999954,527.8718932000047,524.3133783999947,524.3133783999947,524.3133783999947,524.3133783999947,new_sceneOut_49.png,77,3.0,2.538610500021605,,014,1,2024-10-30_14h02.26.552,Surprise recog test,2023.1.3,59.77579295694391,
77,0,77,0,,,,,,,,,,,,,,,,,,,,,,,,,,,,,,,,,,529.270121700014,530.2746463000076,527.8718932000047,527.8718932000047,527.8718932000047,527.8718932000047,new_stationery_32.png,78,5.0,1.39341359998798,,014,1,2024-10-30_14h02.26.552,Surprise recog test,2023.1.3,59.77579295694391,
78,0,78,0,,,,,,,,,,,,,,,,,,,,,,,,,,,,,,,,,,531.7859392999962,532.7979429000115,530.2746463000076,530.2746463000076,530.2746463000076,530.2746463000076,new_sceneOut_40.png,79,5.0,1.5075112000049558,,014,1,2024-10-30_14h02.26.552,Surprise recog test,2023.1.3,59.77579295694391,
79,0,79,0,,,,,,,,,,,,,,,,,,,,,,,,,,,,,,,,,,534.6638513999933,535.6984083999996,532.7979429000115,532.7979429000115,532.7979429000115,532.7979429000115,new_fruit_44.png,80,3.0,1.862574200000381,,014,1,2024-10-30_14h02.26.552,Surprise recog test,2023.1.3,59.77579295694391,
80,0,80,0,,,,,,,,,,,,,,,,,,,,,,,,,,,,,,,,,,537.6996185999888,538.7290787000093,535.6984083999996,535.6984083999996,535.6984083999996,535.6984083999996,old_fruit_41.png,81,2.0,2.0033168999943882,,014,1,2024-10-30_14h02.26.552,Surprise recog test,2023.1.3,59.77579295694391,
81,0,81,0,,,,,,,,,,,,,,,,,,,,,,,,,,,,,,,,,,540.6790565999981,541.6997050000064,538.7290787000093,538.7290787000093,538.7290787000093,538.7290787000093,new_sceneOut_33.png,82,1.0,1.9504525999946054,,014,1,2024-10-30_14h02.26.552,Surprise recog test,2023.1.3,59.77579295694391,
82,0,82,0,,,,,,,,,,,,,,,,,,,,,,,,,,,,,,,,,,544.001483,,541.6997050000064,541.6997050000064,541.6997050000064,541.6997050000064,new_sceneIn_34.png,83,4.0,2.3003244000137784,,014,1,2024-10-30_14h02.26.552,Surprise recog test,2023.1.3,59.77579295694391,
83,0,83,0,,,,,,,,,,,,,,,,,,,,,,,,,,,,,,,,,,546.8815274999943,547.9018448000134,545.0373591000098,545.0373591000098,545.0373591000098,545.0373591000098,old_sceneOut_2.png,84,5.0,1.8461698000028264,,014,1,2024-10-30_14h02.26.552,Surprise recog test,2023.1.3,59.77579295694391,
84,0,84,0,,,,,,,,,,,,,,,,,,,,,,,,,,,,,,,,,,550.3451605000009,551.3710097000003,547.9018448000134,547.9018448000134,547.9018448000134,547.9018448000134,new_fruit_7.png,85,3.0,2.445860999985598,,014,1,2024-10-30_14h02.26.552,Surprise recog test,2023.1.3,59.77579295694391,
85,0,85,0,,,,,,,,,,,,,,,,,,,,,,,,,,,,,,,,,,553.494108599989,,551.3710097000003,551.3710097000003,551.3710097000003,551.3710097000003,old_stationery_6.png,86,3.0,2.1224423999956343,,014,1,2024-10-30_14h02.26.552,Surprise recog test,2023.1.3,59.77579295694391,
86,0,86,0,,,,,,,,,,,,,,,,,,,,,,,,,,,,,,,,,,556.4246871999931,557.4443375999981,554.5232393000042,554.5232393000042,554.5232393000042,554.5232393000042,old_fruit_47.png,87,1.0,1.9026996000029612,,014,1,2024-10-30_14h02.26.552,Surprise recog test,2023.1.3,59.77579295694391,
87,0,87,0,,,,,,,,,,,,,,,,,,,,,,,,,,,,,,,,,,559.31341599999,560.3322431000124,557.4443375999981,557.4443375999981,557.4443375999981,557.4443375999981,new_stationery_4.png,88,3.0,1.870977500017034,,014,1,2024-10-30_14h02.26.552,Surprise recog test,2023.1.3,59.77579295694391,
88,0,88,0,,,,,,,,,,,,,,,,,,,,,,,,,,,,,,,,,,561.7872184999869,562.8044452999893,560.3322431000124,560.3322431000124,560.3322431000124,560.3322431000124,old_sceneOut_26.png,89,4.0,1.458806699985871,,014,1,2024-10-30_14h02.26.552,Surprise recog test,2023.1.3,59.77579295694391,
89,0,89,0,,,,,,,,,,,,,,,,,,,,,,,,,,,,,,,,,,564.0193683000107,,562.8044452999893,562.8044452999893,562.8044452999893,562.8044452999893,old_stationery_16.png,90,5.0,1.2109356000146363,,014,1,2024-10-30_14h02.26.552,Surprise recog test,2023.1.3,59.77579295694391,
90,0,90,0,,,,,,,,,,,,,,,,,,,,,,,,,,,,,,,,,,565.9673388999945,566.9799811000121,565.0375976999931,565.0375976999931,565.0375976999931,565.0375976999931,new_sceneOut_6.png,91,5.0,0.9203250999853481,,014,1,2024-10-30_14h02.26.552,Surprise recog test,2023.1.3,59.77579295694391,
91,0,91,0,,,,,,,,,,,,,,,,,,,,,,,,,,,,,,,,,,568.506773400004,,566.9799811000121,566.9799811000121,566.9799811000121,566.9799811000121,new_sceneOut_11.png,92,5.0,1.5237233999941964,,014,1,2024-10-30_14h02.26.552,Surprise recog test,2023.1.3,59.77579295694391,
92,0,92,0,,,,,,,,,,,,,,,,,,,,,,,,,,,,,,,,,,571.0736700000125,,569.5364579999878,569.5364579999878,569.5364579999878,569.5364579999878,old_sceneOut_43.png,93,5.0,1.5391409000148997,,014,1,2024-10-30_14h02.26.552,Surprise recog test,2023.1.3,59.77579295694391,
93,0,93,0,,,,,,,,,,,,,,,,,,,,,,,,,,,,,,,,,,574.0679692999984,575.0805058999977,572.0935801999876,572.0935801999876,572.0935801999876,572.0935801999876,new_sceneIn_40.png,94,5.0,1.97050679998938,,014,1,2024-10-30_14h02.26.552,Surprise recog test,2023.1.3,59.77579295694391,
94,0,94,0,,,,,,,,,,,,,,,,,,,,,,,,,,,,,,,,,,576.3923714999983,577.4100906999956,575.0805058999977,575.0805058999977,575.0805058999977,575.0805058999977,new_sceneOut_36.png,95,5.0,1.3047659000148997,,014,1,2024-10-30_14h02.26.552,Surprise recog test,2023.1.3,59.77579295694391,
95,0,95,0,,,,,,,,,,,,,,,,,,,,,,,,,,,,,,,,,,579.0115824000095,580.0330523999874,577.4100906999956,577.4100906999956,577.4100906999956,577.4100906999956,new_sceneIn_1.png,96,5.0,1.6034211000078358,,014,1,2024-10-30_14h02.26.552,Surprise recog test,2023.1.3,59.77579295694391,
96,0,96,0,,,,,,,,,,,,,,,,,,,,,,,,,,,,,,,,,,582.6312808000075,583.6385211999877,580.0330523999874,580.0330523999874,580.0330523999874,580.0330523999874,new_fruit_6.png,97,3.0,2.5950646999990568,,014,1,2024-10-30_14h02.26.552,Surprise recog test,2023.1.3,59.77579295694391,
97,0,97,0,,,,,,,,,,,,,,,,,,,,,,,,,,,,,,,,,,585.1166525000008,586.1360910999938,583.6385211999877,583.6385211999877,583.6385211999877,583.6385211999877,old_fruit_1.png,98,3.0,1.46887229999993,,014,1,2024-10-30_14h02.26.552,Surprise recog test,2023.1.3,59.77579295694391,
98,0,98,0,,,,,,,,,,,,,,,,,,,,,,,,,,,,,,,,,,588.5702590000001,589.578175600007,586.1360910999938,586.1360910999938,586.1360910999938,586.1360910999938,old_stationery_5.png,99,2.0,2.4361641999857966,,014,1,2024-10-30_14h02.26.552,Surprise recog test,2023.1.3,59.77579295694391,
99,0,99,0,,,,,,,,,,,,,,,,,,,,,,,,,,,,,,,,,,590.8960132999928,591.9265056999866,589.578175600007,589.578175600007,589.578175600007,589.578175600007,new_sceneIn_33.png,100,5.0,1.313409300026251,,014,1,2024-10-30_14h02.26.552,Surprise recog test,2023.1.3,59.77579295694391,
100,0,100,0,,,,,,,,,,,,,,,,,,,,,,,,,,,,,,,,,,594.7413792000152,595.7678873999976,591.9265056999866,591.9265056999866,591.9265056999866,591.9265056999866,new_sceneIn_18.png,101,4.0,2.8105478000070434,,014,1,2024-10-30_14h02.26.552,Surprise recog test,2023.1.3,59.77579295694391,
101,0,101,0,,,,,,,,,,,,,,,,,,,,,,,,,,,,,,,,,,597.3553939000121,598.3783360999951,595.7678873999976,595.7678873999976,595.7678873999976,595.7678873999976,new_sceneOut_46.png,102,1.0,1.5905425999953877,,014,1,2024-10-30_14h02.26.552,Surprise recog test,2023.1.3,59.77579295694391,
102,0,102,0,,,,,,,,,,,,,,,,,,,,,,,,,,,,,,,,,,600.325179300009,601.3436231999949,598.3783360999951,598.3783360999951,598.3783360999951,598.3783360999951,old_fruit_13.png,103,1.0,1.9479848999762908,,014,1,2024-10-30_14h02.26.552,Surprise recog test,2023.1.3,59.77579295694391,
103,0,103,0,,,,,,,,,,,,,,,,,,,,,,,,,,,,,,,,,,603.04147560001,604.0574212000065,601.3436231999949,601.3436231999949,601.3436231999949,601.3436231999949,new_sceneIn_49.png,104,1.0,1.6989081999927294,,014,1,2024-10-30_14h02.26.552,Surprise recog test,2023.1.3,59.77579295694391,
104,0,104,0,,,,,,,,,,,,,,,,,,,,,,,,,,,,,,,,,,605.9193005000125,,604.0574212000065,604.0574212000065,604.0574212000065,604.0574212000065,old_sceneOut_11.png,105,1.0,1.8575068000063766,,014,1,2024-10-30_14h02.26.552,Surprise recog test,2023.1.3,59.77579295694391,
105,0,105,0,,,,,,,,,,,,,,,,,,,,,,,,,,,,,,,,,,609.008410999988,610.0271085000131,606.9548469000147,606.9548469000147,606.9548469000147,606.9548469000147,new_sceneOut_47.png,106,5.0,2.0556472999742255,,014,1,2024-10-30_14h02.26.552,Surprise recog test,2023.1.3,59.77579295694391,
106,0,106,0,,,,,,,,,,,,,,,,,,,,,,,,,,,,,,,,,,611.0470565000142,612.0716385999986,610.0271085000131,610.0271085000131,610.0271085000131,610.0271085000131,new_stationery_29.png,107,5.0,1.0156483000027947,,014,1,2024-10-30_14h02.26.552,Surprise recog test,2023.1.3,59.77579295694391,
107,0,107,0,,,,,,,,,,,,,,,,,,,,,,,,,,,,,,,,,,614.7015395000053,615.7171689000097,612.0716385999986,612.0716385999986,612.0716385999986,612.0716385999986,new_sceneIn_7.png,108,4.0,2.630051199987065,,014,1,2024-10-30_14h02.26.552,Surprise recog test,2023.1.3,59.77579295694391,
108,0,108,0,,,,,,,,,,,,,,,,,,,,,,,,,,,,,,,,,,616.9939962000062,617.9993560000148,615.7171689000097,615.7171689000097,615.7171689000097,615.7171689000097,new_fruit_18.png,109,1.0,1.2745835999958217,,014,1,2024-10-30_14h02.26.552,Surprise recog test,2023.1.3,59.77579295694391,
109,0,109,0,,,,,,,,,,,,,,,,,,,,,,,,,,,,,,,,,,619.718527399993,620.7437269999937,617.9993560000148,617.9993560000148,617.9993560000148,617.9993560000148,new_sceneOut_35.png,110,2.0,1.7163571999990381,,014,1,2024-10-30_14h02.26.552,Surprise recog test,2023.1.3,59.77579295694391,
110,0,110,0,,,,,,,,,,,,,,,,,,,,,,,,,,,,,,,,,,622.0140484999865,623.01897070001,620.7437269999937,620.7437269999937,620.7437269999937,620.7437269999937,old_stationery_18.png,111,1.0,1.2654181999969296,,014,1,2024-10-30_14h02.26.552,Surprise recog test,2023.1.3,59.77579295694391,
111,0,111,0,,,,,,,,,,,,,,,,,,,,,,,,,,,,,,,,,,625.5858111999987,,623.01897070001,623.01897070001,623.01897070001,623.01897070001,new_stationery_1.png,112,2.0,2.5615248000249267,,014,1,2024-10-30_14h02.26.552,Surprise recog test,2023.1.3,59.77579295694391,
112,0,112,0,,,,,,,,,,,,,,,,,,,,,,,,,,,,,,,,,,628.4898523000011,,626.6198479000013,626.6198479000013,626.6198479000013,626.6198479000013,old_stationery_2.png,113,4.0,1.8719567999942228,,014,1,2024-10-30_14h02.26.552,Surprise recog test,2023.1.3,59.77579295694391,
113,0,113,0,,,,,,,,,,,,,,,,,,,,,,,,,,,,,,,,,,630.8846960999945,631.909816600004,629.5226261999924,629.5226261999924,629.5226261999924,629.5226261999924,new_sceneIn_44.png,114,5.0,1.3635677999991458,,014,1,2024-10-30_14h02.26.552,Surprise recog test,2023.1.3,59.77579295694391,
114,0,114,0,,,,,,,,,,,,,,,,,,,,,,,,,,,,,,,,,,633.8681734999991,634.8810478000087,631.909816600004,631.909816600004,631.909816600004,631.909816600004,new_sceneOut_29.png,115,5.0,1.9606733999971766,,014,1,2024-10-30_14h02.26.552,Surprise recog test,2023.1.3,59.77579295694391,
115,0,115,0,,,,,,,,,,,,,,,,,,,,,,,,,,,,,,,,,,635.720988999994,636.746232400008,634.8810478000087,634.8810478000087,634.8810478000087,634.8810478000087,new_sceneOut_37.png,116,5.0,0.8354775999905542,,014,1,2024-10-30_14h02.26.552,Surprise recog test,2023.1.3,59.77579295694391,
116,0,116,0,,,,,,,,,,,,,,,,,,,,,,,,,,,,,,,,,,638.9855580999865,640.0099880000053,636.746232400008,636.746232400008,636.746232400008,636.746232400008,old_stationery_46.png,117,1.0,2.241054799989797,,014,1,2024-10-30_14h02.26.552,Surprise recog test,2023.1.3,59.77579295694391,
117,0,117,0,,,,,,,,,,,,,,,,,,,,,,,,,,,,,,,,,,641.9555424000137,642.9783002999902,640.0099880000053,640.0099880000053,640.0099880000053,640.0099880000053,old_sceneOut_37.png,118,3.0,1.9471412999846507,,014,1,2024-10-30_14h02.26.552,Surprise recog test,2023.1.3,59.77579295694391,
118,0,118,0,,,,,,,,,,,,,,,,,,,,,,,,,,,,,,,,,,644.8102080000099,645.835359699995,642.9783002999902,642.9783002999902,642.9783002999902,642.9783002999902,old_sceneOut_39.png,119,4.0,1.8306448999792337,,014,1,2024-10-30_14h02.26.552,Surprise recog test,2023.1.3,59.77579295694391,
119,0,119,0,,,,,,,,,,,,,,,,,,,,,,,,,,,,,,,,,,647.8822065000131,648.9024709000078,645.835359699995,645.835359699995,645.835359699995,645.835359699995,new_sceneIn_24.png,120,4.0,2.049911300011445,,014,1,2024-10-30_14h02.26.552,Surprise recog test,2023.1.3,59.77579295694391,
120,0,120,0,,,,,,,,,,,,,,,,,,,,,,,,,,,,,,,,,,650.1475162999996,651.1761853999924,648.9024709000078,648.9024709000078,648.9024709000078,648.9024709000078,new_sceneOut_14.png,121,5.0,1.2461346999916714,,014,1,2024-10-30_14h02.26.552,Surprise recog test,2023.1.3,59.77579295694391,
121,0,121,0,,,,,,,,,,,,,,,,,,,,,,,,,,,,,,,,,,652.9404267999926,653.9532562000095,651.1761853999924,651.1761853999924,651.1761853999924,651.1761853999924,new_stationery_33.png,122,2.0,1.763869699992938,,014,1,2024-10-30_14h02.26.552,Surprise recog test,2023.1.3,59.77579295694391,
122,0,122,0,,,,,,,,,,,,,,,,,,,,,,,,,,,,,,,,,,656.0814641999896,657.1018104999966,653.9532562000095,653.9532562000095,653.9532562000095,653.9532562000095,old_sceneIn_34.png,123,2.0,2.128184200002579,,014,1,2024-10-30_14h02.26.552,Surprise recog test,2023.1.3,59.77579295694391,
123,0,123,0,,,,,,,,,,,,,,,,,,,,,,,,,,,,,,,,,,658.8280287999951,659.8428507999924,657.1018104999966,657.1018104999966,657.1018104999966,657.1018104999966,old_sceneOut_42.png,124,5.0,1.720685299980687,,014,1,2024-10-30_14h02.26.552,Surprise recog test,2023.1.3,59.77579295694391,
124,0,124,0,,,,,,,,,,,,,,,,,,,,,,,,,,,,,,,,,,663.4102581999905,664.4223696000117,659.8428507999924,659.8428507999924,659.8428507999924,659.8428507999924,old_fruit_7.png,125,3.0,3.5677139000035822,,014,1,2024-10-30_14h02.26.552,Surprise recog test,2023.1.3,59.77579295694391,
125,0,125,0,,,,,,,,,,,,,,,,,,,,,,,,,,,,,,,,,,666.2342396999884,667.2565790000081,664.4223696000117,664.4223696000117,664.4223696000117,664.4223696000117,new_fruit_33.png,126,3.0,1.8015359000128228,,014,1,2024-10-30_14h02.26.552,Surprise recog test,2023.1.3,59.77579295694391,
126,0,126,0,,,,,,,,,,,,,,,,,,,,,,,,,,,,,,,,,,668.7458643999998,669.7753441999957,667.2565790000081,667.2565790000081,667.2565790000081,667.2565790000081,old_fruit_9.png,127,1.0,1.4878619000082836,,014,1,2024-10-30_14h02.26.552,Surprise recog test,2023.1.3,59.77579295694391,
127,0,127,0,,,,,,,,,,,,,,,,,,,,,,,,,,,,,,,,,,671.0766477000143,672.110239200003,669.7753441999957,669.7753441999957,669.7753441999957,669.7753441999957,new_fruit_21.png,128,1.0,1.303756200009957,,014,1,2024-10-30_14h02.26.552,Surprise recog test,2023.1.3,59.77579295694391,
128,0,128,0,,,,,,,,,,,,,,,,,,,,,,,,,,,,,,,,,,672.9029734999931,673.9196363000083,672.110239200003,672.110239200003,672.110239200003,672.110239200003,old_fruit_10.png,129,1.0,0.7953646000241861,,014,1,2024-10-30_14h02.26.552,Surprise recog test,2023.1.3,59.77579295694391,
129,0,129,0,,,,,,,,,,,,,,,,,,,,,,,,,,,,,,,,,,677.0879633000004,678.1024248999893,673.9196363000083,673.9196363000083,673.9196363000083,673.9196363000083,old_sceneIn_32.png,130,4.0,3.1686806000070646,,014,1,2024-10-30_14h02.26.552,Surprise recog test,2023.1.3,59.77579295694391,
130,0,130,0,,,,,,,,,,,,,,,,,,,,,,,,,,,,,,,,,,680.2003320000076,681.2291946999903,678.1024248999893,678.1024248999893,678.1024248999893,678.1024248999893,old_sceneOut_6.png,131,3.0,2.092585499980487,,014,1,2024-10-30_14h02.26.552,Surprise recog test,2023.1.3,59.77579295694391,
131,0,131,0,,,,,,,,,,,,,,,,,,,,,,,,,,,,,,,,,,683.634303400002,,681.2291946999903,681.2291946999903,681.2291946999903,681.2291946999903,new_sceneOut_48.png,132,4.0,2.4077485000016168,,014,1,2024-10-30_14h02.26.552,Surprise recog test,2023.1.3,59.77579295694391,
132,0,132,0,,,,,,,,,,,,,,,,,,,,,,,,,,,,,,,,,,685.9355536999938,686.9493573000073,684.6627691999893,684.6627691999893,684.6627691999893,684.6627691999893,old_sceneOut_36.png,133,5.0,1.2739159000047948,,014,1,2024-10-30_14h02.26.552,Surprise recog test,2023.1.3,59.77579295694391,
133,0,133,0,,,,,,,,,,,,,,,,,,,,,,,,,,,,,,,,,,687.9431328999926,688.9769484999997,686.9493573000073,686.9493573000073,686.9493573000073,686.9493573000073,new_sceneIn_15.png,134,5.0,0.9951246999844443,,014,1,2024-10-30_14h02.26.552,Surprise recog test,2023.1.3,59.77579295694391,
134,0,134,0,,,,,,,,,,,,,,,,,,,,,,,,,,,,,,,,,,690.1893064999895,691.2103831999993,688.9769484999997,688.9769484999997,688.9769484999997,688.9769484999997,old_fruit_2.png,135,1.0,1.215473300020676,,014,1,2024-10-30_14h02.26.552,Surprise recog test,2023.1.3,59.77579295694391,
135,0,135,0,,,,,,,,,,,,,,,,,,,,,,,,,,,,,,,,,,692.8076996000018,693.8270943000098,691.2103831999993,691.2103831999993,691.2103831999993,691.2103831999993,old_sceneIn_17.png,136,4.0,1.5981333999952767,,014,1,2024-10-30_14h02.26.552,Surprise recog test,2023.1.3,59.77579295694391,
136,0,136,0,,,,,,,,,,,,,,,,,,,,,,,,,,,,,,,,,,695.1955446999928,,693.8270943000098,693.8270943000098,693.8270943000098,693.8270943000098,old_fruit_28.png,137,2.0,1.369905600004131,,014,1,2024-10-30_14h02.26.552,Surprise recog test,2023.1.3,59.77579295694391,
137,0,137,0,,,,,,,,,,,,,,,,,,,,,,,,,,,,,,,,,,697.4137526999984,,696.2152110000025,696.2152110000025,696.2152110000025,696.2152110000025,old_fruit_49.png,138,1.0,1.1940904000075534,,014,1,2024-10-30_14h02.26.552,Surprise recog test,2023.1.3,59.77579295694391,
138,0,138,0,,,,,,,,,,,,,,,,,,,,,,,,,,,,,,,,,,700.6810823999986,701.6886564999877,698.4469658999878,698.4469658999878,698.4469658999878,698.4469658999878,new_fruit_41.png,139,2.0,2.236241999984486,,014,1,2024-10-30_14h02.26.552,Surprise recog test,2023.1.3,59.77579295694391,
139,0,139,0,,,,,,,,,,,,,,,,,,,,,,,,,,,,,,,,,,703.2194635999913,,701.6886564999877,701.6886564999877,701.6886564999877,701.6886564999877,old_sceneIn_6.png,140,5.0,1.5265951000037603,,014,1,2024-10-30_14h02.26.552,Surprise recog test,2023.1.3,59.77579295694391,
140,0,140,0,,,,,,,,,,,,,,,,,,,,,,,,,,,,,,,,,,705.4207081999921,,704.2558789000032,704.2558789000032,704.2558789000032,704.2558789000032,old_sceneIn_23.png,141,5.0,1.1654493999958504,,014,1,2024-10-30_14h02.26.552,Surprise recog test,2023.1.3,59.77579295694391,
141,0,141,0,,,,,,,,,,,,,,,,,,,,,,,,,,,,,,,,,,707.5574099000078,708.5831134000036,706.4487456000061,706.4487456000061,706.4487456000061,706.4487456000061,old_sceneIn_35.png,142,5.0,1.1107618999958504,,014,1,2024-10-30_14h02.26.552,Surprise recog test,2023.1.3,59.77579295694391,
142,0,142,0,,,,,,,,,,,,,,,,,,,,,,,,,,,,,,,,,,710.2051662000013,711.211412500008,708.5831134000036,708.5831134000036,708.5831134000036,708.5831134000036,old_stationery_36.png,143,5.0,1.6220999999786727,,014,1,2024-10-30_14h02.26.552,Surprise recog test,2023.1.3,59.77579295694391,
143,0,143,0,,,,,,,,,,,,,,,,,,,,,,,,,,,,,,,,,,713.008410999988,714.0260773999908,711.211412500008,711.211412500008,711.211412500008,711.211412500008,new_fruit_11.png,144,3.0,1.792925899993861,,014,1,2024-10-30_14h02.26.552,Surprise recog test,2023.1.3,59.77579295694391,
144,0,144,0,,,,,,,,,,,,,,,,,,,,,,,,,,,,,,,,,,715.7927888999984,716.8000727999897,714.0260773999908,714.0260773999908,714.0260773999908,714.0260773999908,new_stationery_18.png,145,4.0,1.7678187999990769,,014,1,2024-10-30_14h02.26.552,Surprise recog test,2023.1.3,59.77579295694391,
145,0,145,0,,,,,,,,,,,,,,,,,,,,,,,,,,,,,,,,,,718.6906424000044,719.7029980999941,716.8000727999897,716.8000727999897,716.8000727999897,716.8000727999897,old_stationery_39.png,146,5.0,1.886402400006773,,014,1,2024-10-30_14h02.26.552,Surprise recog test,2023.1.3,59.77579295694391,
146,0,146,0,,,,,,,,,,,,,,,,,,,,,,,,,,,,,,,,,,720.5161825999967,,719.7029980999941,719.7029980999941,719.7029980999941,719.7029980999941,old_sceneOut_4.png,147,5.0,0.8090071000042371,,014,1,2024-10-30_14h02.26.552,Surprise recog test,2023.1.3,59.77579295694391,
147,0,147,0,,,,,,,,,,,,,,,,,,,,,,,,,,,,,,,,,,722.2674553999968,,721.5371266000147,721.5371266000147,721.5371266000147,721.5371266000147,old_sceneIn_30.png,148,5.0,0.7260114999953657,,014,1,2024-10-30_14h02.26.552,Surprise recog test,2023.1.3,59.77579295694391,
148,0,148,0,,,,,,,,,,,,,,,,,,,,,,,,,,,,,,,,,,725.8671055999876,726.8918413000065,723.2878653999942,723.2878653999942,723.2878653999942,723.2878653999942,old_stationery_1.png,149,3.0,2.569781199999852,,014,1,2024-10-30_14h02.26.552,Surprise recog test,2023.1.3,59.77579295694391,
149,0,149,0,,,,,,,,,,,,,,,,,,,,,,,,,,,,,,,,,,728.4239926000009,729.4478059000103,726.8918413000065,726.8918413000065,726.8918413000065,726.8918413000065,old_stationery_49.png,150,2.0,1.5366933999757748,,014,1,2024-10-30_14h02.26.552,Surprise recog test,2023.1.3,59.77579295694391,
150,0,150,0,,,,,,,,,,,,,,,,,,,,,,,,,,,,,,,,,,731.0815778000106,732.1086899999937,729.4478059000103,729.4478059000103,729.4478059000103,729.4478059000103,new_fruit_25.png,151,2.0,1.633676600002218,,014,1,2024-10-30_14h02.26.552,Surprise recog test,2023.1.3,59.77579295694391,
151,0,151,0,,,,,,,,,,,,,,,,,,,,,,,,,,,,,,,,,,734.6961609999998,735.7161560000095,732.1086899999937,732.1086899999937,732.1086899999937,732.1086899999937,old_stationery_24.png,152,3.0,2.589398300013272,,014,1,2024-10-30_14h02.26.552,Surprise recog test,2023.1.3,59.77579295694391,
152,0,152,0,,,,,,,,,,,,,,,,,,,,,,,,,,,,,,,,,,737.3735233999905,738.3963214000105,735.7161560000095,735.7161560000095,735.7161560000095,735.7161560000095,new_sceneIn_48.png,153,5.0,1.6523484999779612,,014,1,2024-10-30_14h02.26.552,Surprise recog test,2023.1.3,59.77579295694391,
153,0,153,0,,,,,,,,,,,,,,,,,,,,,,,,,,,,,,,,,,740.1888561999949,741.2173775999981,738.3963214000105,738.3963214000105,738.3963214000105,738.3963214000105,new_sceneOut_1.png,154,4.0,1.7947370000183582,,014,1,2024-10-30_14h02.26.552,Surprise recog test,2023.1.3,59.77579295694391,
154,0,154,0,,,,,,,,,,,,,,,,,,,,,,,,,,,,,,,,,,742.3901389999955,743.4068961000012,741.2173775999981,741.2173775999981,741.2173775999981,741.2173775999981,new_sceneOut_20.png,155,5.0,1.1756926999951247,,014,1,2024-10-30_14h02.26.552,Surprise recog test,2023.1.3,59.77579295694391,
155,0,155,0,,,,,,,,,,,,,,,,,,,,,,,,,,,,,,,,,,746.7543850000075,,743.4068961000012,743.4068961000012,743.4068961000012,743.4068961000012,old_sceneIn_36.png,156,4.0,3.3463566999998875,,014,1,2024-10-30_14h02.26.552,Surprise recog test,2023.1.3,59.77579295694391,
156,0,156,0,,,,,,,,,,,,,,,,,,,,,,,,,,,,,,,,,,750.1468869000091,751.1617726999975,747.7752402999904,747.7752402999904,747.7752402999904,747.7752402999904,old_stationery_11.png,157,2.0,2.367356899980223,,014,1,2024-10-30_14h02.26.552,Surprise recog test,2023.1.3,59.77579295694391,
157,0,157,0,,,,,,,,,,,,,,,,,,,,,,,,,,,,,,,,,,752.8775300999987,,751.1617726999975,751.1617726999975,751.1617726999975,751.1617726999975,old_stationery_34.png,158,2.0,1.7109259999997448,,014,1,2024-10-30_14h02.26.552,Surprise recog test,2023.1.3,59.77579295694391,
158,0,158,0,,,,,,,,,,,,,,,,,,,,,,,,,,,,,,,,,,755.2501761000021,756.2664991999918,753.9091374000127,753.9091374000127,753.9091374000127,753.9091374000127,new_sceneIn_3.png,159,5.0,1.3420174999919254,,014,1,2024-10-30_14h02.26.552,Surprise recog test,2023.1.3,59.77579295694391,
159,0,159,0,,,,,,,,,,,,,,,,,,,,,,,,,,,,,,,,,,757.0919605999952,758.1101152999909,756.2664991999918,756.2664991999918,756.2664991999918,756.2664991999918,old_sceneIn_8.png,160,5.0,0.8206713999970816,,014,1,2024-10-30_14h02.26.552,Surprise recog test,2023.1.3,59.77579295694391,
160,0,160,0,,,,,,,,,,,,,,,,,,,,,,,,,,,,,,,,,,760.5918049000029,761.6044162999897,758.1101152999909,758.1101152999909,758.1101152999909,758.1101152999909,old_sceneOut_25.png,161,4.0,2.484733999997843,,014,1,2024-10-30_14h02.26.552,Surprise recog test,2023.1.3,59.77579295694391,
161,0,161,0,,,,,,,,,,,,,,,,,,,,,,,,,,,,,,,,,,763.0694311000116,,761.6044162999897,761.6044162999897,761.6044162999897,761.6044162999897,new_sceneOut_44.png,162,5.0,1.4597221000003628,,014,1,2024-10-30_14h02.26.552,Surprise recog test,2023.1.3,59.77579295694391,
162,0,162,0,,,,,,,,,,,,,,,,,,,,,,,,,,,,,,,,,,764.9187441999966,,764.1021082999941,764.1021082999941,764.1021082999941,764.1021082999941,new_sceneOut_15.png,163,5.0,0.8156860000162851,,014,1,2024-10-30_14h02.26.552,Surprise recog test,2023.1.3,59.77579295694391,
163,0,163,0,,,,,,,,,,,,,,,,,,,,,,,,,,,,,,,,,,768.0093997000076,769.0394540000125,765.9518947000033,765.9518947000033,765.9518947000033,765.9518947000033,new_stationery_8.png,164,5.0,2.055369799985783,,014,1,2024-10-30_14h02.26.552,Surprise recog test,2023.1.3,59.77579295694391,
164,0,164,0,,,,,,,,,,,,,,,,,,,,,,,,,,,,,,,,,,771.0950672999898,772.1256829999911,769.0394540000125,769.0394540000125,769.0394540000125,769.0394540000125,new_fruit_46.png,165,4.0,2.057597100007115,,014,1,2024-10-30_14h02.26.552,Surprise recog test,2023.1.3,59.77579295694391,
165,0,165,0,,,,,,,,,,,,,,,,,,,,,,,,,,,,,,,,,,774.6298254000139,775.6498239999928,772.1256829999911,772.1256829999911,772.1256829999911,772.1256829999911,old_stationery_17.png,166,4.0,2.5074443999910727,,014,1,2024-10-30_14h02.26.552,Surprise recog test,2023.1.3,59.77579295694391,
166,0,166,0,,,,,,,,,,,,,,,,,,,,,,,,,,,,,,,,,,777.0777023000119,778.0971734999912,775.6498239999928,775.6498239999928,775.6498239999928,775.6498239999928,old_fruit_32.png,167,1.0,1.4212892999930773,,014,1,2024-10-30_14h02.26.552,Surprise recog test,2023.1.3,59.77579295694391,
167,0,167,0,,,,,,,,,,,,,,,,,,,,,,,,,,,,,,,,,,780.1239526999998,781.1367383000033,778.0971734999912,778.0971734999912,778.0971734999912,778.0971734999912,old_fruit_39.png,168,1.0,2.0287826000130735,,014,1,2024-10-30_14h02.26.552,Surprise recog test,2023.1.3,59.77579295694391,
168,0,168,0,,,,,,,,,,,,,,,,,,,,,,,,,,,,,,,,,,782.6897188000148,783.7167759999866,781.1367383000033,781.1367383000033,781.1367383000033,781.1367383000033,new_sceneIn_31.png,169,5.0,1.5476296999840997,,014,1,2024-10-30_14h02.26.552,Surprise recog test,2023.1.3,59.77579295694391,
169,0,169,0,,,,,,,,,,,,,,,,,,,,,,,,,,,,,,,,,,785.4333951000008,786.4612999999954,783.7167759999866,783.7167759999866,783.7167759999866,783.7167759999866,old_sceneOut_47.png,170,5.0,1.7117676000052597,,014,1,2024-10-30_14h02.26.552,Surprise recog test,2023.1.3,59.77579295694391,
170,0,170,0,,,,,,,,,,,,,,,,,,,,,,,,,,,,,,,,,,787.5230099000037,788.5561401000014,786.4612999999954,786.4612999999954,786.4612999999954,786.4612999999954,new_sceneIn_13.png,171,5.0,1.0653073000139557,,014,1,2024-10-30_14h02.26.552,Surprise recog test,2023.1.3,59.77579295694391,
171,0,171,0,,,,,,,,,,,,,,,,,,,,,,,,,,,,,,,,,,789.7621828000119,790.7877740999975,788.5561401000014,788.5561401000014,788.5561401000014,788.5561401000014,old_fruit_23.png,172,1.0,1.2093614999903366,,014,1,2024-10-30_14h02.26.552,Surprise recog test,2023.1.3,59.77579295694391,
172,0,172,0,,,,,,,,,,,,,,,,,,,,,,,,,,,,,,,,,,793.0370543999888,794.0599568999896,790.7877740999975,790.7877740999975,790.7877740999975,790.7877740999975,old_sceneIn_25.png,173,4.0,2.24860640001134,,014,1,2024-10-30_14h02.26.552,Surprise recog test,2023.1.3,59.77579295694391,
173,0,173,0,,,,,,,,,,,,,,,,,,,,,,,,,,,,,,,,,,797.580569200014,,794.0599568999896,794.0599568999896,794.0599568999896,794.0599568999896,old_sceneOut_7.png,174,5.0,3.5218460999894887,,014,1,2024-10-30_14h02.26.552,Surprise recog test,2023.1.3,59.77579295694391,
174,0,174,0,,,,,,,,,,,,,,,,,,,,,,,,,,,,,,,,,,800.1792362999986,801.1875321000116,798.6100111000123,798.6100111000123,798.6100111000123,798.6100111000123,new_stationery_16.png,175,3.0,1.5710713999869768,,014,1,2024-10-30_14h02.26.552,Surprise recog test,2023.1.3,59.77579295694391,
175,0,175,0,,,,,,,,,,,,,,,,,,,,,,,,,,,,,,,,,,802.4372481000028,803.4561182000034,801.1875321000116,801.1875321000116,801.1875321000116,801.1875321000116,old_sceneOut_40.png,176,4.0,1.2454027000057977,,014,1,2024-10-30_14h02.26.552,Surprise recog test,2023.1.3,59.77579295694391,
176,0,176,0,,,,,,,,,,,,,,,,,,,,,,,,,,,,,,,,,,806.0758418999903,807.0993047000084,803.4561182000034,803.4561182000034,803.4561182000034,803.4561182000034,old_fruit_17.png,177,4.0,2.6138895000040065,,014,1,2024-10-30_14h02.26.552,Surprise recog test,2023.1.3,59.77579295694391,
177,0,177,0,,,,,,,,,,,,,,,,,,,,,,,,,,,,,,,,,,808.2134300000034,809.2362647000118,807.0993047000084,807.0993047000084,807.0993047000084,807.0993047000084,old_sceneIn_19.png,178,5.0,1.1129283999907784,,014,1,2024-10-30_14h02.26.552,Surprise recog test,2023.1.3,59.77579295694391,
178,0,178,0,,,,,,,,,,,,,,,,,,,,,,,,,,,,,,,,,,811.3948517999961,812.4094205999863,809.2362647000118,809.2362647000118,809.2362647000118,809.2362647000118,old_fruit_45.png,179,3.0,2.16004879999673,,014,1,2024-10-30_14h02.26.552,Surprise recog test,2023.1.3,59.77579295694391,
179,0,179,0,,,,,,,,,,,,,,,,,,,,,,,,,,,,,,,,,,813.8772335000103,,812.4094205999863,812.4094205999863,812.4094205999863,812.4094205999863,old_fruit_14.png,180,3.0,1.4631281000038143,,014,1,2024-10-30_14h02.26.552,Surprise recog test,2023.1.3,59.77579295694391,
180,0,180,0,,,,,,,,,,,,,,,,,,,,,,,,,,,,,,,,,,816.208326299995,817.2260755999887,814.9074696000025,814.9074696000025,814.9074696000025,814.9074696000025,old_sceneIn_9.png,181,4.0,1.300175800017314,,014,1,2024-10-30_14h02.26.552,Surprise recog test,2023.1.3,59.77579295694391,
181,0,181,0,,,,,,,,,,,,,,,,,,,,,,,,,,,,,,,,,,818.6313187000051,,817.2260755999887,817.2260755999887,817.2260755999887,817.2260755999887,old_sceneIn_46.png,182,5.0,1.406404699984705,,014,1,2024-10-30_14h02.26.552,Surprise recog test,2023.1.3,59.77579295694391,
182,0,182,0,,,,,,,,,,,,,,,,,,,,,,,,,,,,,,,,,,821.7006611000106,,819.6522471999924,819.6522471999924,819.6522471999924,819.6522471999924,new_stationery_31.png,183,3.0,2.0409508000011556,,014,1,2024-10-30_14h02.26.552,Surprise recog test,2023.1.3,59.77579295694391,
183,0,183,0,,,,,,,,,,,,,,,,,,,,,,,,,,,,,,,,,,824.1012741999875,,822.7204735999985,822.7204735999985,822.7204735999985,822.7204735999985,old_sceneOut_17.png,184,5.0,1.3766016000008676,,014,1,2024-10-30_14h02.26.552,Surprise recog test,2023.1.3,59.77579295694391,
184,0,184,0,,,,,,,,,,,,,,,,,,,,,,,,,,,,,,,,,,825.9088061999937,826.9375055000128,825.1306902999931,825.1306902999931,825.1306902999931,825.1306902999931,old_sceneIn_10.png,185,5.0,0.7772911000065506,,014,1,2024-10-30_14h02.26.552,Surprise recog test,2023.1.3,59.77579295694391,
185,0,185,0,,,,,,,,,,,,,,,,,,,,,,,,,,,,,,,,,,829.0993792999943,830.1141130999895,826.9375055000128,826.9375055000128,826.9375055000128,826.9375055000128,new_fruit_22.png,186,5.0,2.1623926000029314,,014,1,2024-10-30_14h02.26.552,Surprise recog test,2023.1.3,59.77579295694391,
186,0,186,0,,,,,,,,,,,,,,,,,,,,,,,,,,,,,,,,,,831.3506741999881,832.3732461000036,830.1141130999895,830.1141130999895,830.1141130999895,830.1141130999895,old_sceneIn_43.png,187,5.0,1.2310021999874152,,014,1,2024-10-30_14h02.26.552,Surprise recog test,2023.1.3,59.77579295694391,
187,0,187,0,,,,,,,,,,,,,,,,,,,,,,,,,,,,,,,,,,833.2478296000045,834.27197229999,832.3732461000036,832.3732461000036,832.3732461000036,832.3732461000036,old_sceneOut_12.png,188,5.0,0.8740545000182465,,014,1,2024-10-30_14h02.26.552,Surprise recog test,2023.1.3,59.77579295694391,
188,0,188,0,,,,,,,,,,,,,,,,,,,,,,,,,,,,,,,,,,835.3524540000071,836.379843200004,834.27197229999,834.27197229999,834.27197229999,834.27197229999,new_sceneOut_5.png,189,5.0,1.0818712000036612,,014,1,2024-10-30_14h02.26.552,Surprise recog test,2023.1.3,59.77579295694391,
189,0,189,0,,,,,,,,,,,,,,,,,,,,,,,,,,,,,,,,,,838.3435597000062,839.3519304000074,836.379843200004,836.379843200004,836.379843200004,836.379843200004,old_stationery_42.png,190,4.0,1.963902000017697,,014,1,2024-10-30_14h02.26.552,Surprise recog test,2023.1.3,59.77579295694391,
190,0,190,0,,,,,,,,,,,,,,,,,,,,,,,,,,,,,,,,,,841.8763357000134,842.8854954999988,839.3519304000074,839.3519304000074,839.3519304000074,839.3519304000074,new_fruit_14.png,191,3.0,2.520444399997359,,014,1,2024-10-30_14h02.26.552,Surprise recog test,2023.1.3,59.77579295694391,
191,0,191,0,,,,,,,,,,,,,,,,,,,,,,,,,,,,,,,,,,844.1321158999926,845.1427423999994,842.8854954999988,842.8854954999988,842.8854954999988,842.8854954999988,new_sceneOut_3.png,192,5.0,1.2367914999776985,,014,1,2024-10-30_14h02.26.552,Surprise recog test,2023.1.3,59.77579295694391,
192,0,192,0,,,,,,,,,,,,,,,,,,,,,,,,,,,,,,,,,,846.1057352999924,847.1225821000116,845.1427423999994,845.1427423999994,845.1427423999994,845.1427423999994,new_sceneIn_37.png,193,5.0,0.9616901999979746,,014,1,2024-10-30_14h02.26.552,Surprise recog test,2023.1.3,59.77579295694391,
193,0,193,0,,,,,,,,,,,,,,,,,,,,,,,,,,,,,,,,,,849.6032987000071,850.6082270999905,847.1225821000116,847.1225821000116,847.1225821000116,847.1225821000116,old_fruit_31.png,194,1.0,2.4753096999775153,,014,1,2024-10-30_14h02.26.552,Surprise recog test,2023.1.3,59.77579295694391,
194,0,194,0,,,,,,,,,,,,,,,,,,,,,,,,,,,,,,,,,,851.7551276999875,852.7597410999879,850.6082270999905,850.6082270999905,850.6082270999905,850.6082270999905,old_sceneOut_18.png,195,5.0,1.13673430000199,,014,1,2024-10-30_14h02.26.552,Surprise recog test,2023.1.3,59.77579295694391,
195,0,195,0,,,,,,,,,,,,,,,,,,,,,,,,,,,,,,,,,,853.6734050000086,854.6777824999881,852.7597410999879,852.7597410999879,852.7597410999879,852.7597410999879,new_sceneOut_23.png,196,5.0,0.9033733000105713,,014,1,2024-10-30_14h02.26.552,Surprise recog test,2023.1.3,59.77579295694391,
196,0,196,0,,,,,,,,,,,,,,,,,,,,,,,,,,,,,,,,,,857.0596004000108,858.0646242999937,854.6777824999881,854.6777824999881,854.6777824999881,854.6777824999881,new_stationery_34.png,197,5.0,2.371348199987551,,014,1,2024-10-30_14h02.26.552,Surprise recog test,2023.1.3,59.77579295694391,
197,0,197,0,,,,,,,,,,,,,,,,,,,,,,,,,,,,,,,,,,859.0612123000028,860.0661943999876,858.0646242999937,858.0646242999937,858.0646242999937,858.0646242999937,new_sceneIn_29.png,198,5.0,0.9869062000070699,,014,1,2024-10-30_14h02.26.552,Surprise recog test,2023.1.3,59.77579295694391,
198,0,198,0,,,,,,,,,,,,,,,,,,,,,,,,,,,,,,,,,,861.796865500015,862.8010540000105,860.0661943999876,860.0661943999876,860.0661943999876,860.0661943999876,new_sceneOut_34.png,199,5.0,1.7213597999943886,,014,1,2024-10-30_14h02.26.552,Surprise recog test,2023.1.3,59.77579295694391,
199,0,199,0,,,,,,,,,,,,,,,,,,,,,,,,,,,,,,,,,,864.3155238000036,865.3200830999995,862.8010540000105,862.8010540000105,862.8010540000105,862.8010540000105,new_stationery_24.png,200,4.0,1.5038825999945402,,014,1,2024-10-30_14h02.26.552,Surprise recog test,2023.1.3,59.77579295694391,
200,0,200,0,,,,,,,,,,,,,,,,,,,,,,,,,,,,,,,,,,866.5341337000136,867.5393811000104,865.3200830999995,865.3200830999995,865.3200830999995,865.3200830999995,old_sceneOut_32.png,201,5.0,1.2068348999891896,,014,1,2024-10-30_14h02.26.552,Surprise recog test,2023.1.3,59.77579295694391,
201,0,201,0,,,,,,,,,,,,,,,,,,,,,,,,,,,,,,,,,,870.45405629999,871.4592873000074,867.5393811000104,867.5393811000104,867.5393811000104,867.5393811000104,old_sceneIn_41.png,202,3.0,2.9051897000172175,,014,1,2024-10-30_14h02.26.552,Surprise recog test,2023.1.3,59.77579295694391,
202,0,202,0,,,,,,,,,,,,,,,,,,,,,,,,,,,,,,,,,,872.7558962999901,873.7621007999987,871.4592873000074,871.4592873000074,871.4592873000074,871.4592873000074,old_sceneOut_5.png,203,5.0,1.2869778999884147,,014,1,2024-10-30_14h02.26.552,Surprise recog test,2023.1.3,59.77579295694391,
203,0,203,0,,,,,,,,,,,,,,,,,,,,,,,,,,,,,,,,,,875.1412796000077,876.1456160999951,873.7621007999987,873.7621007999987,873.7621007999987,873.7621007999987,new_fruit_2.png,204,1.0,1.3706027000152972,,014,1,2024-10-30_14h02.26.552,Surprise recog test,2023.1.3,59.77579295694391,
204,0,204,0,,,,,,,,,,,,,,,,,,,,,,,,,,,,,,,,,,877.5775536000147,878.581897600001,876.1456160999951,876.1456160999951,876.1456160999951,876.1456160999951,old_stationery_29.png,205,1.0,1.4269100000092294,,014,1,2024-10-30_14h02.26.552,Surprise recog test,2023.1.3,59.77579295694391,
205,0,205,0,,,,,,,,,,,,,,,,,,,,,,,,,,,,,,,,,,880.4289433000085,881.4335138000024,878.581897600001,878.581897600001,878.581897600001,878.581897600001,new_stationery_3.png,206,4.0,1.8376646999968216,,014,1,2024-10-30_14h02.26.552,Surprise recog test,2023.1.3,59.77579295694391,
206,0,206,0,,,,,,,,,,,,,,,,,,,,,,,,,,,,,,,,,,883.0811962000153,884.0860228000092,881.4335138000024,881.4335138000024,881.4335138000024,881.4335138000024,new_sceneIn_41.png,207,4.0,1.6376156999904197,,014,1,2024-10-30_14h02.26.552,Surprise recog test,2023.1.3,59.77579295694391,
207,0,207,0,,,,,,,,,,,,,,,,,,,,,,,,,,,,,,,,,,885.433188199997,886.4384912000096,884.0860228000092,884.0860228000092,884.0860228000092,884.0860228000092,old_stationery_31.png,208,1.0,1.3398110000125598,,014,1,2024-10-30_14h02.26.552,Surprise recog test,2023.1.3,59.77579295694391,
208,0,208,0,,,,,,,,,,,,,,,,,,,,,,,,,,,,,,,,,,888.4584819999873,889.474372800003,886.4384912000096,886.4384912000096,886.4384912000096,886.4384912000096,old_stationery_27.png,209,3.0,2.0143307999824174,,014,1,2024-10-30_14h02.26.552,Surprise recog test,2023.1.3,59.77579295694391,
209,0,209,0,,,,,,,,,,,,,,,,,,,,,,,,,,,,,,,,,,891.0611314999987,892.0790344999987,889.474372800003,889.474372800003,889.474372800003,889.474372800003,old_sceneOut_49.png,210,4.0,1.5823146000038832,,014,1,2024-10-30_14h02.26.552,Surprise recog test,2023.1.3,59.77579295694391,
210,0,210,0,,,,,,,,,,,,,,,,,,,,,,,,,,,,,,,,,,893.8955871000071,894.9262804999889,892.0790344999987,892.0790344999987,892.0790344999987,892.0790344999987,new_stationery_30.png,211,2.0,1.812219500017818,,014,1,2024-10-30_14h02.26.552,Surprise recog test,2023.1.3,59.77579295694391,
211,0,211,0,,,,,,,,,,,,,,,,,,,,,,,,,,,,,,,,,,897.4625276000006,,894.9262804999889,894.9262804999889,894.9262804999889,894.9262804999889,new_fruit_38.png,212,3.0,2.5354509000026155,,014,1,2024-10-30_14h02.26.552,Surprise recog test,2023.1.3,59.77579295694391,
212,0,212,0,,,,,,,,,,,,,,,,,,,,,,,,,,,,,,,,,,899.7322539000015,,898.4858787000121,898.4858787000121,898.4858787000121,898.4858787000121,old_sceneOut_23.png,213,5.0,1.2434460000076797,,014,1,2024-10-30_14h02.26.552,Surprise recog test,2023.1.3,59.77579295694391,
213,0,213,0,,,,,,,,,,,,,,,,,,,,,,,,,,,,,,,,,,902.0435044000042,903.0552267000021,900.7654298999987,900.7654298999987,900.7654298999987,900.7654298999987,old_fruit_3.png,214,1.0,1.2796508000174072,,014,1,2024-10-30_14h02.26.552,Surprise recog test,2023.1.3,59.77579295694391,
214,0,214,0,,,,,,,,,,,,,,,,,,,,,,,,,,,,,,,,,,904.617304000014,905.6359575999959,903.0552267000021,903.0552267000021,903.0552267000021,903.0552267000021,old_sceneIn_48.png,215,5.0,1.554313300002832,,014,1,2024-10-30_14h02.26.552,Surprise recog test,2023.1.3,59.77579295694391,
215,0,215,0,,,,,,,,,,,,,,,,,,,,,,,,,,,,,,,,,,906.5331966000085,907.5518649000151,905.6359575999959,905.6359575999959,905.6359575999959,905.6359575999959,new_sceneIn_8.png,216,5.0,0.8987726999912411,,014,1,2024-10-30_14h02.26.552,Surprise recog test,2023.1.3,59.77579295694391,
216,0,216,0,,,,,,,,,,,,,,,,,,,,,,,,,,,,,,,,,,908.6079989999998,909.6409352000046,907.5518649000151,907.5518649000151,907.5518649000151,907.5518649000151,new_sceneIn_26.png,217,5.0,1.0568134000059217,,014,1,2024-10-30_14h02.26.552,Surprise recog test,2023.1.3,59.77579295694391,
217,0,217,0,,,,,,,,,,,,,,,,,,,,,,,,,,,,,,,,,,912.1061867999961,913.1256414999953,909.6409352000046,909.6409352000046,909.6409352000046,909.6409352000046,old_stationery_23.png,218,4.0,2.463331700011622,,014,1,2024-10-30_14h02.26.552,Surprise recog test,2023.1.3,59.77579295694391,
218,0,218,0,,,,,,,,,,,,,,,,,,,,,,,,,,,,,,,,,,914.1825968000048,915.2100791000121,913.1256414999953,913.1256414999953,913.1256414999953,913.1256414999953,old_sceneIn_22.png,219,5.0,1.058718799991766,,014,1,2024-10-30_14h02.26.552,Surprise recog test,2023.1.3,59.77579295694391,
219,0,219,0,,,,,,,,,,,,,,,,,,,,,,,,,,,,,,,,,,916.234731900011,917.2658545000013,915.2100791000121,915.2100791000121,915.2100791000121,915.2100791000121,old_sceneOut_44.png,220,5.0,1.026137100008782,,014,1,2024-10-30_14h02.26.552,Surprise recog test,2023.1.3,59.77579295694391,
220,0,220,0,,,,,,,,,,,,,,,,,,,,,,,,,,,,,,,,,,918.0193305000139,919.0464703000034,917.2658545000013,917.2658545000013,917.2658545000013,917.2658545000013,old_sceneIn_49.png,221,5.0,0.7570137000002433,,014,1,2024-10-30_14h02.26.552,Surprise recog test,2023.1.3,59.77579295694391,
221,0,221,0,,,,,,,,,,,,,,,,,,,,,,,,,,,,,,,,,,921.3731218999892,922.3866250000137,919.0464703000034,919.0464703000034,919.0464703000034,919.0464703000034,new_stationery_36.png,222,3.0,2.3269228999852203,,014,1,2024-10-30_14h02.26.552,Surprise recog test,2023.1.3,59.77579295694391,
222,0,222,0,,,,,,,,,,,,,,,,,,,,,,,,,,,,,,,,,,924.9064732000115,925.9242243999906,922.3866250000137,922.3866250000137,922.3866250000137,922.3866250000137,new_fruit_23.png,223,2.0,2.514158900012262,,014,1,2024-10-30_14h02.26.552,Surprise recog test,2023.1.3,59.77579295694391,
223,0,223,0,,,,,,,,,,,,,,,,,,,,,,,,,,,,,,,,,,927.0183437000087,928.03733620001,925.9242243999906,925.9242243999906,925.9242243999906,925.9242243999906,new_sceneIn_43.png,224,5.0,1.0893331000115722,,014,1,2024-10-30_14h02.26.552,Surprise recog test,2023.1.3,59.77579295694391,
224,0,224,0,,,,,,,,,,,,,,,,,,,,,,,,,,,,,,,,,,929.244220499997,930.2611655000073,928.03733620001,928.03733620001,928.03733620001,928.03733620001,new_stationery_6.png,225,5.0,1.2095996999996714,,014,1,2024-10-30_14h02.26.552,Surprise recog test,2023.1.3,59.77579295694391,
225,0,225,0,,,,,,,,,,,,,,,,,,,,,,,,,,,,,,,,,,931.2512735000055,932.2709144999972,930.2611655000073,930.2611655000073,930.2611655000073,930.2611655000073,new_sceneIn_21.png,226,5.0,0.9882787000096869,,014,1,2024-10-30_14h02.26.552,Surprise recog test,2023.1.3,59.77579295694391,
226,0,226,0,,,,,,,,,,,,,,,,,,,,,,,,,,,,,,,,,,933.0606961000012,934.0939389000123,932.2709144999972,932.2709144999972,932.2709144999972,932.2709144999972,new_sceneIn_39.png,227,5.0,0.7901661999931093,,014,1,2024-10-30_14h02.26.552,Surprise recog test,2023.1.3,59.77579295694391,
227,0,227,0,,,,,,,,,,,,,,,,,,,,,,,,,,,,,,,,,,934.8056365000084,935.8230108999996,934.0939389000123,934.0939389000123,934.0939389000123,934.0939389000123,new_sceneOut_21.png,228,5.0,0.7147856999945361,,014,1,2024-10-30_14h02.26.552,Surprise recog test,2023.1.3,59.77579295694391,
228,0,228,0,,,,,,,,,,,,,,,,,,,,,,,,,,,,,,,,,,936.485296800005,937.5165738000069,935.8230108999996,935.8230108999996,935.8230108999996,935.8230108999996,old_sceneOut_3.png,229,5.0,0.6625713999965228,,014,1,2024-10-30_14h02.26.552,Surprise recog test,2023.1.3,59.77579295694391,
229,0,229,0,,,,,,,,,,,,,,,,,,,,,,,,,,,,,,,,,,938.3652593000152,939.3897843000013,937.5165738000069,937.5165738000069,937.5165738000069,937.5165738000069,old_sceneIn_12.png,230,5.0,0.8531143000000156,,014,1,2024-10-30_14h02.26.552,Surprise recog test,2023.1.3,59.77579295694391,
230,0,230,0,,,,,,,,,,,,,,,,,,,,,,,,,,,,,,,,,,940.1958316999953,941.2130557000055,939.3897843000013,939.3897843000013,939.3897843000013,939.3897843000013,new_sceneIn_30.png,231,5.0,0.8032433000043966,,014,1,2024-10-30_14h02.26.552,Surprise recog test,2023.1.3,59.77579295694391,
231,0,231,0,,,,,,,,,,,,,,,,,,,,,,,,,,,,,,,,,,943.6081564000051,944.623520299996,941.2130557000055,941.2130557000055,941.2130557000055,941.2130557000055,old_stationery_28.png,232,2.0,2.3934641999949235,,014,1,2024-10-30_14h02.26.552,Surprise recog test,2023.1.3,59.77579295694391,
232,0,232,0,,,,,,,,,,,,,,,,,,,,,,,,,,,,,,,,,,945.6800233999966,946.7054627999896,944.623520299996,944.623520299996,944.623520299996,944.623520299996,old_stationery_20.png,233,5.0,1.0490538000012748,,014,1,2024-10-30_14h02.26.552,Surprise recog test,2023.1.3,59.77579295694391,
233,0,233,0,,,,,,,,,,,,,,,,,,,,,,,,,,,,,,,,,,948.4909367999935,949.5245415999962,946.7054627999896,946.7054627999896,946.7054627999896,946.7054627999896,new_fruit_26.png,234,2.0,1.7879323000088334,,014,1,2024-10-30_14h02.26.552,Surprise recog test,2023.1.3,59.77579295694391,
234,0,234,0,,,,,,,,,,,,,,,,,,,,,,,,,,,,,,,,,,950.9379584999988,951.9567222000042,949.5245415999962,949.5245415999962,949.5245415999962,949.5245415999962,old_sceneOut_14.png,235,5.0,1.4154313999752048,,014,1,2024-10-30_14h02.26.552,Surprise recog test,2023.1.3,59.77579295694391,
235,0,235,0,,,,,,,,,,,,,,,,,,,,,,,,,,,,,,,,,,954.084168100002,955.11366860001,951.9567222000042,951.9567222000042,951.9567222000042,951.9567222000042,new_fruit_28.png,236,3.0,2.1289754000026733,,014,1,2024-10-30_14h02.26.552,Surprise recog test,2023.1.3,59.77579295694391,
236,0,236,0,,,,,,,,,,,,,,,,,,,,,,,,,,,,,,,,,,956.1938626999909,957.2076750000124,955.11366860001,955.11366860001,955.11366860001,955.11366860001,new_sceneOut_45.png,237,5.0,1.082744499988621,,014,1,2024-10-30_14h02.26.552,Surprise recog test,2023.1.3,59.77579295694391,
237,0,237,0,,,,,,,,,,,,,,,,,,,,,,,,,,,,,,,,,,958.0319040000031,959.0707213999995,957.2076750000124,957.2076750000124,957.2076750000124,957.2076750000124,new_sceneIn_16.png,238,5.0,0.8259338000207208,,014,1,2024-10-30_14h02.26.552,Surprise recog test,2023.1.3,59.77579295694391,
238,0,238,0,,,,,,,,,,,,,,,,,,,,,,,,,,,,,,,,,,959.683629200008,960.7120421,959.0707213999995,959.0707213999995,959.0707213999995,959.0707213999995,new_sceneOut_22.png,239,5.0,0.6157522000139579,,014,1,2024-10-30_14h02.26.552,Surprise recog test,2023.1.3,59.77579295694391,
239,0,239,0,,,,,,,,,,,,,,,,,,,,,,,,,,,,,,,,,,961.38841829999,962.417374200013,960.7120421,960.7120421,960.7120421,960.7120421,new_sceneIn_12.png,240,5.0,0.6778359000163618,,014,1,2024-10-30_14h02.26.552,Surprise recog test,2023.1.3,59.77579295694391,
240,0,240,0,,,,,,,,,,,,,,,,,,,,,,,,,,,,,,,,,,963.1708584000007,964.1896484000026,962.417374200013,962.417374200013,962.417374200013,962.417374200013,new_sceneOut_32.png,241,5.0,0.7549070999957621,,014,1,2024-10-30_14h02.26.552,Surprise recog test,2023.1.3,59.77579295694391,
241,0,241,0,,,,,,,,,,,,,,,,,,,,,,,,,,,,,,,,,,964.8719555000134,965.8947823999915,964.1896484000026,964.1896484000026,964.1896484000026,964.1896484000026,old_sceneOut_30.png,242,5.0,0.6780211000004783,,014,1,2024-10-30_14h02.26.552,Surprise recog test,2023.1.3,59.77579295694391,
242,0,242,0,,,,,,,,,,,,,,,,,,,,,,,,,,,,,,,,,,966.6121390000044,967.6429777999874,965.8947823999915,965.8947823999915,965.8947823999915,965.8947823999915,new_sceneOut_17.png,243,5.0,0.716938300000038,,014,1,2024-10-30_14h02.26.552,Surprise recog test,2023.1.3,59.77579295694391,
243,0,243,0,,,,,,,,,,,,,,,,,,,,,,,,,,,,,,,,,,969.1873380999896,970.193652099988,967.6429777999874,967.6429777999874,967.6429777999874,967.6429777999874,old_fruit_12.png,244,2.0,1.5468613000120968,,014,1,2024-10-30_14h02.26.552,Surprise recog test,2023.1.3,59.77579295694391,
244,0,244,0,,,,,,,,,,,,,,,,,,,,,,,,,,,,,,,,,,971.5469229999871,972.5707937999978,970.193652099988,970.193652099988,970.193652099988,970.193652099988,old_fruit_11.png,245,1.0,1.348760199995013,,014,1,2024-10-30_14h02.26.552,Surprise recog test,2023.1.3,59.77579295694391,
245,0,245,0,,,,,,,,,,,,,,,,,,,,,,,,,,,,,,,,,,973.9426512999926,,972.5707937999978,972.5707937999978,972.5707937999978,972.5707937999978,old_sceneIn_44.png,246,5.0,1.3694516000105068,,014,1,2024-10-30_14h02.26.552,Surprise recog test,2023.1.3,59.77579295694391,
246,0,246,0,,,,,,,,,,,,,,,,,,,,,,,,,,,,,,,,,,975.8299695999885,976.8635771000118,974.9767244000104,974.9767244000104,974.9767244000104,974.9767244000104,old_sceneOut_50.png,247,5.0,0.8584428000031039,,014,1,2024-10-30_14h02.26.552,Surprise recog test,2023.1.3,59.77579295694391,
247,0,247,0,,,,,,,,,,,,,,,,,,,,,,,,,,,,,,,,,,977.5621186000062,,976.8635771000118,976.8635771000118,976.8635771000118,976.8635771000118,new_sceneOut_38.png,248,5.0,0.7001340000133496,,014,1,2024-10-30_14h02.26.552,Surprise recog test,2023.1.3,59.77579295694391,
248,0,248,0,,,,,,,,,,,,,,,,,,,,,,,,,,,,,,,,,,979.346062800003,980.3532519,978.5977677000046,978.5977677000046,978.5977677000046,978.5977677000046,new_sceneIn_25.png,249,5.0,0.7496038999815937,,014,1,2024-10-30_14h02.26.552,Surprise recog test,2023.1.3,59.77579295694391,
249,0,249,0,,,,,,,,,,,,,,,,,,,,,,,,,,,,,,,,,,981.5780617000128,982.6002415000112,980.3532519,980.3532519,980.3532519,980.3532519,new_sceneOut_18.png,250,5.0,1.2204494000179693,,014,1,2024-10-30_14h02.26.552,Surprise recog test,2023.1.3,59.77579295694391,
250,0,250,0,,,,,,,,,,,,,,,,,,,,,,,,,,,,,,,,,,983.2893580000091,984.3182746999955,982.6002415000112,982.6002415000112,982.6002415000112,982.6002415000112,old_sceneIn_16.png,251,5.0,0.6930609999981243,,014,1,2024-10-30_14h02.26.552,Surprise recog test,2023.1.3,59.77579295694391,
251,0,251,0,,,,,,,,,,,,,,,,,,,,,,,,,,,,,,,,,,986.1255104999873,987.1394293000048,984.3182746999955,984.3182746999955,984.3182746999955,984.3182746999955,old_sceneIn_27.png,252,5.0,1.8095948999980465,,014,1,2024-10-30_14h02.26.552,Surprise recog test,2023.1.3,59.77579295694391,
252,0,252,0,,,,,,,,,,,,,,,,,,,,,,,,,,,,,,,,,,988.2369951000146,989.2521814999927,987.1394293000048,987.1394293000048,987.1394293000048,987.1394293000048,old_sceneIn_45.png,253,5.0,1.0944421000021975,,014,1,2024-10-30_14h02.26.552,Surprise recog test,2023.1.3,59.77579295694391,
253,0,253,0,,,,,,,,,,,,,,,,,,,,,,,,,,,,,,,,,,990.0191442999931,991.043001699989,989.2521814999927,989.2521814999927,989.2521814999927,989.2521814999927,old_sceneOut_41.png,254,5.0,0.7696145999943838,,014,1,2024-10-30_14h02.26.552,Surprise recog test,2023.1.3,59.77579295694391,
254,0,254,0,,,,,,,,,,,,,,,,,,,,,,,,,,,,,,,,,,993.1848801999877,994.2075186000147,991.043001699989,991.043001699989,991.043001699989,991.043001699989,new_fruit_42.png,255,4.0,2.1488296999887098,,014,1,2024-10-30_14h02.26.552,Surprise recog test,2023.1.3,59.77579295694391,
255,0,255,0,,,,,,,,,,,,,,,,,,,,,,,,,,,,,,,,,,995.6029500000004,996.6316624000028,994.2075186000147,994.2075186000147,994.2075186000147,994.2075186000147,new_stationery_23.png,256,3.0,1.3971217000216711,,014,1,2024-10-30_14h02.26.552,Surprise recog test,2023.1.3,59.77579295694391,
256,0,256,0,,,,,,,,,,,,,,,,,,,,,,,,,,,,,,,,,,997.9814785000053,999.0031495000003,996.6316624000028,996.6316624000028,996.6316624000028,996.6316624000028,old_fruit_30.png,257,2.0,1.3526363000273705,,014,1,2024-10-30_14h02.26.552,Surprise recog test,2023.1.3,59.77579295694391,
257,0,257,0,,,,,,,,,,,,,,,,,,,,,,,,,,,,,,,,,,1000.8335776999884,,999.0031495000003,999.0031495000003,999.0031495000003,999.0031495000003,old_sceneIn_37.png,258,5.0,1.8268428000155836,,014,1,2024-10-30_14h02.26.552,Surprise recog test,2023.1.3,59.77579295694391,
258,0,258,0,,,,,,,,,,,,,,,,,,,,,,,,,,,,,,,,,,1003.3240791000135,1004.3453083999921,1001.8683254999924,1001.8683254999924,1001.8683254999924,1001.8683254999924,old_sceneIn_20.png,259,5.0,1.4552019000111613,,014,1,2024-10-30_14h02.26.552,Surprise recog test,2023.1.3,59.77579295694391,
259,0,259,0,,,,,,,,,,,,,,,,,,,,,,,,,,,,,,,,,,1005.2839101999998,1006.3055687999877,1004.3453083999921,1004.3453083999921,1004.3453083999921,1004.3453083999921,old_sceneOut_9.png,260,5.0,0.9396170999971218,,014,1,2024-10-30_14h02.26.552,Surprise recog test,2023.1.3,59.77579295694391,
260,0,260,0,,,,,,,,,,,,,,,,,,,,,,,,,,,,,,,,,,1007.6849308999954,1008.7056520000042,1006.3055687999877,1006.3055687999877,1006.3055687999877,1006.3055687999877,new_stationery_15.png,261,1.0,1.3798752000147942,,014,1,2024-10-30_14h02.26.552,Surprise recog test,2023.1.3,59.77579295694391,
261,0,261,0,,,,,,,,,,,,,,,,,,,,,,,,,,,,,,,,,,1011.096074400004,1012.1245684000023,1008.7056520000042,1008.7056520000042,1008.7056520000042,1008.7056520000042,new_stationery_48.png,262,5.0,2.393619700014824,,014,1,2024-10-30_14h02.26.552,Surprise recog test,2023.1.3,59.77579295694391,
262,0,262,0,,,,,,,,,,,,,,,,,,,,,,,,,,,,,,,,,,1013.9273732999864,,1012.1245684000023,1012.1245684000023,1012.1245684000023,1012.1245684000023,new_stationery_13.png,263,4.0,1.8054376000072807,,014,1,2024-10-30_14h02.26.552,Surprise recog test,2023.1.3,59.77579295694391,
263,0,263,0,,,,,,,,,,,,,,,,,,,,,,,,,,,,,,,,,,1017.1930194000015,1018.2072658000106,1014.9539667000063,1014.9539667000063,1014.9539667000063,1014.9539667000063,new_sceneOut_31.png,264,3.0,2.2308555000054184,,014,1,2024-10-30_14h02.26.552,Surprise recog test,2023.1.3,59.77579295694391,
264,0,264,0,,,,,,,,,,,,,,,,,,,,,,,,,,,,,,,,,,1019.8158948000055,,1018.2072658000106,1018.2072658000106,1018.2072658000106,1018.2072658000106,new_stationery_45.png,265,5.0,1.6074316000158433,,014,1,2024-10-30_14h02.26.552,Surprise recog test,2023.1.3,59.77579295694391,
265,0,265,0,,,,,,,,,,,,,,,,,,,,,,,,,,,,,,,,,,1022.3998119999887,,1020.8483708999993,1020.8483708999993,1020.8483708999993,1020.8483708999993,old_stationery_47.png,266,2.0,1.5512357999978121,,014,1,2024-10-30_14h02.26.552,Surprise recog test,2023.1.3,59.77579295694391,
266,0,266,0,,,,,,,,,,,,,,,,,,,,,,,,,,,,,,,,,,1024.6328746000072,1025.6490156000073,1023.4344001999998,1023.4344001999998,1023.4344001999998,1023.4344001999998,new_fruit_17.png,267,1.0,1.2007649000152014,,014,1,2024-10-30_14h02.26.552,Surprise recog test,2023.1.3,59.77579295694391,
267,0,267,0,,,,,,,,,,,,,,,,,,,,,,,,,,,,,,,,,,1026.995049499994,1028.0177295999893,1025.6490156000073,1025.6490156000073,1025.6490156000073,1025.6490156000073,new_sceneIn_46.png,268,5.0,1.3478269000188448,,014,1,2024-10-30_14h02.26.552,Surprise recog test,2023.1.3,59.77579295694391,
268,0,268,0,,,,,,,,,,,,,,,,,,,,,,,,,,,,,,,,,,1029.1085965000093,1030.1397776000085,1028.0177295999893,1028.0177295999893,1028.0177295999893,1028.0177295999893,new_sceneIn_9.png,269,5.0,1.0923328999779187,,014,1,2024-10-30_14h02.26.552,Surprise recog test,2023.1.3,59.77579295694391,
269,0,269,0,,,,,,,,,,,,,,,,,,,,,,,,,,,,,,,,,,1032.5840470000112,1033.6012883000076,1030.1397776000085,1030.1397776000085,1030.1397776000085,1030.1397776000085,old_fruit_46.png,270,3.0,2.4461961000051815,,014,1,2024-10-30_14h02.26.552,Surprise recog test,2023.1.3,59.77579295694391,
270,0,270,0,,,,,,,,,,,,,,,,,,,,,,,,,,,,,,,,,,1035.9305538999906,1036.965335099987,1033.6012883000076,1033.6012883000076,1033.6012883000076,1033.6012883000076,old_fruit_48.png,271,3.0,2.328218599985121,,014,1,2024-10-30_14h02.26.552,Surprise recog test,2023.1.3,59.77579295694391,
271,0,271,0,,,,,,,,,,,,,,,,,,,,,,,,,,,,,,,,,,1038.512894399988,,1036.965335099987,1036.965335099987,1036.965335099987,1036.965335099987,old_fruit_38.png,272,1.0,1.548156700009713,,014,1,2024-10-30_14h02.26.552,Surprise recog test,2023.1.3,59.77579295694391,
272,0,272,0,,,,,,,,,,,,,,,,,,,,,,,,,,,,,,,,,,1041.0897094999964,1042.1116440999904,1039.5349074999976,1039.5349074999976,1039.5349074999976,1039.5349074999976,old_fruit_34.png,273,2.0,1.5479700000141747,,014,1,2024-10-30_14h02.26.552,Surprise recog test,2023.1.3,59.77579295694391,
273,0,273,0,,,,,,,,,,,,,,,,,,,,,,,,,,,,,,,,,,1043.9264209000103,1044.9457766000123,1042.1116440999904,1042.1116440999904,1042.1116440999904,1042.1116440999904,old_fruit_6.png,274,1.0,1.8164848000160418,,014,1,2024-10-30_14h02.26.552,Surprise recog test,2023.1.3,59.77579295694391,
274,0,274,0,,,,,,,,,,,,,,,,,,,,,,,,,,,,,,,,,,1046.2605943999952,1047.2832002000068,1044.9457766000123,1044.9457766000123,1044.9457766000123,1044.9457766000123,new_sceneIn_5.png,275,5.0,1.310674399981508,,014,1,2024-10-30_14h02.26.552,Surprise recog test,2023.1.3,59.77579295694391,
275,0,275,0,,,,,,,,,,,,,,,,,,,,,,,,,,,,,,,,,,1047.9845156999945,1048.9986420999921,1047.2832002000068,1047.2832002000068,1047.2832002000068,1047.2832002000068,new_sceneIn_32.png,276,5.0,0.7026537999918219,,014,1,2024-10-30_14h02.26.552,Surprise recog test,2023.1.3,59.77579295694391,
276,0,276,0,,,,,,,,,,,,,,,,,,,,,,,,,,,,,,,,,,1050.0540129000146,1051.0712026999972,1048.9986420999921,1048.9986420999921,1048.9986420999921,1048.9986420999921,old_stationery_43.png,277,5.0,1.0564394000102766,,014,1,2024-10-30_14h02.26.552,Surprise recog test,2023.1.3,59.77579295694391,
277,0,277,0,,,,,,,,,,,,,,,,,,,,,,,,,,,,,,,,,,1052.271904299996,1053.2783445999958,1051.0712026999972,1051.0712026999972,1051.0712026999972,1051.0712026999972,old_fruit_8.png,278,1.0,1.202365400007693,,014,1,2024-10-30_14h02.26.552,Surprise recog test,2023.1.3,59.77579295694391,
278,0,278,0,,,,,,,,,,,,,,,,,,,,,,,,,,,,,,,,,,1055.47192370001,1056.4885600999987,1053.2783445999958,1053.2783445999958,1053.2783445999958,1053.2783445999958,new_sceneOut_19.png,279,2.0,2.190469299996039,,014,1,2024-10-30_14h02.26.552,Surprise recog test,2023.1.3,59.77579295694391,
279,0,279,0,,,,,,,,,,,,,,,,,,,,,,,,,,,,,,,,,,1059.1091241000104,1060.1298086000024,1056.4885600999987,1056.4885600999987,1056.4885600999987,1056.4885600999987,new_fruit_24.png,280,4.0,2.6185153999831527,,014,1,2024-10-30_14h02.26.552,Surprise recog test,2023.1.3,59.77579295694391,
280,0,280,0,,,,,,,,,,,,,,,,,,,,,,,,,,,,,,,,,,1061.261659300013,1062.2742895999982,1060.1298086000024,1060.1298086000024,1060.1298086000024,1060.1298086000024,new_stationery_39.png,281,5.0,1.133409500005655,,014,1,2024-10-30_14h02.26.552,Surprise recog test,2023.1.3,59.77579295694391,
281,0,281,0,,,,,,,,,,,,,,,,,,,,,,,,,,,,,,,,,,1063.0150763000129,1064.0289242000144,1062.2742895999982,1062.2742895999982,1062.2742895999982,1062.2742895999982,new_sceneIn_19.png,282,5.0,0.740503400011221,,014,1,2024-10-30_14h02.26.552,Surprise recog test,2023.1.3,59.77579295694391,
282,0,282,0,,,,,,,,,,,,,,,,,,,,,,,,,,,,,,,,,,1065.1941972000059,1066.2195947,1064.0289242000144,1064.0289242000144,1064.0289242000144,1064.0289242000144,old_fruit_36.png,283,1.0,1.1662933000188787,,014,1,2024-10-30_14h02.26.552,Surprise recog test,2023.1.3,59.77579295694391,
283,0,283,0,,,,,,,,,,,,,,,,,,,,,,,,,,,,,,,,,,1068.1009422999923,1069.1208710999927,1066.2195947,1066.2195947,1066.2195947,1066.2195947,new_stationery_17.png,284,3.0,1.8805136999872047,,014,1,2024-10-30_14h02.26.552,Surprise recog test,2023.1.3,59.77579295694391,
284,0,284,0,,,,,,,,,,,,,,,,,,,,,,,,,,,,,,,,,,1071.7736404000025,1072.7868614000035,1069.1208710999927,1069.1208710999927,1069.1208710999927,1069.1208710999927,new_sceneIn_38.png,285,4.0,2.6532531000266317,,014,1,2024-10-30_14h02.26.552,Surprise recog test,2023.1.3,59.77579295694391,
285,0,285,0,,,,,,,,,,,,,,,,,,,,,,,,,,,,,,,,,,1074.2099935000006,,1072.7868614000035,1072.7868614000035,1072.7868614000035,1072.7868614000035,old_stationery_37.png,286,5.0,1.4168629000196233,,014,1,2024-10-30_14h02.26.552,Surprise recog test,2023.1.3,59.77579295694391,
286,0,286,0,,,,,,,,,,,,,,,,,,,,,,,,,,,,,,,,,,1076.858937699988,1077.880198400002,1075.2377481000149,1075.2377481000149,1075.2377481000149,1075.2377481000149,old_fruit_5.png,287,1.0,1.62150660000043,,014,1,2024-10-30_14h02.26.552,Surprise recog test,2023.1.3,59.77579295694391,
287,0,287,0,,,,,,,,,,,,,,,,,,,,,,,,,,,,,,,,,,1079.369073400012,1080.3935337000003,1077.880198400002,1077.880198400002,1077.880198400002,1077.880198400002,new_stationery_50.png,288,4.0,1.4904779999924358,,014,1,2024-10-30_14h02.26.552,Surprise recog test,2023.1.3,59.77579295694391,
288,0,288,0,,,,,,,,,,,,,,,,,,,,,,,,,,,,,,,,,,1081.5129238000081,1082.52183469999,1080.3935337000003,1080.3935337000003,1080.3935337000003,1080.3935337000003,new_sceneOut_8.png,289,5.0,1.119759699999122,,014,1,2024-10-30_14h02.26.552,Surprise recog test,2023.1.3,59.77579295694391,
289,0,289,0,,,,,,,,,,,,,,,,,,,,,,,,,,,,,,,,,,1083.882008399989,1084.9024508000002,1082.52183469999,1082.52183469999,1082.52183469999,1082.52183469999,old_fruit_35.png,290,1.0,1.3527346000191756,,014,1,2024-10-30_14h02.26.552,Surprise recog test,2023.1.3,59.77579295694391,
290,0,290,0,,,,,,,,,,,,,,,,,,,,,,,,,,,,,,,,,,1085.7506388000038,1086.7732756999903,1084.9024508000002,1084.9024508000002,1084.9024508000002,1084.9024508000002,new_stationery_28.png,291,1.0,0.8495357999927364,,014,1,2024-10-30_14h02.26.552,Surprise recog test,2023.1.3,59.77579295694391,
291,0,291,0,,,,,,,,,,,,,,,,,,,,,,,,,,,,,,,,,,1088.4049317000026,,1086.7732756999903,1086.7732756999903,1086.7732756999903,1086.7732756999903,new_fruit_12.png,292,2.0,1.6342668999859598,,014,1,2024-10-30_14h02.26.552,Surprise recog test,2023.1.3,59.77579295694391,
292,0,292,0,,,,,,,,,,,,,,,,,,,,,,,,,,,,,,,,,,1091.1425736999954,1092.1756399000005,1089.4379814999993,1089.4379814999993,1089.4379814999993,1089.4379814999993,new_fruit_4.png,293,4.0,1.7056989999837242,,014,1,2024-10-30_14h02.26.552,Surprise recog test,2023.1.3,59.77579295694391,
293,0,293,0,,,,,,,,,,,,,,,,,,,,,,,,,,,,,,,,,,1093.479591100011,1094.508357100014,1092.1756399000005,1092.1756399000005,1092.1756399000005,1092.1756399000005,old_fruit_43.png,294,1.0,1.3061501000192948,,014,1,2024-10-30_14h02.26.552,Surprise recog test,2023.1.3,59.77579295694391,
294,0,294,0,,,,,,,,,,,,,,,,,,,,,,,,,,,,,,,,,,1095.7489942999964,1096.7739898000145,1094.508357100014,1094.508357100014,1094.508357100014,1094.508357100014,new_sceneIn_42.png,295,5.0,1.2449549000011757,,014,1,2024-10-30_14h02.26.552,Surprise recog test,2023.1.3,59.77579295694391,
295,0,295,0,,,,,,,,,,,,,,,,,,,,,,,,,,,,,,,,,,1097.661313299992,1098.675092599995,1096.7739898000145,1096.7739898000145,1096.7739898000145,1096.7739898000145,old_sceneIn_3.png,296,5.0,0.8897310000029393,,014,1,2024-10-30_14h02.26.552,Surprise recog test,2023.1.3,59.77579295694391,
296,0,296,0,,,,,,,,,,,,,,,,,,,,,,,,,,,,,,,,,,1099.353703700006,1100.3836193000025,1098.675092599995,1098.675092599995,1098.675092599995,1098.675092599995,old_sceneOut_8.png,297,5.0,0.6793940999777988,,014,1,2024-10-30_14h02.26.552,Surprise recog test,2023.1.3,59.77579295694391,
297,0,297,0,,,,,,,,,,,,,,,,,,,,,,,,,,,,,,,,,,1102.1107892,1103.1304900000105,1100.3836193000025,1100.3836193000025,1100.3836193000025,1100.3836193000025,old_fruit_37.png,298,4.0,1.7276596000010613,,014,1,2024-10-30_14h02.26.552,Surprise recog test,2023.1.3,59.77579295694391,
298,0,298,0,,,,,,,,,,,,,,,,,,,,,,,,,,,,,,,,,,1104.2874381000001,1105.3244302000094,1103.1304900000105,1103.1304900000105,1103.1304900000105,1103.1304900000105,old_sceneIn_5.png,299,5.0,1.1583725000091363,,014,1,2024-10-30_14h02.26.552,Surprise recog test,2023.1.3,59.77579295694391,
299,0,299,0,,,,,,,,,,,,,,,,,,,,,,,,,,,,,,,,,,1108.0044046000112,,1105.3244302000094,1105.3244302000094,1105.3244302000094,1105.3244302000094,old_stationery_13.png,300,5.0,2.6828769000130706,,014,1,2024-10-30_14h02.26.552,Surprise recog test,2023.1.3,59.77579295694391,
300,0,300,0,,,,,,,,,,,,,,,,,,,,,,,,,,,,,,,,,,1110.5479491000006,1111.5680054000113,1109.0362696000084,1109.0362696000084,1109.0362696000084,1109.0362696000084,new_fruit_27.png,301,4.0,1.510796600021422,,014,1,2024-10-30_14h02.26.552,Surprise recog test,2023.1.3,59.77579295694391,
301,0,301,0,,,,,,,,,,,,,,,,,,,,,,,,,,,,,,,,,,1113.214339099999,1114.2439254999917,1111.5680054000113,1111.5680054000113,1111.5680054000113,1111.5680054000113,new_sceneIn_20.png,302,5.0,1.6454268000088632,,014,1,2024-10-30_14h02.26.552,Surprise recog test,2023.1.3,59.77579295694391,
302,0,302,0,,,,,,,,,,,,,,,,,,,,,,,,,,,,,,,,,,1115.866258199996,1116.888515700004,1114.2439254999917,1114.2439254999917,1114.2439254999917,1114.2439254999917,new_fruit_48.png,303,2.0,1.6221916000067722,,014,1,2024-10-30_14h02.26.552,Surprise recog test,2023.1.3,59.77579295694391,
303,0,303,0,,,,,,,,,,,,,,,,,,,,,,,,,,,,,,,,,,1117.9529712999938,1118.9756615000078,1116.888515700004,1116.888515700004,1116.888515700004,1116.888515700004,new_sceneIn_47.png,304,5.0,1.0619421000010334,,014,1,2024-10-30_14h02.26.552,Surprise recog test,2023.1.3,59.77579295694391,
304,0,304,0,,,,,,,,,,,,,,,,,,,,,,,,,,,,,,,,,,1120.7844532000017,1121.8106876999955,1118.9756615000078,1118.9756615000078,1118.9756615000078,1118.9756615000078,old_stationery_8.png,305,1.0,1.8101965000096243,,014,1,2024-10-30_14h02.26.552,Surprise recog test,2023.1.3,59.77579295694391,
305,0,305,0,,,,,,,,,,,,,,,,,,,,,,,,,,,,,,,,,,1123.5487004999886,1124.552752299991,1121.8106876999955,1121.8106876999955,1121.8106876999955,1121.8106876999955,old_fruit_40.png,306,1.0,1.7398128999921028,,014,1,2024-10-30_14h02.26.552,Surprise recog test,2023.1.3,59.77579295694391,
306,0,306,0,,,,,,,,,,,,,,,,,,,,,,,,,,,,,,,,,,1126.305624600005,1127.3300082999922,1124.552752299991,1124.552752299991,1124.552752299991,1124.552752299991,new_sceneIn_28.png,307,4.0,1.7487029999902006,,014,1,2024-10-30_14h02.26.552,Surprise recog test,2023.1.3,59.77579295694391,
307,0,307,0,,,,,,,,,,,,,,,,,,,,,,,,,,,,,,,,,,1128.7385705999914,,1127.3300082999922,1127.3300082999922,1127.3300082999922,1127.3300082999922,old_stationery_45.png,308,5.0,1.4066652999899816,,014,1,2024-10-30_14h02.26.552,Surprise recog test,2023.1.3,59.77579295694391,
308,0,308,0,,,,,,,,,,,,,,,,,,,,,,,,,,,,,,,,,,1130.4893597000046,,1129.7697882000066,1129.7697882000066,1129.7697882000066,1129.7697882000066,new_sceneIn_22.png,309,5.0,0.7198466999980155,,014,1,2024-10-30_14h02.26.552,Surprise recog test,2023.1.3,59.77579295694391,
309,0,309,0,,,,,,,,,,,,,,,,,,,,,,,,,,,,,,,,,,1132.2133684,1133.238959899987,1131.5110268999997,1131.5110268999997,1131.5110268999997,1131.5110268999997,new_sceneOut_4.png,310,5.0,0.6950986000010744,,014,1,2024-10-30_14h02.26.552,Surprise recog test,2023.1.3,59.77579295694391,
310,0,310,0,,,,,,,,,,,,,,,,,,,,,,,,,,,,,,,,,,1133.919534399989,1134.9323361999996,1133.238959899987,1133.238959899987,1133.238959899987,1133.238959899987,new_sceneIn_2.png,311,5.0,0.682077700010268,,014,1,2024-10-30_14h02.26.552,Surprise recog test,2023.1.3,59.77579295694391,
311,0,311,0,,,,,,,,,,,,,,,,,,,,,,,,,,,,,,,,,,1137.6497315999877,1138.6642868999916,1134.9323361999996,1134.9323361999996,1134.9323361999996,1134.9323361999996,old_fruit_19.png,312,2.0,2.7109945000265725,,014,1,2024-10-30_14h02.26.552,Surprise recog test,2023.1.3,59.77579295694391,
312,0,312,0,,,,,,,,,,,,,,,,,,,,,,,,,,,,,,,,,,1139.7818628000095,,1138.6642868999916,1138.6642868999916,1138.6642868999916,1138.6642868999916,new_sceneOut_13.png,313,5.0,1.1129421000077855,,014,1,2024-10-30_14h02.26.552,Surprise recog test,2023.1.3,59.77579295694391,
313,0,313,0,,,,,,,,,,,,,,,,,,,,,,,,,,,,,,,,,,1142.5762911000056,1143.6015263000154,1140.807948600006,1140.807948600006,1140.807948600006,1140.807948600006,new_stationery_27.png,314,4.0,1.7683328999846708,,014,1,2024-10-30_14h02.26.552,Surprise recog test,2023.1.3,59.77579295694391,
314,0,314,0,,,,,,,,,,,,,,,,,,,,,,,,,,,,,,,,,,1145.5430934999895,1146.5703106000146,1143.6015263000154,1143.6015263000154,1143.6015263000154,1143.6015263000154,new_fruit_37.png,315,3.0,1.942939300002763,,014,1,2024-10-30_14h02.26.552,Surprise recog test,2023.1.3,59.77579295694391,
315,0,315,0,,,,,,,,,,,,,,,,,,,,,,,,,,,,,,,,,,1147.7537885000056,,1146.5703106000146,1146.5703106000146,1146.5703106000146,1146.5703106000146,old_stationery_7.png,316,5.0,1.1838012000080198,,014,1,2024-10-30_14h02.26.552,Surprise recog test,2023.1.3,59.77579295694391,
316,0,316,0,,,,,,,,,,,,,,,,,,,,,,,,,,,,,,,,,,1149.8366225000063,1150.845984399988,1148.7785401,1148.7785401,1148.7785401,1148.7785401,new_stationery_9.png,317,5.0,1.0506523000076413,,014,1,2024-10-30_14h02.26.552,Surprise recog test,2023.1.3,59.77579295694391,
317,0,317,0,,,,,,,,,,,,,,,,,,,,,,,,,,,,,,,,,,1151.7462210000085,1152.759064999991,1150.845984399988,1150.845984399988,1150.845984399988,1150.845984399988,new_sceneOut_25.png,318,5.0,0.8940805000020191,,014,1,2024-10-30_14h02.26.552,Surprise recog test,2023.1.3,59.77579295694391,
318,0,318,0,,,,,,,,,,,,,,,,,,,,,,,,,,,,,,,,,,1153.481003599998,1154.4972945000045,1152.759064999991,1152.759064999991,1152.759064999991,1152.759064999991,new_sceneIn_17.png,319,5.0,0.7170942000229843,,014,1,2024-10-30_14h02.26.552,Surprise recog test,2023.1.3,59.77579295694391,
319,0,319,0,,,,,,,,,,,,,,,,,,,,,,,,,,,,,,,,,,1155.3488025999977,1156.365845799999,1154.4972945000045,1154.4972945000045,1154.4972945000045,1154.4972945000045,new_stationery_49.png,320,5.0,0.8471186000097077,,014,1,2024-10-30_14h02.26.552,Surprise recog test,2023.1.3,59.77579295694391,
320,0,320,0,,,,,,,,,,,,,,,,,,,,,,,,,,,,,,,,,,1158.1434490999964,1159.1594769000076,1156.365845799999,1156.365845799999,1156.365845799999,1156.365845799999,old_stationery_15.png,321,3.0,1.7683686000236776,,014,1,2024-10-30_14h02.26.552,Surprise recog test,2023.1.3,59.77579295694391,
321,0,321,0,,,,,,,,,,,,,,,,,,,,,,,,,,,,,,,,,,1160.4794035000086,1161.4965583999874,1159.1594769000076,1159.1594769000076,1159.1594769000076,1159.1594769000076,old_fruit_26.png,322,1.0,1.315855399996508,,014,1,2024-10-30_14h02.26.552,Surprise recog test,2023.1.3,59.77579295694391,
322,0,322,0,,,,,,,,,,,,,,,,,,,,,,,,,,,,,,,,,,1164.2301596000034,1165.2359701000096,1161.4965583999874,1161.4965583999874,1161.4965583999874,1161.4965583999874,new_fruit_8.png,323,2.0,2.7350921999895945,,014,1,2024-10-30_14h02.26.552,Surprise recog test,2023.1.3,59.77579295694391,
323,0,323,0,,,,,,,,,,,,,,,,,,,,,,,,,,,,,,,,,,1166.708885,1167.725479899993,1165.2359701000096,1165.2359701000096,1165.2359701000096,1165.2359701000096,old_stationery_40.png,324,1.0,1.4662035999936052,,014,1,2024-10-30_14h02.26.552,Surprise recog test,2023.1.3,59.77579295694391,
324,0,324,0,,,,,,,,,,,,,,,,,,,,,,,,,,,,,,,,,,1169.291090899991,1170.3168629000138,1167.725479899993,1167.725479899993,1167.725479899993,1167.725479899993,old_sceneOut_28.png,325,5.0,1.561354500008747,,014,1,2024-10-30_14h02.26.552,Surprise recog test,2023.1.3,59.77579295694391,
325,0,325,0,,,,,,,,,,,,,,,,,,,,,,,,,,,,,,,,,,1171.361414599989,1172.390446800011,1170.3168629000138,1170.3168629000138,1170.3168629000138,1170.3168629000138,new_stationery_5.png,326,5.0,1.0439531999872997,,014,1,2024-10-30_14h02.26.552,Surprise recog test,2023.1.3,59.77579295694391,
326,0,326,0,,,,,,,,,,,,,,,,,,,,,,,,,,,,,,,,,,1173.3685030000051,1174.3934919000021,1172.390446800011,1172.390446800011,1172.390446800011,1172.390446800011,new_stationery_7.png,327,5.0,0.9752049999951851,,014,1,2024-10-30_14h02.26.552,Surprise recog test,2023.1.3,59.77579295694391,
327,0,327,0,,,,,,,,,,,,,,,,,,,,,,,,,,,,,,,,,,1176.3419426000037,1177.347501000011,1174.3934919000021,1174.3934919000021,1174.3934919000021,1174.3934919000021,old_fruit_33.png,328,2.0,1.9456199000123888,,014,1,2024-10-30_14h02.26.552,Surprise recog test,2023.1.3,59.77579295694391,
328,0,328,0,,,,,,,,,,,,,,,,,,,,,,,,,,,,,,,,,,1178.8492554000113,1179.8720858999877,1177.347501000011,1177.347501000011,1177.347501000011,1177.347501000011,new_sceneIn_27.png,329,5.0,1.4991213000030257,,014,1,2024-10-30_14h02.26.552,Surprise recog test,2023.1.3,59.77579295694391,
329,0,329,0,,,,,,,,,,,,,,,,,,,,,,,,,,,,,,,,,,1181.9997139000043,,1179.8720858999877,1179.8720858999877,1179.8720858999877,1179.8720858999877,new_stationery_47.png,330,4.0,2.128020399977686,,014,1,2024-10-30_14h02.26.552,Surprise recog test,2023.1.3,59.77579295694391,
330,0,330,0,,,,,,,,,,,,,,,,,,,,,,,,,,,,,,,,,,1185.1964670000016,1186.207852499996,1183.0310099000053,1183.0310099000053,1183.0310099000053,1183.0310099000053,new_stationery_41.png,331,1.0,2.1648331999895163,,014,1,2024-10-30_14h02.26.552,Surprise recog test,2023.1.3,59.77579295694391,
331,0,331,0,,,,,,,,,,,,,,,,,,,,,,,,,,,,,,,,,,1187.4308507000096,1188.450761199987,1186.207852499996,1186.207852499996,1186.207852499996,1186.207852499996,new_stationery_42.png,332,5.0,1.216317100013839,,014,1,2024-10-30_14h02.26.552,Surprise recog test,2023.1.3,59.77579295694391,
332,0,332,0,,,,,,,,,,,,,,,,,,,,,,,,,,,,,,,,,,1190.0700358999893,1191.086921899987,1188.450761199987,1188.450761199987,1188.450761199987,1188.450761199987,new_fruit_29.png,333,5.0,1.6208289000205696,,014,1,2024-10-30_14h02.26.552,Surprise recog test,2023.1.3,59.77579295694391,
333,0,333,0,,,,,,,,,,,,,,,,,,,,,,,,,,,,,,,,,,1193.5577122000104,1194.5657929000154,1191.086921899987,1191.086921899987,1191.086921899987,1191.086921899987,old_stationery_44.png,334,4.0,2.467920099996263,,014,1,2024-10-30_14h02.26.552,Surprise recog test,2023.1.3,59.77579295694391,
334,0,334,0,,,,,,,,,,,,,,,,,,,,,,,,,,,,,,,,,,1196.0625476000132,,1194.5657929000154,1194.5657929000154,1194.5657929000154,1194.5657929000154,new_sceneIn_45.png,335,5.0,1.4894378999888431,,014,1,2024-10-30_14h02.26.552,Surprise recog test,2023.1.3,59.77579295694391,
335,0,335,0,,,,,,,,,,,,,,,,,,,,,,,,,,,,,,,,,,1197.784323400003,1198.809581700014,1197.0947955999873,1197.0947955999873,1197.0947955999873,1197.0947955999873,old_sceneIn_39.png,336,5.0,0.690569600003073,,014,1,2024-10-30_14h02.26.552,Surprise recog test,2023.1.3,59.77579295694391,
336,0,336,0,,,,,,,,,,,,,,,,,,,,,,,,,,,,,,,,,,1199.5592415000137,1200.5797544000088,1198.809581700014,1198.809581700014,1198.809581700014,1198.809581700014,old_sceneOut_46.png,337,5.0,0.7490288999979384,,014,1,2024-10-30_14h02.26.552,Surprise recog test,2023.1.3,59.77579295694391,
337,0,337,0,,,,,,,,,,,,,,,,,,,,,,,,,,,,,,,,,,1202.237013200007,1203.2699166999955,1200.5797544000088,1200.5797544000088,1200.5797544000088,1200.5797544000088,old_fruit_50.png,338,1.0,1.6570757999725174,,014,1,2024-10-30_14h02.26.552,Surprise recog test,2023.1.3,59.77579295694391,
338,0,338,0,,,,,,,,,,,,,,,,,,,,,,,,,,,,,,,,,,1204.3242437000154,1205.351223900012,1203.2699166999955,1203.2699166999955,1203.2699166999955,1203.2699166999955,new_sceneOut_24.png,339,5.0,1.0558709000179078,,014,1,2024-10-30_14h02.26.552,Surprise recog test,2023.1.3,59.77579295694391,
339,0,339,0,,,,,,,,,,,,,,,,,,,,,,,,,,,,,,,,,,1206.269398000004,,1205.351223900012,1205.351223900012,1205.351223900012,1205.351223900012,new_stationery_43.png,340,5.0,0.9175488000037149,,014,1,2024-10-30_14h02.26.552,Surprise recog test,2023.1.3,59.77579295694391,
340,0,340,0,,,,,,,,,,,,,,,,,,,,,,,,,,,,,,,,,,1207.934914499987,1208.9395374000014,1207.293156700005,1207.293156700005,1207.293156700005,1207.293156700005,new_sceneOut_16.png,341,5.0,0.6344900000258349,,014,1,2024-10-30_14h02.26.552,Surprise recog test,2023.1.3,59.77579295694391,
341,0,341,0,,,,,,,,,,,,,,,,,,,,,,,,,,,,,,,,,,1209.6943322000152,1210.7232375000021,1208.9395374000014,1208.9395374000014,1208.9395374000014,1208.9395374000014,old_sceneIn_4.png,342,5.0,0.7481932000082452,,014,1,2024-10-30_14h02.26.552,Surprise recog test,2023.1.3,59.77579295694391,
342,0,342,0,,,,,,,,,,,,,,,,,,,,,,,,,,,,,,,,,,1211.715923699987,1212.7369291000068,1210.7232375000021,1210.7232375000021,1210.7232375000021,1210.7232375000021,old_stationery_22.png,343,5.0,0.9947271000128239,,014,1,2024-10-30_14h02.26.552,Surprise recog test,2023.1.3,59.77579295694391,
343,0,343,0,,,,,,,,,,,,,,,,,,,,,,,,,,,,,,,,,,1214.1330285999866,1215.1531865000143,1212.7369291000068,1212.7369291000068,1212.7369291000068,1212.7369291000068,old_fruit_20.png,344,2.0,1.3969990000186954,,014,1,2024-10-30_14h02.26.552,Surprise recog test,2023.1.3,59.77579295694391,
344,0,344,0,,,,,,,,,,,,,,,,,,,,,,,,,,,,,,,,,,1216.5283860999916,,1215.1531865000143,1215.1531865000143,1215.1531865000143,1215.1531865000143,old_sceneIn_38.png,345,5.0,1.3762676999904215,,014,1,2024-10-30_14h02.26.552,Surprise recog test,2023.1.3,59.77579295694391,
345,0,345,0,,,,,,,,,,,,,,,,,,,,,,,,,,,,,,,,,,1219.4075733000063,1220.425472700008,1217.5631685999979,1217.5631685999979,1217.5631685999979,1217.5631685999979,old_fruit_25.png,346,2.0,1.8466542000242043,,014,1,2024-10-30_14h02.26.552,Surprise recog test,2023.1.3,59.77579295694391,
346,0,346,0,,,,,,,,,,,,,,,,,,,,,,,,,,,,,,,,,,1221.734050900006,,1220.425472700008,1220.425472700008,1220.425472700008,1220.425472700008,new_fruit_36.png,347,3.0,1.3087675000133459,,014,1,2024-10-30_14h02.26.552,Surprise recog test,2023.1.3,59.77579295694391,
347,0,347,0,,,,,,,,,,,,,,,,,,,,,,,,,,,,,,,,,,1225.1076987000124,1226.137157899997,1222.7658753000142,1222.7658753000142,1222.7658753000142,1222.7658753000142,old_fruit_21.png,348,2.0,2.3441373000096064,,014,1,2024-10-30_14h02.26.552,Surprise recog test,2023.1.3,59.77579295694391,
348,0,348,0,,,,,,,,,,,,,,,,,,,,,,,,,,,,,,,,,,1227.2758151000016,1228.297183799994,1226.137157899997,1226.137157899997,1226.137157899997,1226.137157899997,old_fruit_44.png,349,2.0,1.1417384999804199,,014,1,2024-10-30_14h02.26.552,Surprise recog test,2023.1.3,59.77579295694391,
349,0,349,0,,,,,,,,,,,,,,,,,,,,,,,,,,,,,,,,,,1230.2000819999957,1231.215593300003,1228.297183799994,1228.297183799994,1228.297183799994,1228.297183799994,old_stationery_38.png,350,4.0,1.9039593000197783,,014,1,2024-10-30_14h02.26.552,Surprise recog test,2023.1.3,59.77579295694391,
350,0,350,0,,,,,,,,,,,,,,,,,,,,,,,,,,,,,,,,,,1232.2384092000138,1233.2466821999988,1231.215593300003,1231.215593300003,1231.215593300003,1231.215593300003,old_sceneIn_42.png,351,5.0,1.018705599999521,,014,1,2024-10-30_14h02.26.552,Surprise recog test,2023.1.3,59.77579295694391,
351,0,351,0,,,,,,,,,,,,,,,,,,,,,,,,,,,,,,,,,,1234.0272837000084,,1233.2466821999988,1233.2466821999988,1233.2466821999988,1233.2466821999988,old_sceneOut_31.png,352,5.0,0.7729561000014655,,014,1,2024-10-30_14h02.26.552,Surprise recog test,2023.1.3,59.77579295694391,
352,0,352,0,,,,,,,,,,,,,,,,,,,,,,,,,,,,,,,,,,1235.7469948999933,1236.766582000011,1235.0473723000032,1235.0473723000032,1235.0473723000032,1235.0473723000032,old_sceneOut_48.png,353,5.0,0.6943217999942135,,014,1,2024-10-30_14h02.26.552,Surprise recog test,2023.1.3,59.77579295694391,
353,0,353,0,,,,,,,,,,,,,,,,,,,,,,,,,,,,,,,,,,1238.7535046999983,1239.7793390000006,1236.766582000011,1236.766582000011,1236.766582000011,1236.766582000011,old_stationery_50.png,354,1.0,1.9791870000190102,,014,1,2024-10-30_14h02.26.552,Surprise recog test,2023.1.3,59.77579295694391,
354,0,354,0,,,,,,,,,,,,,,,,,,,,,,,,,,,,,,,,,,1241.080992800009,1242.0938488999964,1239.7793390000006,1239.7793390000006,1239.7793390000006,1239.7793390000006,old_sceneIn_21.png,355,5.0,1.3036677000054624,,014,1,2024-10-30_14h02.26.552,Surprise recog test,2023.1.3,59.77579295694391,
355,0,355,0,,,,,,,,,,,,,,,,,,,,,,,,,,,,,,,,,,1244.0066743000061,1245.0341665000014,1242.0938488999964,1242.0938488999964,1242.0938488999964,1242.0938488999964,new_stationery_46.png,356,5.0,1.9089328999980353,,014,1,2024-10-30_14h02.26.552,Surprise recog test,2023.1.3,59.77579295694391,
