trial_loop.thisRepN,trial_loop.thisTrialN,trial_loop.thisN,trial_loop.thisIndex,VAS_slider.started,VAS_text.started,VAS_notstressed_text.started,VAS_stressed_text.started,continue_input.started,continue_text.started,label0.started,label10.started,label20.started,label30.started,label40.started,label50.started,label60.started,label70.started,label80.started,label90.started,label100.started,VAS_slider.response,VAS_slider.rt,VAS_slider.history,Answer_VAS,continue_input.keys,instruction_text.started,continue_text_2.started,continue_input_2.started,continue_input_2.keys,continue_input_2.rt,continue_input_2.duration,example_text.started,example_slider_2.started,example_image.started,example_slider_2.response,example_slider_2.rt,fixcross.started,fixcross.stopped,front_square.started,stim_images.started,trial_inst_images.started,slider_images.started,thisImg,trial_count,slider_images.response,slider_images.rt,outro.started,participant,condition,date,expName,psychopyVersion,frameRate,
,,,,22.27234799999951,22.27234799999951,22.27234799999951,22.27234799999951,22.27234799999951,22.27234799999951,22.27234799999951,22.27234799999951,22.27234799999951,22.27234799999951,22.27234799999951,22.27234799999951,22.27234799999951,22.27234799999951,22.27234799999951,22.27234799999951,22.27234799999951,0,4.348880799999279,"[(0, 4.348880799999279)]",0,None,,,,,,,,,,,,,,,,,,,,,,,016,0,2024-11-12_16h31.39.732,Surprise recog test,2023.1.3,59.95250562534481,
,,,,,,,,,,,,,,,,,,,,,,,,,,26.657709400000385,26.657709400000385,26.657709400000385,space,14.414993800000047,None,,,,,,,,,,,,,,,,,016,0,2024-11-12_16h31.39.732,Surprise recog test,2023.1.3,59.95250562534481,
0,0,0,0,,,,,,,,,,,,,,,,,,,,,,,,,,,,,41.19374169999992,41.19374169999992,41.19374169999992,5.0,13.019896299999346,58.993130400000155,60.01072999999997,55.19350800000029,55.19350800000029,55.19350800000029,55.19350800000029,new_fruit_14.png,1,2.0,3.803914099999929,,016,0,2024-11-12_16h31.39.732,Surprise recog test,2023.1.3,59.95250562534481,
1,0,1,0,,,,,,,,,,,,,,,,,,,,,,,,,,,,,,,,,,62.13743340000019,63.16348769999968,60.01072999999997,60.01072999999997,60.01072999999997,60.01072999999997,new_stationery_5.png,2,4.0,2.1283246999992116,,016,0,2024-11-12_16h31.39.732,Surprise recog test,2023.1.3,59.95250562534481,
2,0,2,0,,,,,,,,,,,,,,,,,,,,,,,,,,,,,,,,,,66.06647450000037,67.07304569999997,63.16348769999968,63.16348769999968,63.16348769999968,63.16348769999968,old_fruit_19.png,3,2.0,2.905083300000115,,016,0,2024-11-12_16h31.39.732,Surprise recog test,2023.1.3,59.95250562534481,
3,0,3,0,,,,,,,,,,,,,,,,,,,,,,,,,,,,,,,,,,70.20155059999979,71.22921620000034,67.07304569999997,67.07304569999997,67.07304569999997,67.07304569999997,new_stationery_13.png,4,3.0,3.1172661000000517,,016,0,2024-11-12_16h31.39.732,Surprise recog test,2023.1.3,59.95250562534481,
4,0,4,0,,,,,,,,,,,,,,,,,,,,,,,,,,,,,,,,,,74.28959649999979,75.30246739999984,71.22921620000034,71.22921620000034,71.22921620000034,71.22921620000034,old_sceneIn_42.png,5,3.0,3.064550600000075,,016,0,2024-11-12_16h31.39.732,Surprise recog test,2023.1.3,59.95250562534481,
5,0,5,0,,,,,,,,,,,,,,,,,,,,,,,,,,,,,,,,,,78.0853761999997,79.11458659999971,75.30246739999984,75.30246739999984,75.30246739999984,75.30246739999984,old_sceneIn_28.png,6,4.0,2.782484899999872,,016,0,2024-11-12_16h31.39.732,Surprise recog test,2023.1.3,59.95250562534481,
6,0,6,0,,,,,,,,,,,,,,,,,,,,,,,,,,,,,,,,,,81.75442469999962,82.7796441999999,79.11458659999971,79.11458659999971,79.11458659999971,79.11458659999971,new_fruit_9.png,7,3.0,2.641395399999965,,016,0,2024-11-12_16h31.39.732,Surprise recog test,2023.1.3,59.95250562534481,
7,0,7,0,,,,,,,,,,,,,,,,,,,,,,,,,,,,,,,,,,84.73045309999998,85.73984029999974,82.7796441999999,82.7796441999999,82.7796441999999,82.7796441999999,old_fruit_18.png,8,1.0,1.9505081999996037,,016,0,2024-11-12_16h31.39.732,Surprise recog test,2023.1.3,59.95250562534481,
8,0,8,0,,,,,,,,,,,,,,,,,,,,,,,,,,,,,,,,,,87.89334169999984,88.91671409999981,85.73984029999974,85.73984029999974,85.73984029999974,85.73984029999974,new_sceneOut_11.png,9,4.0,2.1493891000000076,,016,0,2024-11-12_16h31.39.732,Surprise recog test,2023.1.3,59.95250562534481,
9,0,9,0,,,,,,,,,,,,,,,,,,,,,,,,,,,,,,,,,,90.87163220000002,,88.91671409999981,88.91671409999981,88.91671409999981,88.91671409999981,new_sceneIn_12.png,10,4.0,1.9553224000001137,,016,0,2024-11-12_16h31.39.732,Surprise recog test,2023.1.3,59.95250562534481,
10,0,10,0,,,,,,,,,,,,,,,,,,,,,,,,,,,,,,,,,,94.56264759999976,95.59342829999969,91.9016273999996,91.9016273999996,91.9016273999996,91.9016273999996,new_sceneIn_43.png,11,4.0,2.6615354000005027,,016,0,2024-11-12_16h31.39.732,Surprise recog test,2023.1.3,59.95250562534481,
11,0,11,0,,,,,,,,,,,,,,,,,,,,,,,,,,,,,,,,,,97.61111439999968,,95.59342829999969,95.59342829999969,95.59342829999969,95.59342829999969,new_fruit_2.png,12,3.0,2.020006299999295,,016,0,2024-11-12_16h31.39.732,Surprise recog test,2023.1.3,59.95250562534481,
12,0,12,0,,,,,,,,,,,,,,,,,,,,,,,,,,,,,,,,,,100.1178815000003,101.1464089000001,98.6415463000003,98.6415463000003,98.6415463000003,98.6415463000003,new_stationery_16.png,13,4.0,1.4787947000004351,,016,0,2024-11-12_16h31.39.732,Surprise recog test,2023.1.3,59.95250562534481,
13,0,13,0,,,,,,,,,,,,,,,,,,,,,,,,,,,,,,,,,,103.78112679999958,104.79564109999956,101.1464089000001,101.1464089000001,101.1464089000001,101.1464089000001,new_sceneOut_23.png,14,3.0,2.6374806000003446,,016,0,2024-11-12_16h31.39.732,Surprise recog test,2023.1.3,59.95250562534481,
14,0,14,0,,,,,,,,,,,,,,,,,,,,,,,,,,,,,,,,,,106.75315810000029,,104.79564109999956,104.79564109999956,104.79564109999956,104.79564109999956,old_sceneIn_7.png,15,5.0,1.9603196999996726,,016,0,2024-11-12_16h31.39.732,Surprise recog test,2023.1.3,59.95250562534481,
15,0,15,0,,,,,,,,,,,,,,,,,,,,,,,,,,,,,,,,,,110.22448640000039,111.2492102999995,107.78185740000026,107.78185740000026,107.78185740000026,107.78185740000026,new_fruit_48.png,16,4.0,2.4442692999991777,,016,0,2024-11-12_16h31.39.732,Surprise recog test,2023.1.3,59.95250562534481,
16,0,16,0,,,,,,,,,,,,,,,,,,,,,,,,,,,,,,,,,,113.80463200000031,114.81887240000015,111.2492102999995,111.2492102999995,111.2492102999995,111.2492102999995,new_fruit_40.png,17,4.0,2.5496272999998837,,016,0,2024-11-12_16h31.39.732,Surprise recog test,2023.1.3,59.95250562534481,
17,0,17,0,,,,,,,,,,,,,,,,,,,,,,,,,,,,,,,,,,116.4914176000002,117.5150319000004,114.81887240000015,114.81887240000015,114.81887240000015,114.81887240000015,old_fruit_27.png,18,1.0,1.6738328999999794,,016,0,2024-11-12_16h31.39.732,Surprise recog test,2023.1.3,59.95250562534481,
18,0,18,0,,,,,,,,,,,,,,,,,,,,,,,,,,,,,,,,,,119.32593590000033,120.3436185999999,117.5150319000004,117.5150319000004,117.5150319000004,117.5150319000004,old_fruit_24.png,19,1.0,1.8113561000000118,,016,0,2024-11-12_16h31.39.732,Surprise recog test,2023.1.3,59.95250562534481,
19,0,19,0,,,,,,,,,,,,,,,,,,,,,,,,,,,,,,,,,,122.26518099999976,,120.3436185999999,120.3436185999999,120.3436185999999,120.3436185999999,old_fruit_34.png,20,1.0,1.9230461999995896,,016,0,2024-11-12_16h31.39.732,Surprise recog test,2023.1.3,59.95250562534481,
20,0,20,0,,,,,,,,,,,,,,,,,,,,,,,,,,,,,,,,,,125.59650510000029,126.62378249999983,123.29700119999961,123.29700119999961,123.29700119999961,123.29700119999961,new_sceneIn_20.png,21,3.0,2.2995490000002974,,016,0,2024-11-12_16h31.39.732,Surprise recog test,2023.1.3,59.95250562534481,
21,0,21,0,,,,,,,,,,,,,,,,,,,,,,,,,,,,,,,,,,128.6337950999996,129.65423589999955,126.62378249999983,126.62378249999983,126.62378249999983,126.62378249999983,new_fruit_44.png,22,4.0,2.013975699999719,,016,0,2024-11-12_16h31.39.732,Surprise recog test,2023.1.3,59.95250562534481,
22,0,22,0,,,,,,,,,,,,,,,,,,,,,,,,,,,,,,,,,,131.5881042000001,132.608518,129.65423589999955,129.65423589999955,129.65423589999955,129.65423589999955,new_fruit_28.png,23,3.0,1.9333881000002293,,016,0,2024-11-12_16h31.39.732,Surprise recog test,2023.1.3,59.95250562534481,
23,0,23,0,,,,,,,,,,,,,,,,,,,,,,,,,,,,,,,,,,135.02232370000002,136.02681909999956,132.608518,132.608518,132.608518,132.608518,old_sceneOut_4.png,24,4.0,2.417472699999962,,016,0,2024-11-12_16h31.39.732,Surprise recog test,2023.1.3,59.95250562534481,
24,0,24,0,,,,,,,,,,,,,,,,,,,,,,,,,,,,,,,,,,138.19750599999952,139.23070110000026,136.02681909999956,136.02681909999956,136.02681909999956,136.02681909999956,old_fruit_30.png,25,2.0,2.16533630000049,,016,0,2024-11-12_16h31.39.732,Surprise recog test,2023.1.3,59.95250562534481,
25,0,25,0,,,,,,,,,,,,,,,,,,,,,,,,,,,,,,,,,,141.12168999999994,142.14756690000013,139.23070110000026,139.23070110000026,139.23070110000026,139.23070110000026,old_stationery_2.png,26,4.0,1.8937956999998278,,016,0,2024-11-12_16h31.39.732,Surprise recog test,2023.1.3,59.95250562534481,
26,0,26,0,,,,,,,,,,,,,,,,,,,,,,,,,,,,,,,,,,144.21586920000027,,142.14756690000013,142.14756690000013,142.14756690000013,142.14756690000013,new_fruit_11.png,27,4.0,2.0695927000006122,,016,0,2024-11-12_16h31.39.732,Surprise recog test,2023.1.3,59.95250562534481,
27,0,27,0,,,,,,,,,,,,,,,,,,,,,,,,,,,,,,,,,,146.78675879999992,147.80640690000018,145.24967860000015,145.24967860000015,145.24967860000015,145.24967860000015,old_sceneOut_45.png,28,4.0,1.5396091999991768,,016,0,2024-11-12_16h31.39.732,Surprise recog test,2023.1.3,59.95250562534481,
28,0,28,0,,,,,,,,,,,,,,,,,,,,,,,,,,,,,,,,,,149.34406089999993,150.3597024999999,147.80640690000018,147.80640690000018,147.80640690000018,147.80640690000018,new_stationery_35.png,29,4.0,1.5314623000003849,,016,0,2024-11-12_16h31.39.732,Surprise recog test,2023.1.3,59.95250562534481,
29,0,29,0,,,,,,,,,,,,,,,,,,,,,,,,,,,,,,,,,,152.54410709999956,153.56836300000032,150.3597024999999,150.3597024999999,150.3597024999999,150.3597024999999,old_sceneOut_27.png,30,4.0,2.1801063000002614,,016,0,2024-11-12_16h31.39.732,Surprise recog test,2023.1.3,59.95250562534481,
30,0,30,0,,,,,,,,,,,,,,,,,,,,,,,,,,,,,,,,,,155.3223898999995,156.34168039999986,153.56836300000032,153.56836300000032,153.56836300000032,153.56836300000032,old_stationery_29.png,31,1.0,1.7487001999998029,,016,0,2024-11-12_16h31.39.732,Surprise recog test,2023.1.3,59.95250562534481,
31,0,31,0,,,,,,,,,,,,,,,,,,,,,,,,,,,,,,,,,,157.99993240000003,159.03279339999972,156.34168039999986,156.34168039999986,156.34168039999986,156.34168039999986,old_stationery_3.png,32,4.0,1.660369800000808,,016,0,2024-11-12_16h31.39.732,Surprise recog test,2023.1.3,59.95250562534481,
32,0,32,0,,,,,,,,,,,,,,,,,,,,,,,,,,,,,,,,,,160.96745699999974,161.98720700000013,159.03279339999972,159.03279339999972,159.03279339999972,159.03279339999972,new_stationery_8.png,33,5.0,1.9392768999996406,,016,0,2024-11-12_16h31.39.732,Surprise recog test,2023.1.3,59.95250562534481,
33,0,33,0,,,,,,,,,,,,,,,,,,,,,,,,,,,,,,,,,,163.71475490000012,,161.98720700000013,161.98720700000013,161.98720700000013,161.98720700000013,old_fruit_1.png,34,2.0,1.7237192000002324,,016,0,2024-11-12_16h31.39.732,Surprise recog test,2023.1.3,59.95250562534481,
34,0,34,0,,,,,,,,,,,,,,,,,,,,,,,,,,,,,,,,,,166.3658333000003,167.38555579999957,164.7352651000001,164.7352651000001,164.7352651000001,164.7352651000001,new_fruit_39.png,35,4.0,1.6265231999996104,,016,0,2024-11-12_16h31.39.732,Surprise recog test,2023.1.3,59.95250562534481,
35,0,35,0,,,,,,,,,,,,,,,,,,,,,,,,,,,,,,,,,,169.9983689999999,171.00838480000039,167.38555579999957,167.38555579999957,167.38555579999957,167.38555579999957,new_stationery_11.png,36,4.0,2.6162441000005856,,016,0,2024-11-12_16h31.39.732,Surprise recog test,2023.1.3,59.95250562534481,
36,0,36,0,,,,,,,,,,,,,,,,,,,,,,,,,,,,,,,,,,172.65346549999958,173.67237990000012,171.00838480000039,171.00838480000039,171.00838480000039,171.00838480000039,new_stationery_36.png,37,3.0,1.6333369000003586,,016,0,2024-11-12_16h31.39.732,Surprise recog test,2023.1.3,59.95250562534481,
37,0,37,0,,,,,,,,,,,,,,,,,,,,,,,,,,,,,,,,,,175.68391379999957,176.71054100000038,173.67237990000012,173.67237990000012,173.67237990000012,173.67237990000012,old_sceneIn_19.png,38,4.0,2.0123467000003075,,016,0,2024-11-12_16h31.39.732,Surprise recog test,2023.1.3,59.95250562534481,
38,0,38,0,,,,,,,,,,,,,,,,,,,,,,,,,,,,,,,,,,178.7349981999996,179.76088150000032,176.71054100000038,176.71054100000038,176.71054100000038,176.71054100000038,new_fruit_24.png,39,2.0,2.025909599999977,,016,0,2024-11-12_16h31.39.732,Surprise recog test,2023.1.3,59.95250562534481,
39,0,39,0,,,,,,,,,,,,,,,,,,,,,,,,,,,,,,,,,,181.02817179999965,182.04714729999978,179.76088150000032,179.76088150000032,179.76088150000032,179.76088150000032,old_fruit_25.png,40,1.0,1.2691239000005226,,016,0,2024-11-12_16h31.39.732,Surprise recog test,2023.1.3,59.95250562534481,
40,0,40,0,,,,,,,,,,,,,,,,,,,,,,,,,,,,,,,,,,183.7076047999999,184.72001180000007,182.04714729999978,182.04714729999978,182.04714729999978,182.04714729999978,old_fruit_46.png,41,2.0,1.661026199999469,,016,0,2024-11-12_16h31.39.732,Surprise recog test,2023.1.3,59.95250562534481,
41,0,41,0,,,,,,,,,,,,,,,,,,,,,,,,,,,,,,,,,,186.2881738999995,187.30603129999963,184.72001180000007,184.72001180000007,184.72001180000007,184.72001180000007,new_stationery_39.png,42,4.0,1.563728500000252,,016,0,2024-11-12_16h31.39.732,Surprise recog test,2023.1.3,59.95250562534481,
42,0,42,0,,,,,,,,,,,,,,,,,,,,,,,,,,,,,,,,,,188.94466099999954,189.9583891000002,187.30603129999963,187.30603129999963,187.30603129999963,187.30603129999963,old_fruit_6.png,43,1.0,1.633601099999396,,016,0,2024-11-12_16h31.39.732,Surprise recog test,2023.1.3,59.95250562534481,
43,0,43,0,,,,,,,,,,,,,,,,,,,,,,,,,,,,,,,,,,191.98929190000035,,189.9583891000002,189.9583891000002,189.9583891000002,189.9583891000002,old_sceneIn_15.png,44,4.0,2.0241335000000618,,016,0,2024-11-12_16h31.39.732,Surprise recog test,2023.1.3,59.95250562534481,
44,0,44,0,,,,,,,,,,,,,,,,,,,,,,,,,,,,,,,,,,195.02351230000022,196.03801310000017,193.02423559999988,193.02423559999988,193.02423559999988,193.02423559999988,old_sceneOut_8.png,45,4.0,2.0001539000004414,,016,0,2024-11-12_16h31.39.732,Surprise recog test,2023.1.3,59.95250562534481,
45,0,45,0,,,,,,,,,,,,,,,,,,,,,,,,,,,,,,,,,,197.68387079999957,198.69888579999952,196.03801310000017,196.03801310000017,196.03801310000017,196.03801310000017,new_sceneIn_26.png,46,4.0,1.645756099999744,,016,0,2024-11-12_16h31.39.732,Surprise recog test,2023.1.3,59.95250562534481,
46,0,46,0,,,,,,,,,,,,,,,,,,,,,,,,,,,,,,,,,,200.33049889999984,,198.69888579999952,198.69888579999952,198.69888579999952,198.69888579999952,old_stationery_43.png,47,2.0,1.6267518999993626,,016,0,2024-11-12_16h31.39.732,Surprise recog test,2023.1.3,59.95250562534481,
47,0,47,0,,,,,,,,,,,,,,,,,,,,,,,,,,,,,,,,,,203.80802200000016,204.83373550000033,201.36562969999977,201.36562969999977,201.36562969999977,201.36562969999977,old_sceneOut_35.png,48,3.0,2.4451254000005065,,016,0,2024-11-12_16h31.39.732,Surprise recog test,2023.1.3,59.95250562534481,
48,0,48,0,,,,,,,,,,,,,,,,,,,,,,,,,,,,,,,,,,206.2981165000001,207.30546690000028,204.83373550000033,204.83373550000033,204.83373550000033,204.83373550000033,new_sceneOut_31.png,49,4.0,1.4600295999998707,,016,0,2024-11-12_16h31.39.732,Surprise recog test,2023.1.3,59.95250562534481,
49,0,49,0,,,,,,,,,,,,,,,,,,,,,,,,,,,,,,,,,,208.8796650000004,209.90534969999953,207.30546690000028,207.30546690000028,207.30546690000028,207.30546690000028,old_sceneOut_12.png,50,2.0,1.5704593999998906,,016,0,2024-11-12_16h31.39.732,Surprise recog test,2023.1.3,59.95250562534481,
50,0,50,0,,,,,,,,,,,,,,,,,,,,,,,,,,,,,,,,,,211.3708858,,209.90534969999953,209.90534969999953,209.90534969999953,209.90534969999953,old_sceneOut_28.png,51,4.0,1.4686232000003656,,016,0,2024-11-12_16h31.39.732,Surprise recog test,2023.1.3,59.95250562534481,
51,0,51,0,,,,,,,,,,,,,,,,,,,,,,,,,,,,,,,,,,214.2423705000001,215.26147469999978,212.40560670000013,212.40560670000013,212.40560670000013,212.40560670000013,new_sceneIn_23.png,52,4.0,1.8400203999999576,,016,0,2024-11-12_16h31.39.732,Surprise recog test,2023.1.3,59.95250562534481,
52,0,52,0,,,,,,,,,,,,,,,,,,,,,,,,,,,,,,,,,,216.64018130000022,217.6575955999997,215.26147469999978,215.26147469999978,215.26147469999978,215.26147469999978,old_fruit_10.png,53,1.0,1.3666517999999996,,016,0,2024-11-12_16h31.39.732,Surprise recog test,2023.1.3,59.95250562534481,
53,0,53,0,,,,,,,,,,,,,,,,,,,,,,,,,,,,,,,,,,219.48377470000014,220.5076951000001,217.6575955999997,217.6575955999997,217.6575955999997,217.6575955999997,old_sceneOut_7.png,54,2.0,1.826013900000362,,016,0,2024-11-12_16h31.39.732,Surprise recog test,2023.1.3,59.95250562534481,
54,0,54,0,,,,,,,,,,,,,,,,,,,,,,,,,,,,,,,,,,222.7285678999997,223.73739169999953,220.5076951000001,220.5076951000001,220.5076951000001,220.5076951000001,old_sceneIn_5.png,55,3.0,2.2175634999994145,,016,0,2024-11-12_16h31.39.732,Surprise recog test,2023.1.3,59.95250562534481,
55,0,55,0,,,,,,,,,,,,,,,,,,,,,,,,,,,,,,,,,,225.2390059999998,226.26766990000033,223.73739169999953,223.73739169999953,223.73739169999953,223.73739169999953,new_sceneOut_30.png,56,2.0,1.4977751999995235,,016,0,2024-11-12_16h31.39.732,Surprise recog test,2023.1.3,59.95250562534481,
56,0,56,0,,,,,,,,,,,,,,,,,,,,,,,,,,,,,,,,,,228.55587790000027,229.58656840000003,226.26766990000033,226.26766990000033,226.26766990000033,226.26766990000033,old_sceneIn_26.png,57,4.0,2.2909640999996554,,016,0,2024-11-12_16h31.39.732,Surprise recog test,2023.1.3,59.95250562534481,
57,0,57,0,,,,,,,,,,,,,,,,,,,,,,,,,,,,,,,,,,231.01588300000003,232.02724990000024,229.58656840000003,229.58656840000003,229.58656840000003,229.58656840000003,old_fruit_36.png,58,1.0,1.4295692000005147,,016,0,2024-11-12_16h31.39.732,Surprise recog test,2023.1.3,59.95250562534481,
58,0,58,0,,,,,,,,,,,,,,,,,,,,,,,,,,,,,,,,,,234.3085900999995,,232.02724990000024,232.02724990000024,232.02724990000024,232.02724990000024,new_sceneIn_28.png,59,3.0,2.2774241999995866,,016,0,2024-11-12_16h31.39.732,Surprise recog test,2023.1.3,59.95250562534481,
59,0,59,0,,,,,,,,,,,,,,,,,,,,,,,,,,,,,,,,,,237.66500590000032,238.68008819999977,235.32842530000016,235.32842530000016,235.32842530000016,235.32842530000016,old_stationery_31.png,60,4.0,2.332515200000671,,016,0,2024-11-12_16h31.39.732,Surprise recog test,2023.1.3,59.95250562534481,
60,0,60,0,,,,,,,,,,,,,,,,,,,,,,,,,,,,,,,,,,240.31299639999997,,238.68008819999977,238.68008819999977,238.68008819999977,238.68008819999977,new_stationery_24.png,61,2.0,1.6278888999995615,,016,0,2024-11-12_16h31.39.732,Surprise recog test,2023.1.3,59.95250562534481,
61,0,61,0,,,,,,,,,,,,,,,,,,,,,,,,,,,,,,,,,,243.53729719999956,244.55345409999973,241.3478809999997,241.3478809999997,241.3478809999997,241.3478809999997,new_sceneIn_31.png,62,4.0,2.1920724999999948,,016,0,2024-11-12_16h31.39.732,Surprise recog test,2023.1.3,59.95250562534481,
62,0,62,0,,,,,,,,,,,,,,,,,,,,,,,,,,,,,,,,,,246.2754716999998,247.2940705000001,244.55345409999973,244.55345409999973,244.55345409999973,244.55345409999973,old_sceneOut_41.png,63,3.0,1.6915329000003112,,016,0,2024-11-12_16h31.39.732,Surprise recog test,2023.1.3,59.95250562534481,
63,0,63,0,,,,,,,,,,,,,,,,,,,,,,,,,,,,,,,,,,248.96914779999952,,247.2940705000001,247.2940705000001,247.2940705000001,247.2940705000001,old_sceneIn_45.png,64,3.0,1.6760556999997789,,016,0,2024-11-12_16h31.39.732,Surprise recog test,2023.1.3,59.95250562534481,
64,0,64,0,,,,,,,,,,,,,,,,,,,,,,,,,,,,,,,,,,251.65241849999984,252.66158770000038,249.99864909999997,249.99864909999997,249.99864909999997,249.99864909999997,new_fruit_50.png,65,4.0,1.6516301999999996,,016,0,2024-11-12_16h31.39.732,Surprise recog test,2023.1.3,59.95250562534481,
65,0,65,0,,,,,,,,,,,,,,,,,,,,,,,,,,,,,,,,,,254.5548944000002,255.5616454000001,252.66158770000038,252.66158770000038,252.66158770000038,252.66158770000038,old_fruit_45.png,66,1.0,1.8836743000001661,,016,0,2024-11-12_16h31.39.732,Surprise recog test,2023.1.3,59.95250562534481,
66,0,66,0,,,,,,,,,,,,,,,,,,,,,,,,,,,,,,,,,,257.97518109999965,258.9900098999997,255.5616454000001,255.5616454000001,255.5616454000001,255.5616454000001,new_stationery_42.png,67,3.0,2.404636700000083,,016,0,2024-11-12_16h31.39.732,Surprise recog test,2023.1.3,59.95250562534481,
67,0,67,0,,,,,,,,,,,,,,,,,,,,,,,,,,,,,,,,,,261.04370910000034,262.04990199999975,258.9900098999997,258.9900098999997,258.9900098999997,258.9900098999997,new_sceneOut_9.png,68,3.0,2.0551714000002903,,016,0,2024-11-12_16h31.39.732,Surprise recog test,2023.1.3,59.95250562534481,
68,0,68,0,,,,,,,,,,,,,,,,,,,,,,,,,,,,,,,,,,264.46840429999975,265.5007349999996,262.04990199999975,262.04990199999975,262.04990199999975,262.04990199999975,old_stationery_37.png,69,4.0,2.41369929999928,,016,0,2024-11-12_16h31.39.732,Surprise recog test,2023.1.3,59.95250562534481,
69,0,69,0,,,,,,,,,,,,,,,,,,,,,,,,,,,,,,,,,,267.3745511999996,268.4051632999999,265.5007349999996,265.5007349999996,265.5007349999996,265.5007349999996,new_stationery_26.png,70,3.0,1.8748138000000836,,016,0,2024-11-12_16h31.39.732,Surprise recog test,2023.1.3,59.95250562534481,
70,0,70,0,,,,,,,,,,,,,,,,,,,,,,,,,,,,,,,,,,269.8453905999995,270.8687302999997,268.4051632999999,268.4051632999999,268.4051632999999,268.4051632999999,old_fruit_5.png,71,1.0,1.4439151999995374,,016,0,2024-11-12_16h31.39.732,Surprise recog test,2023.1.3,59.95250562534481,
71,0,71,0,,,,,,,,,,,,,,,,,,,,,,,,,,,,,,,,,,272.48955750000005,,270.8687302999997,270.8687302999997,270.8687302999997,270.8687302999997,new_sceneOut_29.png,72,4.0,1.6228339999997843,,016,0,2024-11-12_16h31.39.732,Surprise recog test,2023.1.3,59.95250562534481,
72,0,72,0,,,,,,,,,,,,,,,,,,,,,,,,,,,,,,,,,,275.57375090000005,276.5811987999996,273.5156955000002,273.5156955000002,273.5156955000002,273.5156955000002,old_sceneOut_26.png,73,4.0,2.0592728999999963,,016,0,2024-11-12_16h31.39.732,Surprise recog test,2023.1.3,59.95250562534481,
73,0,73,0,,,,,,,,,,,,,,,,,,,,,,,,,,,,,,,,,,278.1607533999995,,276.5811987999996,276.5811987999996,276.5811987999996,276.5811987999996,old_sceneOut_19.png,74,4.0,1.5755883000001631,,016,0,2024-11-12_16h31.39.732,Surprise recog test,2023.1.3,59.95250562534481,
74,0,74,0,,,,,,,,,,,,,,,,,,,,,,,,,,,,,,,,,,281.1146885999997,282.1307482000002,279.1821108000004,279.1821108000004,279.1821108000004,279.1821108000004,new_sceneIn_7.png,75,5.0,1.9285220000001573,,016,0,2024-11-12_16h31.39.732,Surprise recog test,2023.1.3,59.95250562534481,
75,0,75,0,,,,,,,,,,,,,,,,,,,,,,,,,,,,,,,,,,284.22948650000035,285.23973449999994,282.1307482000002,282.1307482000002,282.1307482000002,282.1307482000002,new_sceneIn_41.png,76,5.0,2.0941585999999006,,016,0,2024-11-12_16h31.39.732,Surprise recog test,2023.1.3,59.95250562534481,
76,0,76,0,,,,,,,,,,,,,,,,,,,,,,,,,,,,,,,,,,286.6481537999998,287.66758409999966,285.23973449999994,285.23973449999994,285.23973449999994,285.23973449999994,new_stationery_21.png,77,4.0,1.4067172000004575,,016,0,2024-11-12_16h31.39.732,Surprise recog test,2023.1.3,59.95250562534481,
77,0,77,0,,,,,,,,,,,,,,,,,,,,,,,,,,,,,,,,,,289.55007750000004,290.5790396000002,287.66758409999966,287.66758409999966,287.66758409999966,287.66758409999966,old_stationery_27.png,78,4.0,1.88437310000063,,016,0,2024-11-12_16h31.39.732,Surprise recog test,2023.1.3,59.95250562534481,
78,0,78,0,,,,,,,,,,,,,,,,,,,,,,,,,,,,,,,,,,292.4476697,293.4706106000003,290.5790396000002,290.5790396000002,290.5790396000002,290.5790396000002,new_stationery_33.png,79,3.0,1.8739720000003217,,016,0,2024-11-12_16h31.39.732,Surprise recog test,2023.1.3,59.95250562534481,
79,0,79,0,,,,,,,,,,,,,,,,,,,,,,,,,,,,,,,,,,294.91746299999977,295.94172460000027,293.4706106000003,293.4706106000003,293.4706106000003,293.4706106000003,new_sceneOut_38.png,80,4.0,1.4457094999997935,,016,0,2024-11-12_16h31.39.732,Surprise recog test,2023.1.3,59.95250562534481,
80,0,80,0,,,,,,,,,,,,,,,,,,,,,,,,,,,,,,,,,,297.29949620000025,298.31431559999965,295.94172460000027,295.94172460000027,295.94172460000027,295.94172460000027,new_fruit_17.png,81,1.0,1.3580958999991708,,016,0,2024-11-12_16h31.39.732,Surprise recog test,2023.1.3,59.95250562534481,
81,0,81,0,,,,,,,,,,,,,,,,,,,,,,,,,,,,,,,,,,300.0427066000002,301.0643209,298.31431559999965,298.31431559999965,298.31431559999965,298.31431559999965,new_sceneIn_16.png,82,4.0,1.7174257999995461,,016,0,2024-11-12_16h31.39.732,Surprise recog test,2023.1.3,59.95250562534481,
82,0,82,0,,,,,,,,,,,,,,,,,,,,,,,,,,,,,,,,,,302.55596650000007,303.5704595999996,301.0643209,301.0643209,301.0643209,301.0643209,old_fruit_3.png,83,3.0,1.4941735000002154,,016,0,2024-11-12_16h31.39.732,Surprise recog test,2023.1.3,59.95250562534481,
83,0,83,0,,,,,,,,,,,,,,,,,,,,,,,,,,,,,,,,,,304.83126360000006,305.8502832000004,303.5704595999996,303.5704595999996,303.5704595999996,303.5704595999996,new_sceneOut_33.png,84,3.0,1.2561341999999058,,016,0,2024-11-12_16h31.39.732,Surprise recog test,2023.1.3,59.95250562534481,
84,0,84,0,,,,,,,,,,,,,,,,,,,,,,,,,,,,,,,,,,307.48810479999975,308.5216214000002,305.8502832000004,305.8502832000004,305.8502832000004,305.8502832000004,new_sceneOut_49.png,85,4.0,1.6402115999999296,,016,0,2024-11-12_16h31.39.732,Surprise recog test,2023.1.3,59.95250562534481,
85,0,85,0,,,,,,,,,,,,,,,,,,,,,,,,,,,,,,,,,,310.3267033000002,311.3415579000002,308.5216214000002,308.5216214000002,308.5216214000002,308.5216214000002,old_stationery_13.png,86,3.0,1.8076676000000589,,016,0,2024-11-12_16h31.39.732,Surprise recog test,2023.1.3,59.95250562534481,
86,0,86,0,,,,,,,,,,,,,,,,,,,,,,,,,,,,,,,,,,313.07789779999985,314.1055110999996,311.3415579000002,311.3415579000002,311.3415579000002,311.3415579000002,new_sceneOut_24.png,87,4.0,1.7342597999995633,,016,0,2024-11-12_16h31.39.732,Surprise recog test,2023.1.3,59.95250562534481,
87,0,87,0,,,,,,,,,,,,,,,,,,,,,,,,,,,,,,,,,,315.63894079999955,316.6501376999995,314.1055110999996,314.1055110999996,314.1055110999996,314.1055110999996,old_stationery_21.png,88,4.0,1.5296756000007008,,016,0,2024-11-12_16h31.39.732,Surprise recog test,2023.1.3,59.95250562534481,
88,0,88,0,,,,,,,,,,,,,,,,,,,,,,,,,,,,,,,,,,317.9897633999999,319.01280039999983,316.6501376999995,316.6501376999995,316.6501376999995,316.6501376999995,new_sceneOut_2.png,89,4.0,1.3351524999998219,,016,0,2024-11-12_16h31.39.732,Surprise recog test,2023.1.3,59.95250562534481,
89,0,89,0,,,,,,,,,,,,,,,,,,,,,,,,,,,,,,,,,,320.64217889999964,321.6564073999998,319.01280039999983,319.01280039999983,319.01280039999983,319.01280039999983,new_sceneOut_25.png,90,3.0,1.6309915000001638,,016,0,2024-11-12_16h31.39.732,Surprise recog test,2023.1.3,59.95250562534481,
90,0,90,0,,,,,,,,,,,,,,,,,,,,,,,,,,,,,,,,,,323.8510559999995,324.8812098999997,321.6564073999998,321.6564073999998,321.6564073999998,321.6564073999998,new_fruit_6.png,91,5.0,2.1955369000006613,,016,0,2024-11-12_16h31.39.732,Surprise recog test,2023.1.3,59.95250562534481,
91,0,91,0,,,,,,,,,,,,,,,,,,,,,,,,,,,,,,,,,,326.83303669999987,327.83954280000034,324.8812098999997,324.8812098999997,324.8812098999997,324.8812098999997,old_fruit_28.png,92,3.0,1.9540141999996194,,016,0,2024-11-12_16h31.39.732,Surprise recog test,2023.1.3,59.95250562534481,
92,0,92,0,,,,,,,,,,,,,,,,,,,,,,,,,,,,,,,,,,329.60071849999986,330.61880010000004,327.83954280000034,327.83954280000034,327.83954280000034,327.83954280000034,new_sceneIn_32.png,93,2.0,1.754883499999778,,016,0,2024-11-12_16h31.39.732,Surprise recog test,2023.1.3,59.95250562534481,
93,0,93,0,,,,,,,,,,,,,,,,,,,,,,,,,,,,,,,,,,332.2124694000004,333.2402076999997,330.61880010000004,330.61880010000004,330.61880010000004,330.61880010000004,old_sceneOut_20.png,94,4.0,1.5957612000001973,,016,0,2024-11-12_16h31.39.732,Surprise recog test,2023.1.3,59.95250562534481,
94,0,94,0,,,,,,,,,,,,,,,,,,,,,,,,,,,,,,,,,,335.1572735,,333.2402076999997,333.2402076999997,333.2402076999997,333.2402076999997,new_sceneIn_8.png,95,2.0,1.9188145999996777,,016,0,2024-11-12_16h31.39.732,Surprise recog test,2023.1.3,59.95250562534481,
95,0,95,0,,,,,,,,,,,,,,,,,,,,,,,,,,,,,,,,,,337.7405984999996,338.7557660000002,336.18599340000037,336.18599340000037,336.18599340000037,336.18599340000037,old_sceneIn_11.png,96,4.0,1.5514322999997603,,016,0,2024-11-12_16h31.39.732,Surprise recog test,2023.1.3,59.95250562534481,
96,0,96,0,,,,,,,,,,,,,,,,,,,,,,,,,,,,,,,,,,340.1506728000004,341.17995789999986,338.7557660000002,338.7557660000002,338.7557660000002,338.7557660000002,new_sceneOut_40.png,97,4.0,1.4010213000001386,,016,0,2024-11-12_16h31.39.732,Surprise recog test,2023.1.3,59.95250562534481,
97,0,97,0,,,,,,,,,,,,,,,,,,,,,,,,,,,,,,,,,,343.03447479999977,344.0628138000002,341.17995789999986,341.17995789999986,341.17995789999986,341.17995789999986,new_sceneOut_45.png,98,3.0,1.856912199999897,,016,0,2024-11-12_16h31.39.732,Surprise recog test,2023.1.3,59.95250562534481,
98,0,98,0,,,,,,,,,,,,,,,,,,,,,,,,,,,,,,,,,,345.46281160000035,346.48002110000016,344.0628138000002,344.0628138000002,344.0628138000002,344.0628138000002,new_fruit_26.png,99,3.0,1.3988828999999896,,016,0,2024-11-12_16h31.39.732,Surprise recog test,2023.1.3,59.95250562534481,
99,0,99,0,,,,,,,,,,,,,,,,,,,,,,,,,,,,,,,,,,347.87419150000005,348.8962112999998,346.48002110000016,346.48002110000016,346.48002110000016,346.48002110000016,new_fruit_49.png,100,3.0,1.393799299999955,,016,0,2024-11-12_16h31.39.732,Surprise recog test,2023.1.3,59.95250562534481,
100,0,100,0,,,,,,,,,,,,,,,,,,,,,,,,,,,,,,,,,,350.4438289999998,351.4722996999999,348.8962112999998,348.8962112999998,348.8962112999998,348.8962112999998,new_fruit_46.png,101,4.0,1.5459767000002103,,016,0,2024-11-12_16h31.39.732,Surprise recog test,2023.1.3,59.95250562534481,
101,0,101,0,,,,,,,,,,,,,,,,,,,,,,,,,,,,,,,,,,353.1602627000002,354.18848700000035,351.4722996999999,351.4722996999999,351.4722996999999,351.4722996999999,old_stationery_47.png,102,1.0,1.6901461999996172,,016,0,2024-11-12_16h31.39.732,Surprise recog test,2023.1.3,59.95250562534481,
102,0,102,0,,,,,,,,,,,,,,,,,,,,,,,,,,,,,,,,,,355.6342162000001,356.6592985999996,354.18848700000035,354.18848700000035,354.18848700000035,354.18848700000035,new_stationery_3.png,103,4.0,1.4481574999999793,,016,0,2024-11-12_16h31.39.732,Surprise recog test,2023.1.3,59.95250562534481,
103,0,103,0,,,,,,,,,,,,,,,,,,,,,,,,,,,,,,,,,,357.99757109999973,359.02941980000014,356.6592985999996,356.6592985999996,356.6592985999996,356.6592985999996,old_sceneOut_18.png,104,4.0,1.3386596000000281,,016,0,2024-11-12_16h31.39.732,Surprise recog test,2023.1.3,59.95250562534481,
104,0,104,0,,,,,,,,,,,,,,,,,,,,,,,,,,,,,,,,,,360.6730080999996,361.6934590999999,359.02941980000014,359.02941980000014,359.02941980000014,359.02941980000014,new_sceneOut_28.png,105,1.0,1.6460776000003534,,016,0,2024-11-12_16h31.39.732,Surprise recog test,2023.1.3,59.95250562534481,
105,0,105,0,,,,,,,,,,,,,,,,,,,,,,,,,,,,,,,,,,363.02830939999967,364.04172370000015,361.6934590999999,361.6934590999999,361.6934590999999,361.6934590999999,old_stationery_7.png,106,4.0,1.3243985000008252,,016,0,2024-11-12_16h31.39.732,Surprise recog test,2023.1.3,59.95250562534481,
106,0,106,0,,,,,,,,,,,,,,,,,,,,,,,,,,,,,,,,,,365.3473248,366.36715879999974,364.04172370000015,364.04172370000015,364.04172370000015,364.04172370000015,old_sceneIn_2.png,107,4.0,1.3068159000004016,,016,0,2024-11-12_16h31.39.732,Surprise recog test,2023.1.3,59.95250562534481,
107,0,107,0,,,,,,,,,,,,,,,,,,,,,,,,,,,,,,,,,,367.8002155000004,368.80368389999967,366.36715879999974,366.36715879999974,366.36715879999974,366.36715879999974,new_sceneOut_21.png,108,2.0,1.4347491999997146,,016,0,2024-11-12_16h31.39.732,Surprise recog test,2023.1.3,59.95250562534481,
108,0,108,0,,,,,,,,,,,,,,,,,,,,,,,,,,,,,,,,,,370.2876881000002,,368.80368389999967,368.80368389999967,368.80368389999967,368.80368389999967,old_stationery_41.png,109,2.0,1.4799869000007675,,016,0,2024-11-12_16h31.39.732,Surprise recog test,2023.1.3,59.95250562534481,
109,0,109,0,,,,,,,,,,,,,,,,,,,,,,,,,,,,,,,,,,372.6673148,373.69097220000003,371.30479970000033,371.30479970000033,371.30479970000033,371.30479970000033,old_sceneOut_47.png,110,4.0,1.3583951999999044,,016,0,2024-11-12_16h31.39.732,Surprise recog test,2023.1.3,59.95250562534481,
110,0,110,0,,,,,,,,,,,,,,,,,,,,,,,,,,,,,,,,,,375.1795255999996,376.2096429000003,373.69097220000003,373.69097220000003,373.69097220000003,373.69097220000003,new_sceneIn_17.png,111,4.0,1.4892109000002165,,016,0,2024-11-12_16h31.39.732,Surprise recog test,2023.1.3,59.95250562534481,
111,0,111,0,,,,,,,,,,,,,,,,,,,,,,,,,,,,,,,,,,377.71358710000004,378.7326370999999,376.2096429000003,376.2096429000003,376.2096429000003,376.2096429000003,old_fruit_41.png,112,4.0,1.5066299000000072,,016,0,2024-11-12_16h31.39.732,Surprise recog test,2023.1.3,59.95250562534481,
112,0,112,0,,,,,,,,,,,,,,,,,,,,,,,,,,,,,,,,,,380.3930661000004,381.40046410000014,378.7326370999999,378.7326370999999,378.7326370999999,378.7326370999999,new_sceneOut_41.png,113,3.0,1.6585988999995607,,016,0,2024-11-12_16h31.39.732,Surprise recog test,2023.1.3,59.95250562534481,
113,0,113,0,,,,,,,,,,,,,,,,,,,,,,,,,,,,,,,,,,383.2992052999998,,381.40046410000014,381.40046410000014,381.40046410000014,381.40046410000014,old_stationery_6.png,114,3.0,1.8945605999997497,,016,0,2024-11-12_16h31.39.732,Surprise recog test,2023.1.3,59.95250562534481,
114,0,114,0,,,,,,,,,,,,,,,,,,,,,,,,,,,,,,,,,,386.1304589000001,387.1397014000004,384.3276442999995,384.3276442999995,384.3276442999995,384.3276442999995,new_sceneIn_42.png,115,4.0,1.803439299999809,,016,0,2024-11-12_16h31.39.732,Surprise recog test,2023.1.3,59.95250562534481,
115,0,115,0,,,,,,,,,,,,,,,,,,,,,,,,,,,,,,,,,,388.7083752999997,389.73657449999973,387.1397014000004,387.1397014000004,387.1397014000004,387.1397014000004,new_sceneOut_18.png,116,4.0,1.5658277000002272,,016,0,2024-11-12_16h31.39.732,Surprise recog test,2023.1.3,59.95250562534481,
116,0,116,0,,,,,,,,,,,,,,,,,,,,,,,,,,,,,,,,,,391.2080307999995,392.23368969999956,389.73657449999973,389.73657449999973,389.73657449999973,389.73657449999973,new_stationery_28.png,117,1.0,1.4733584000005067,,016,0,2024-11-12_16h31.39.732,Surprise recog test,2023.1.3,59.95250562534481,
117,0,117,0,,,,,,,,,,,,,,,,,,,,,,,,,,,,,,,,,,393.87887020000016,394.9002698000004,392.23368969999956,392.23368969999956,392.23368969999956,392.23368969999956,new_sceneIn_40.png,118,4.0,1.6460269999997763,,016,0,2024-11-12_16h31.39.732,Surprise recog test,2023.1.3,59.95250562534481,
118,0,118,0,,,,,,,,,,,,,,,,,,,,,,,,,,,,,,,,,,396.27817719999985,397.3065883999998,394.9002698000004,394.9002698000004,394.9002698000004,394.9002698000004,new_stationery_4.png,119,4.0,1.3788825999999972,,016,0,2024-11-12_16h31.39.732,Surprise recog test,2023.1.3,59.95250562534481,
119,0,119,0,,,,,,,,,,,,,,,,,,,,,,,,,,,,,,,,,,398.6856931000002,399.71215089999987,397.3065883999998,397.3065883999998,397.3065883999998,397.3065883999998,old_sceneOut_36.png,120,4.0,1.377038900000116,,016,0,2024-11-12_16h31.39.732,Surprise recog test,2023.1.3,59.95250562534481,
120,0,120,0,,,,,,,,,,,,,,,,,,,,,,,,,,,,,,,,,,401.38646679999965,402.4064903999997,399.71215089999987,399.71215089999987,399.71215089999987,399.71215089999987,new_stationery_48.png,121,3.0,1.6778729999996358,,016,0,2024-11-12_16h31.39.732,Surprise recog test,2023.1.3,59.95250562534481,
121,0,121,0,,,,,,,,,,,,,,,,,,,,,,,,,,,,,,,,,,403.8995745000002,,402.4064903999997,402.4064903999997,402.4064903999997,402.4064903999997,new_sceneOut_39.png,122,3.0,1.4944907999997668,,016,0,2024-11-12_16h31.39.732,Surprise recog test,2023.1.3,59.95250562534481,
122,0,122,0,,,,,,,,,,,,,,,,,,,,,,,,,,,,,,,,,,406.19345950000024,407.2168724000003,404.9310802,404.9310802,404.9310802,404.9310802,old_fruit_8.png,123,2.0,1.2636322999996992,,016,0,2024-11-12_16h31.39.732,Surprise recog test,2023.1.3,59.95250562534481,
123,0,123,0,,,,,,,,,,,,,,,,,,,,,,,,,,,,,,,,,,408.5980781999997,409.6190074999995,407.2168724000003,407.2168724000003,407.2168724000003,407.2168724000003,new_fruit_47.png,124,4.0,1.38320720000047,,016,0,2024-11-12_16h31.39.732,Surprise recog test,2023.1.3,59.95250562534481,
124,0,124,0,,,,,,,,,,,,,,,,,,,,,,,,,,,,,,,,,,411.2016851999997,412.2097483999996,409.6190074999995,409.6190074999995,409.6190074999995,409.6190074999995,new_fruit_38.png,125,1.0,1.580273199999283,,016,0,2024-11-12_16h31.39.732,Surprise recog test,2023.1.3,59.95250562534481,
125,0,125,0,,,,,,,,,,,,,,,,,,,,,,,,,,,,,,,,,,413.8624143999996,414.88961759999984,412.2097483999996,412.2097483999996,412.2097483999996,412.2097483999996,new_sceneOut_27.png,126,4.0,1.6465924000003724,,016,0,2024-11-12_16h31.39.732,Surprise recog test,2023.1.3,59.95250562534481,
126,0,126,0,,,,,,,,,,,,,,,,,,,,,,,,,,,,,,,,,,416.38602919999994,417.3995096999997,414.88961759999984,414.88961759999984,414.88961759999984,414.88961759999984,old_stationery_40.png,127,1.0,1.4991884000000937,,016,0,2024-11-12_16h31.39.732,Surprise recog test,2023.1.3,59.95250562534481,
127,0,127,0,,,,,,,,,,,,,,,,,,,,,,,,,,,,,,,,,,418.7582456,419.7832263,417.3995096999997,417.3995096999997,417.3995096999997,417.3995096999997,old_sceneOut_17.png,128,4.0,1.3581045999999333,,016,0,2024-11-12_16h31.39.732,Surprise recog test,2023.1.3,59.95250562534481,
128,0,128,0,,,,,,,,,,,,,,,,,,,,,,,,,,,,,,,,,,421.29902760000004,422.3174779000001,419.7832263,419.7832263,419.7832263,419.7832263,new_stationery_30.png,129,2.0,1.5193819999994957,,016,0,2024-11-12_16h31.39.732,Surprise recog test,2023.1.3,59.95250562534481,
129,0,129,0,,,,,,,,,,,,,,,,,,,,,,,,,,,,,,,,,,423.7977949999995,,422.3174779000001,422.3174779000001,422.3174779000001,422.3174779000001,new_fruit_18.png,130,1.0,1.4754383999998026,,016,0,2024-11-12_16h31.39.732,Surprise recog test,2023.1.3,59.95250562534481,
130,0,130,0,,,,,,,,,,,,,,,,,,,,,,,,,,,,,,,,,,426.57931720000033,427.5984159999998,424.81736399999954,424.81736399999954,424.81736399999954,424.81736399999954,old_fruit_13.png,131,4.0,1.7580561999993733,,016,0,2024-11-12_16h31.39.732,Surprise recog test,2023.1.3,59.95250562534481,
131,0,131,0,,,,,,,,,,,,,,,,,,,,,,,,,,,,,,,,,,429.43352030000005,430.4377032000002,427.5984159999998,427.5984159999998,427.5984159999998,427.5984159999998,new_sceneOut_3.png,132,3.0,1.8291513999993185,,016,0,2024-11-12_16h31.39.732,Surprise recog test,2023.1.3,59.95250562534481,
132,0,132,0,,,,,,,,,,,,,,,,,,,,,,,,,,,,,,,,,,431.8686924000003,432.8733347999996,430.4377032000002,430.4377032000002,430.4377032000002,430.4377032000002,old_sceneOut_16.png,133,3.0,1.420748900000035,,016,0,2024-11-12_16h31.39.732,Surprise recog test,2023.1.3,59.95250562534481,
133,0,133,0,,,,,,,,,,,,,,,,,,,,,,,,,,,,,,,,,,434.52100150000024,435.52555140000004,432.8733347999996,432.8733347999996,432.8733347999996,432.8733347999996,old_stationery_24.png,134,4.0,1.6370929000004253,,016,0,2024-11-12_16h31.39.732,Surprise recog test,2023.1.3,59.95250562534481,
134,0,134,0,,,,,,,,,,,,,,,,,,,,,,,,,,,,,,,,,,437.3400394,438.3443887000003,435.52555140000004,435.52555140000004,435.52555140000004,435.52555140000004,old_stationery_12.png,135,4.0,1.8049941999997827,,016,0,2024-11-12_16h31.39.732,Surprise recog test,2023.1.3,59.95250562534481,
135,0,135,0,,,,,,,,,,,,,,,,,,,,,,,,,,,,,,,,,,439.99215060000006,440.99691580000035,438.3443887000003,438.3443887000003,438.3443887000003,438.3443887000003,old_fruit_26.png,136,1.0,1.637271999999939,,016,0,2024-11-12_16h31.39.732,Surprise recog test,2023.1.3,59.95250562534481,
136,0,136,0,,,,,,,,,,,,,,,,,,,,,,,,,,,,,,,,,,442.5276837000001,443.53249659999983,440.99691580000035,440.99691580000035,440.99691580000035,440.99691580000035,new_sceneOut_50.png,137,3.0,1.520678500000031,,016,0,2024-11-12_16h31.39.732,Surprise recog test,2023.1.3,59.95250562534481,
137,0,137,0,,,,,,,,,,,,,,,,,,,,,,,,,,,,,,,,,,445.21327610000026,446.219932,443.53249659999983,443.53249659999983,443.53249659999983,443.53249659999983,old_sceneIn_29.png,138,4.0,1.670438400000421,,016,0,2024-11-12_16h31.39.732,Surprise recog test,2023.1.3,59.95250562534481,
138,0,138,0,,,,,,,,,,,,,,,,,,,,,,,,,,,,,,,,,,448.28236110000034,449.2868798999998,446.219932,446.219932,446.219932,446.219932,old_fruit_50.png,139,3.0,2.0526294999999664,,016,0,2024-11-12_16h31.39.732,Surprise recog test,2023.1.3,59.95250562534481,
139,0,139,0,,,,,,,,,,,,,,,,,,,,,,,,,,,,,,,,,,450.73746589999973,,449.2868798999998,449.2868798999998,449.2868798999998,449.2868798999998,new_sceneOut_19.png,140,2.0,1.4444014999999126,,016,0,2024-11-12_16h31.39.732,Surprise recog test,2023.1.3,59.95250562534481,
140,0,140,0,,,,,,,,,,,,,,,,,,,,,,,,,,,,,,,,,,453.3532846999997,454.35903059999964,451.7545890000001,451.7545890000001,451.7545890000001,451.7545890000001,new_fruit_42.png,141,5.0,1.5873007000000143,,016,0,2024-11-12_16h31.39.732,Surprise recog test,2023.1.3,59.95250562534481,
141,0,141,0,,,,,,,,,,,,,,,,,,,,,,,,,,,,,,,,,,455.9387563999999,456.9430994000004,454.35903059999964,454.35903059999964,454.35903059999964,454.35903059999964,new_sceneOut_5.png,142,4.0,1.5703331000004255,,016,0,2024-11-12_16h31.39.732,Surprise recog test,2023.1.3,59.95250562534481,
142,0,142,0,,,,,,,,,,,,,,,,,,,,,,,,,,,,,,,,,,458.4742452999999,459.4791145999998,456.9430994000004,456.9430994000004,456.9430994000004,456.9430994000004,old_fruit_44.png,143,2.0,1.5210465000000113,,016,0,2024-11-12_16h31.39.732,Surprise recog test,2023.1.3,59.95250562534481,
143,0,143,0,,,,,,,,,,,,,,,,,,,,,,,,,,,,,,,,,,460.94289670000035,461.94716789999984,459.4791145999998,459.4791145999998,459.4791145999998,459.4791145999998,old_sceneOut_48.png,144,4.0,1.4536957999998776,,016,0,2024-11-12_16h31.39.732,Surprise recog test,2023.1.3,59.95250562534481,
144,0,144,0,,,,,,,,,,,,,,,,,,,,,,,,,,,,,,,,,,463.27819869999985,464.28208369999993,461.94716789999984,461.94716789999984,461.94716789999984,461.94716789999984,old_stationery_30.png,145,3.0,1.3203268999995998,,016,0,2024-11-12_16h31.39.732,Surprise recog test,2023.1.3,59.95250562534481,
145,0,145,0,,,,,,,,,,,,,,,,,,,,,,,,,,,,,,,,,,466.38093599999956,467.38508339999953,464.28208369999993,464.28208369999993,464.28208369999993,464.28208369999993,new_stationery_2.png,146,3.0,2.089029699999628,,016,0,2024-11-12_16h31.39.732,Surprise recog test,2023.1.3,59.95250562534481,
146,0,146,0,,,,,,,,,,,,,,,,,,,,,,,,,,,,,,,,,,468.8994690999998,469.9036951999997,467.38508339999953,467.38508339999953,467.38508339999953,467.38508339999953,new_sceneIn_50.png,147,4.0,1.5035988999998153,,016,0,2024-11-12_16h31.39.732,Surprise recog test,2023.1.3,59.95250562534481,
147,0,147,0,,,,,,,,,,,,,,,,,,,,,,,,,,,,,,,,,,471.8686270999997,472.87306830000034,469.9036951999997,469.9036951999997,469.9036951999997,469.9036951999997,old_stationery_23.png,148,4.0,1.9542755000002217,,016,0,2024-11-12_16h31.39.732,Surprise recog test,2023.1.3,59.95250562534481,
148,0,148,0,,,,,,,,,,,,,,,,,,,,,,,,,,,,,,,,,,474.32072009999956,475.32490789999974,472.87306830000034,472.87306830000034,472.87306830000034,472.87306830000034,new_fruit_34.png,149,4.0,1.4377051999999821,,016,0,2024-11-12_16h31.39.732,Surprise recog test,2023.1.3,59.95250562534481,
149,0,149,0,,,,,,,,,,,,,,,,,,,,,,,,,,,,,,,,,,476.81199949999973,477.8294643999998,475.32490789999974,475.32490789999974,475.32490789999974,475.32490789999974,old_fruit_20.png,150,2.0,1.4815104999997857,,016,0,2024-11-12_16h31.39.732,Surprise recog test,2023.1.3,59.95250562534481,
150,0,150,0,,,,,,,,,,,,,,,,,,,,,,,,,,,,,,,,,,479.1751167000002,480.18339259999993,477.8294643999998,477.8294643999998,477.8294643999998,477.8294643999998,new_stationery_22.png,151,3.0,1.3390675999999075,,016,0,2024-11-12_16h31.39.732,Surprise recog test,2023.1.3,59.95250562534481,
151,0,151,0,,,,,,,,,,,,,,,,,,,,,,,,,,,,,,,,,,481.23663620000025,482.2595775,480.18339259999993,480.18339259999993,480.18339259999993,480.18339259999993,old_fruit_12.png,152,2.0,1.0491964000002554,,016,0,2024-11-12_16h31.39.732,Surprise recog test,2023.1.3,59.95250562534481,
152,0,152,0,,,,,,,,,,,,,,,,,,,,,,,,,,,,,,,,,,483.5452325999995,484.5529405999996,482.2595775,482.2595775,482.2595775,482.2595775,new_stationery_15.png,153,4.0,1.2815672999995513,,016,0,2024-11-12_16h31.39.732,Surprise recog test,2023.1.3,59.95250562534481,
153,0,153,0,,,,,,,,,,,,,,,,,,,,,,,,,,,,,,,,,,485.85218799999984,486.87272810000013,484.5529405999996,484.5529405999996,484.5529405999996,484.5529405999996,old_fruit_15.png,154,1.0,1.2952001000003293,,016,0,2024-11-12_16h31.39.732,Surprise recog test,2023.1.3,59.95250562534481,
154,0,154,0,,,,,,,,,,,,,,,,,,,,,,,,,,,,,,,,,,488.3190241000002,,486.87272810000013,486.87272810000013,486.87272810000013,486.87272810000013,new_fruit_21.png,155,3.0,1.4402443999997558,,016,0,2024-11-12_16h31.39.732,Surprise recog test,2023.1.3,59.95250562534481,
155,0,155,0,,,,,,,,,,,,,,,,,,,,,,,,,,,,,,,,,,490.83037030000014,491.8553215000002,489.35228610000013,489.35228610000013,489.35228610000013,489.35228610000013,old_stationery_36.png,156,1.0,1.4792864999999438,,016,0,2024-11-12_16h31.39.732,Surprise recog test,2023.1.3,59.95250562534481,
156,0,156,0,,,,,,,,,,,,,,,,,,,,,,,,,,,,,,,,,,493.6202181999997,494.63963539999986,491.8553215000002,491.8553215000002,491.8553215000002,491.8553215000002,old_sceneIn_36.png,157,3.0,1.7600595000003523,,016,0,2024-11-12_16h31.39.732,Surprise recog test,2023.1.3,59.95250562534481,
157,0,157,0,,,,,,,,,,,,,,,,,,,,,,,,,,,,,,,,,,496.02032039999995,497.02990560000035,494.63963539999986,494.63963539999986,494.63963539999986,494.63963539999986,old_stationery_35.png,158,4.0,1.3803751000004922,,016,0,2024-11-12_16h31.39.732,Surprise recog test,2023.1.3,59.95250562534481,
158,0,158,0,,,,,,,,,,,,,,,,,,,,,,,,,,,,,,,,,,499.68691409999974,500.71177009999974,497.02990560000035,497.02990560000035,497.02990560000035,497.02990560000035,old_sceneOut_40.png,159,3.0,2.6520336000003226,,016,0,2024-11-12_16h31.39.732,Surprise recog test,2023.1.3,59.95250562534481,
159,0,159,0,,,,,,,,,,,,,,,,,,,,,,,,,,,,,,,,,,501.95447179999974,502.9694763999996,500.71177009999974,500.71177009999974,500.71177009999974,500.71177009999974,new_sceneIn_38.png,160,4.0,1.244960899999569,,016,0,2024-11-12_16h31.39.732,Surprise recog test,2023.1.3,59.95250562534481,
160,0,160,0,,,,,,,,,,,,,,,,,,,,,,,,,,,,,,,,,,504.44471090000025,505.4658141,502.9694763999996,502.9694763999996,502.9694763999996,502.9694763999996,old_sceneIn_31.png,161,1.0,1.468701499999952,,016,0,2024-11-12_16h31.39.732,Surprise recog test,2023.1.3,59.95250562534481,
161,0,161,0,,,,,,,,,,,,,,,,,,,,,,,,,,,,,,,,,,507.0863122999999,508.1201726999998,505.4658141,505.4658141,505.4658141,505.4658141,new_fruit_20.png,162,4.0,1.6230626999995366,,016,0,2024-11-12_16h31.39.732,Surprise recog test,2023.1.3,59.95250562534481,
162,0,162,0,,,,,,,,,,,,,,,,,,,,,,,,,,,,,,,,,,509.3665368000002,510.38996640000005,508.1201726999998,508.1201726999998,508.1201726999998,508.1201726999998,new_sceneOut_13.png,163,4.0,1.2480751999992208,,016,0,2024-11-12_16h31.39.732,Surprise recog test,2023.1.3,59.95250562534481,
163,0,163,0,,,,,,,,,,,,,,,,,,,,,,,,,,,,,,,,,,511.5086408999996,512.5229550000004,510.38996640000005,510.38996640000005,510.38996640000005,510.38996640000005,new_sceneOut_8.png,164,4.0,1.119828900000357,,016,0,2024-11-12_16h31.39.732,Surprise recog test,2023.1.3,59.95250562534481,
164,0,164,0,,,,,,,,,,,,,,,,,,,,,,,,,,,,,,,,,,513.8736337,,512.5229550000004,512.5229550000004,512.5229550000004,512.5229550000004,old_fruit_31.png,165,2.0,1.3443446000001131,,016,0,2024-11-12_16h31.39.732,Surprise recog test,2023.1.3,59.95250562534481,
165,0,165,0,,,,,,,,,,,,,,,,,,,,,,,,,,,,,,,,,,516.3109023999996,517.3416268000001,514.9059500000003,514.9059500000003,514.9059500000003,514.9059500000003,new_sceneIn_9.png,166,5.0,1.407028999999966,,016,0,2024-11-12_16h31.39.732,Surprise recog test,2023.1.3,59.95250562534481,
166,0,166,0,,,,,,,,,,,,,,,,,,,,,,,,,,,,,,,,,,518.9292089,519.9491513000003,517.3416268000001,517.3416268000001,517.3416268000001,517.3416268000001,new_fruit_12.png,167,5.0,1.5888584000003902,,016,0,2024-11-12_16h31.39.732,Surprise recog test,2023.1.3,59.95250562534481,
167,0,167,0,,,,,,,,,,,,,,,,,,,,,,,,,,,,,,,,,,521.4606274999996,522.4683188999998,519.9491513000003,519.9491513000003,519.9491513000003,519.9491513000003,old_sceneIn_14.png,168,2.0,1.5050698000004559,,016,0,2024-11-12_16h31.39.732,Surprise recog test,2023.1.3,59.95250562534481,
168,0,168,0,,,,,,,,,,,,,,,,,,,,,,,,,,,,,,,,,,523.8620247999997,524.8815027,522.4683188999998,522.4683188999998,522.4683188999998,522.4683188999998,old_sceneIn_4.png,169,2.0,1.382147499999519,,016,0,2024-11-12_16h31.39.732,Surprise recog test,2023.1.3,59.95250562534481,
169,0,169,0,,,,,,,,,,,,,,,,,,,,,,,,,,,,,,,,,,526.5307948999998,527.5556955000002,524.8815027,524.8815027,524.8815027,524.8815027,old_stationery_33.png,170,2.0,1.6470061999998507,,016,0,2024-11-12_16h31.39.732,Surprise recog test,2023.1.3,59.95250562534481,
170,0,170,0,,,,,,,,,,,,,,,,,,,,,,,,,,,,,,,,,,529.0360414999996,,527.5556955000002,527.5556955000002,527.5556955000002,527.5556955000002,new_stationery_34.png,171,4.0,1.4855379999999059,,016,0,2024-11-12_16h31.39.732,Surprise recog test,2023.1.3,59.95250562534481,
171,0,171,0,,,,,,,,,,,,,,,,,,,,,,,,,,,,,,,,,,531.2602293999998,532.2893394000002,530.0570557000001,530.0570557000001,530.0570557000001,530.0570557000001,old_sceneOut_24.png,172,4.0,1.1986455999995087,,016,0,2024-11-12_16h31.39.732,Surprise recog test,2023.1.3,59.95250562534481,
172,0,172,0,,,,,,,,,,,,,,,,,,,,,,,,,,,,,,,,,,533.9435855000002,534.9722788999998,532.2893394000002,532.2893394000002,532.2893394000002,532.2893394000002,old_stationery_9.png,173,3.0,1.655871400000251,,016,0,2024-11-12_16h31.39.732,Surprise recog test,2023.1.3,59.95250562534481,
173,0,173,0,,,,,,,,,,,,,,,,,,,,,,,,,,,,,,,,,,536.6108273,537.6491995999995,534.9722788999998,534.9722788999998,534.9722788999998,534.9722788999998,new_stationery_17.png,174,3.0,1.6408246000000872,,016,0,2024-11-12_16h31.39.732,Surprise recog test,2023.1.3,59.95250562534481,
174,0,174,0,,,,,,,,,,,,,,,,,,,,,,,,,,,,,,,,,,539.2996799000002,540.3324632000003,537.6491995999995,537.6491995999995,537.6491995999995,537.6491995999995,old_stationery_5.png,175,2.0,1.6518208999996205,,016,0,2024-11-12_16h31.39.732,Surprise recog test,2023.1.3,59.95250562534481,
175,0,175,0,,,,,,,,,,,,,,,,,,,,,,,,,,,,,,,,,,541.5599595000003,542.5797649999995,540.3324632000003,540.3324632000003,540.3324632000003,540.3324632000003,old_stationery_48.png,176,2.0,1.2298933000001853,,016,0,2024-11-12_16h31.39.732,Surprise recog test,2023.1.3,59.95250562534481,
176,0,176,0,,,,,,,,,,,,,,,,,,,,,,,,,,,,,,,,,,543.8551117999996,544.8758343999998,542.5797649999995,542.5797649999995,542.5797649999995,542.5797649999995,old_fruit_22.png,177,1.0,1.2772828000006484,,016,0,2024-11-12_16h31.39.732,Surprise recog test,2023.1.3,59.95250562534481,
177,0,177,0,,,,,,,,,,,,,,,,,,,,,,,,,,,,,,,,,,546.1976002000001,547.2038125999998,544.8758343999998,544.8758343999998,544.8758343999998,544.8758343999998,new_sceneOut_7.png,178,4.0,1.3216565000002447,,016,0,2024-11-12_16h31.39.732,Surprise recog test,2023.1.3,59.95250562534481,
178,0,178,0,,,,,,,,,,,,,,,,,,,,,,,,,,,,,,,,,,548.4656514999997,549.4830591999998,547.2038125999998,547.2038125999998,547.2038125999998,547.2038125999998,new_stationery_38.png,179,3.0,1.2563887000005707,,016,0,2024-11-12_16h31.39.732,Surprise recog test,2023.1.3,59.95250562534481,
179,0,179,0,,,,,,,,,,,,,,,,,,,,,,,,,,,,,,,,,,550.8748771999999,551.9070690999997,549.4830591999998,549.4830591999998,549.4830591999998,549.4830591999998,new_sceneOut_17.png,180,4.0,1.3938249000002543,,016,0,2024-11-12_16h31.39.732,Surprise recog test,2023.1.3,59.95250562534481,
180,0,180,0,,,,,,,,,,,,,,,,,,,,,,,,,,,,,,,,,,553.1037677000004,554.1222254000004,551.9070690999997,551.9070690999997,551.9070690999997,551.9070690999997,old_sceneIn_18.png,181,4.0,1.1996799999997165,,016,0,2024-11-12_16h31.39.732,Surprise recog test,2023.1.3,59.95250562534481,
181,0,181,0,,,,,,,,,,,,,,,,,,,,,,,,,,,,,,,,,,555.3214521999998,556.3318720999996,554.1222254000004,554.1222254000004,554.1222254000004,554.1222254000004,new_sceneOut_20.png,182,4.0,1.197889899999609,,016,0,2024-11-12_16h31.39.732,Surprise recog test,2023.1.3,59.95250562534481,
182,0,182,0,,,,,,,,,,,,,,,,,,,,,,,,,,,,,,,,,,557.7927366000004,,556.3318720999996,556.3318720999996,556.3318720999996,556.3318720999996,old_sceneOut_6.png,183,3.0,1.4606610999999248,,016,0,2024-11-12_16h31.39.732,Surprise recog test,2023.1.3,59.95250562534481,
183,0,183,0,,,,,,,,,,,,,,,,,,,,,,,,,,,,,,,,,,560.0706865000002,561.0931230999995,558.8143055,558.8143055,558.8143055,558.8143055,old_sceneOut_42.png,184,5.0,1.250067900000431,,016,0,2024-11-12_16h31.39.732,Surprise recog test,2023.1.3,59.95250562534481,
184,0,184,0,,,,,,,,,,,,,,,,,,,,,,,,,,,,,,,,,,562.3875435999998,563.4115659999998,561.0931230999995,561.0931230999995,561.0931230999995,561.0931230999995,old_sceneIn_30.png,185,4.0,1.2937424000001556,,016,0,2024-11-12_16h31.39.732,Surprise recog test,2023.1.3,59.95250562534481,
185,0,185,0,,,,,,,,,,,,,,,,,,,,,,,,,,,,,,,,,,564.3779592000001,565.3989650000003,563.4115659999998,563.4115659999998,563.4115659999998,563.4115659999998,old_sceneOut_14.png,186,4.0,0.9691325999992841,,016,0,2024-11-12_16h31.39.732,Surprise recog test,2023.1.3,59.95250562534481,
186,0,186,0,,,,,,,,,,,,,,,,,,,,,,,,,,,,,,,,,,567.5574153999996,568.5846072000004,565.3989650000003,565.3989650000003,565.3989650000003,565.3989650000003,new_fruit_25.png,187,4.0,2.1610155999997005,,016,0,2024-11-12_16h31.39.732,Surprise recog test,2023.1.3,59.95250562534481,
187,0,187,0,,,,,,,,,,,,,,,,,,,,,,,,,,,,,,,,,,570.2676847000002,571.2821576999995,568.5846072000004,568.5846072000004,568.5846072000004,568.5846072000004,old_sceneIn_8.png,188,3.0,1.6853869999995368,,016,0,2024-11-12_16h31.39.732,Surprise recog test,2023.1.3,59.95250562534481,
188,0,188,0,,,,,,,,,,,,,,,,,,,,,,,,,,,,,,,,,,572.8266568999998,573.8442077,571.2821576999995,571.2821576999995,571.2821576999995,571.2821576999995,new_sceneIn_39.png,189,3.0,1.5458697000003667,,016,0,2024-11-12_16h31.39.732,Surprise recog test,2023.1.3,59.95250562534481,
189,0,189,0,,,,,,,,,,,,,,,,,,,,,,,,,,,,,,,,,,575.3724334999997,576.3779502999996,573.8442077,573.8442077,573.8442077,573.8442077,old_fruit_7.png,190,1.0,1.5221787999998924,,016,0,2024-11-12_16h31.39.732,Surprise recog test,2023.1.3,59.95250562534481,
190,0,190,0,,,,,,,,,,,,,,,,,,,,,,,,,,,,,,,,,,578.1070707999997,579.1145968999999,576.3779502999996,576.3779502999996,576.3779502999996,576.3779502999996,old_stationery_14.png,191,1.0,1.7198752000003878,,016,0,2024-11-12_16h31.39.732,Surprise recog test,2023.1.3,59.95250562534481,
191,0,191,0,,,,,,,,,,,,,,,,,,,,,,,,,,,,,,,,,,581.4264579999999,582.4346831000003,579.1145968999999,579.1145968999999,579.1145968999999,579.1145968999999,old_sceneIn_22.png,192,4.0,2.3025448999997025,,016,0,2024-11-12_16h31.39.732,Surprise recog test,2023.1.3,59.95250562534481,
192,0,192,0,,,,,,,,,,,,,,,,,,,,,,,,,,,,,,,,,,583.6469922999995,584.6631156000003,582.4346831000003,582.4346831000003,582.4346831000003,582.4346831000003,old_sceneIn_49.png,193,4.0,1.208165299999564,,016,0,2024-11-12_16h31.39.732,Surprise recog test,2023.1.3,59.95250562534481,
193,0,193,0,,,,,,,,,,,,,,,,,,,,,,,,,,,,,,,,,,586.6163579000004,,584.6631156000003,584.6631156000003,584.6631156000003,584.6631156000003,new_fruit_19.png,194,5.0,1.9528536999996504,,016,0,2024-11-12_16h31.39.732,Surprise recog test,2023.1.3,59.95250562534481,
194,0,194,0,,,,,,,,,,,,,,,,,,,,,,,,,,,,,,,,,,589.3103877000003,590.3248057999999,587.6525308,587.6525308,587.6525308,587.6525308,new_sceneIn_37.png,195,5.0,1.6603951000006418,,016,0,2024-11-12_16h31.39.732,Surprise recog test,2023.1.3,59.95250562534481,
195,0,195,0,,,,,,,,,,,,,,,,,,,,,,,,,,,,,,,,,,591.8925565999998,592.9227908000003,590.3248057999999,590.3248057999999,590.3248057999999,590.3248057999999,old_sceneOut_1.png,196,4.0,1.5638182000002416,,016,0,2024-11-12_16h31.39.732,Surprise recog test,2023.1.3,59.95250562534481,
196,0,196,0,,,,,,,,,,,,,,,,,,,,,,,,,,,,,,,,,,594.5770810000004,595.6091470000001,592.9227908000003,592.9227908000003,592.9227908000003,592.9227908000003,new_sceneIn_3.png,197,3.0,1.6560226000001421,,016,0,2024-11-12_16h31.39.732,Surprise recog test,2023.1.3,59.95250562534481,
197,0,197,0,,,,,,,,,,,,,,,,,,,,,,,,,,,,,,,,,,596.9664021999997,597.9804143000001,595.6091470000001,595.6091470000001,595.6091470000001,595.6091470000001,new_fruit_35.png,198,4.0,1.359794900000452,,016,0,2024-11-12_16h31.39.732,Surprise recog test,2023.1.3,59.95250562534481,
198,0,198,0,,,,,,,,,,,,,,,,,,,,,,,,,,,,,,,,,,599.2988962999998,600.3129582000001,597.9804143000001,597.9804143000001,597.9804143000001,597.9804143000001,old_stationery_8.png,199,2.0,1.3121917999997095,,016,0,2024-11-12_16h31.39.732,Surprise recog test,2023.1.3,59.95250562534481,
199,0,199,0,,,,,,,,,,,,,,,,,,,,,,,,,,,,,,,,,,601.8601116999998,602.8848898999995,600.3129582000001,600.3129582000001,600.3129582000001,600.3129582000001,new_fruit_32.png,200,5.0,1.5376374999996187,,016,0,2024-11-12_16h31.39.732,Surprise recog test,2023.1.3,59.95250562534481,
200,0,200,0,,,,,,,,,,,,,,,,,,,,,,,,,,,,,,,,,,604.0312954999999,,602.8848898999995,602.8848898999995,602.8848898999995,602.8848898999995,old_sceneOut_38.png,201,4.0,1.151095900000655,,016,0,2024-11-12_16h31.39.732,Surprise recog test,2023.1.3,59.95250562534481,
201,0,201,0,,,,,,,,,,,,,,,,,,,,,,,,,,,,,,,,,,606.5003674999998,,605.0607115000003,605.0607115000003,605.0607115000003,605.0607115000003,old_sceneIn_37.png,202,4.0,1.4409815000008166,,016,0,2024-11-12_16h31.39.732,Surprise recog test,2023.1.3,59.95250562534481,
202,0,202,0,,,,,,,,,,,,,,,,,,,,,,,,,,,,,,,,,,609.0179695999996,610.0368197999996,607.5268516999995,607.5268516999995,607.5268516999995,607.5268516999995,new_fruit_33.png,203,5.0,1.4928784000003361,,016,0,2024-11-12_16h31.39.732,Surprise recog test,2023.1.3,59.95250562534481,
203,0,203,0,,,,,,,,,,,,,,,,,,,,,,,,,,,,,,,,,,611.5849944000001,612.5929851999999,610.0368197999996,610.0368197999996,610.0368197999996,610.0368197999996,old_sceneOut_44.png,204,3.0,1.5462342000000717,,016,0,2024-11-12_16h31.39.732,Surprise recog test,2023.1.3,59.95250562534481,
204,0,204,0,,,,,,,,,,,,,,,,,,,,,,,,,,,,,,,,,,614.1891282999995,,612.5929851999999,612.5929851999999,612.5929851999999,612.5929851999999,new_sceneIn_35.png,205,4.0,1.5921043000007558,,016,0,2024-11-12_16h31.39.732,Surprise recog test,2023.1.3,59.95250562534481,
205,0,205,0,,,,,,,,,,,,,,,,,,,,,,,,,,,,,,,,,,617.2651010999998,618.2982543999997,615.2115500999998,615.2115500999998,615.2115500999998,615.2115500999998,new_sceneIn_25.png,206,3.0,2.0482642999995733,,016,0,2024-11-12_16h31.39.732,Surprise recog test,2023.1.3,59.95250562534481,
206,0,206,0,,,,,,,,,,,,,,,,,,,,,,,,,,,,,,,,,,619.6736681000002,620.6880804000002,618.2982543999997,618.2982543999997,618.2982543999997,618.2982543999997,new_stationery_1.png,207,2.0,1.378543499999978,,016,0,2024-11-12_16h31.39.732,Surprise recog test,2023.1.3,59.95250562534481,
207,0,207,0,,,,,,,,,,,,,,,,,,,,,,,,,,,,,,,,,,622.4549475000003,623.4819138000003,620.6880804000002,620.6880804000002,620.6880804000002,620.6880804000002,old_sceneIn_21.png,208,4.0,1.765223500000502,,016,0,2024-11-12_16h31.39.732,Surprise recog test,2023.1.3,59.95250562534481,
208,0,208,0,,,,,,,,,,,,,,,,,,,,,,,,,,,,,,,,,,624.8792645000003,625.9022297000001,623.4819138000003,623.4819138000003,623.4819138000003,623.4819138000003,old_sceneOut_31.png,209,4.0,1.398653600000216,,016,0,2024-11-12_16h31.39.732,Surprise recog test,2023.1.3,59.95250562534481,
209,0,209,0,,,,,,,,,,,,,,,,,,,,,,,,,,,,,,,,,,627.5705607999998,628.5985559000001,625.9022297000001,625.9022297000001,625.9022297000001,625.9022297000001,new_stationery_47.png,210,4.0,1.6675528000005215,,016,0,2024-11-12_16h31.39.732,Surprise recog test,2023.1.3,59.95250562534481,
210,0,210,0,,,,,,,,,,,,,,,,,,,,,,,,,,,,,,,,,,630.4282947000002,631.4558657999996,628.5985559000001,628.5985559000001,628.5985559000001,628.5985559000001,new_stationery_18.png,211,2.0,1.8293110000004162,,016,0,2024-11-12_16h31.39.732,Surprise recog test,2023.1.3,59.95250562534481,
211,0,211,0,,,,,,,,,,,,,,,,,,,,,,,,,,,,,,,,,,632.9213196999999,,631.4558657999996,631.4558657999996,631.4558657999996,631.4558657999996,old_stationery_25.png,212,1.0,1.4683652999992773,,016,0,2024-11-12_16h31.39.732,Surprise recog test,2023.1.3,59.95250562534481,
212,0,212,0,,,,,,,,,,,,,,,,,,,,,,,,,,,,,,,,,,635.5397024000004,636.5573795999999,633.9414928999995,633.9414928999995,633.9414928999995,633.9414928999995,old_fruit_17.png,213,4.0,1.5917804000000615,,016,0,2024-11-12_16h31.39.732,Surprise recog test,2023.1.3,59.95250562534481,
213,0,213,0,,,,,,,,,,,,,,,,,,,,,,,,,,,,,,,,,,638.5457184999996,639.5765727999997,636.5573795999999,636.5573795999999,636.5573795999999,636.5573795999999,old_sceneOut_33.png,214,4.0,1.9843672000006336,,016,0,2024-11-12_16h31.39.732,Surprise recog test,2023.1.3,59.95250562534481,
214,0,214,0,,,,,,,,,,,,,,,,,,,,,,,,,,,,,,,,,,640.8419088999999,641.8662248999999,639.5765727999997,639.5765727999997,639.5765727999997,639.5765727999997,new_sceneOut_15.png,215,4.0,1.2672671000000264,,016,0,2024-11-12_16h31.39.732,Surprise recog test,2023.1.3,59.95250562534481,
215,0,215,0,,,,,,,,,,,,,,,,,,,,,,,,,,,,,,,,,,644.1893962000004,645.2149251000001,641.8662248999999,641.8662248999999,641.8662248999999,641.8662248999999,new_fruit_7.png,216,3.0,2.3213826999999583,,016,0,2024-11-12_16h31.39.732,Surprise recog test,2023.1.3,59.95250562534481,
216,0,216,0,,,,,,,,,,,,,,,,,,,,,,,,,,,,,,,,,,646.9113643000001,647.9339661000004,645.2149251000001,645.2149251000001,645.2149251000001,645.2149251000001,old_sceneIn_24.png,217,4.0,1.6993838999997024,,016,0,2024-11-12_16h31.39.732,Surprise recog test,2023.1.3,59.95250562534481,
217,0,217,0,,,,,,,,,,,,,,,,,,,,,,,,,,,,,,,,,,649.3802827,650.3912823000001,647.9339661000004,647.9339661000004,647.9339661000004,647.9339661000004,new_fruit_4.png,218,5.0,1.4472564999996393,,016,0,2024-11-12_16h31.39.732,Surprise recog test,2023.1.3,59.95250562534481,
218,0,218,0,,,,,,,,,,,,,,,,,,,,,,,,,,,,,,,,,,651.8366778999998,652.8567382000001,650.3912823000001,650.3912823000001,650.3912823000001,650.3912823000001,new_sceneOut_46.png,219,2.0,1.4405591000004279,,016,0,2024-11-12_16h31.39.732,Surprise recog test,2023.1.3,59.95250562534481,
219,0,219,0,,,,,,,,,,,,,,,,,,,,,,,,,,,,,,,,,,654.7473755999999,655.7758750000003,652.8567382000001,652.8567382000001,652.8567382000001,652.8567382000001,new_fruit_31.png,220,4.0,1.8922771999996257,,016,0,2024-11-12_16h31.39.732,Surprise recog test,2023.1.3,59.95250562534481,
220,0,220,0,,,,,,,,,,,,,,,,,,,,,,,,,,,,,,,,,,657.2698840000003,658.2865046999996,655.7758750000003,655.7758750000003,655.7758750000003,655.7758750000003,old_sceneOut_5.png,221,4.0,1.4962072999996963,,016,0,2024-11-12_16h31.39.732,Surprise recog test,2023.1.3,59.95250562534481,
221,0,221,0,,,,,,,,,,,,,,,,,,,,,,,,,,,,,,,,,,660.4988676000003,661.529759,658.2865046999996,658.2865046999996,658.2865046999996,658.2865046999996,new_fruit_23.png,222,3.0,2.2130042999997386,,016,0,2024-11-12_16h31.39.732,Surprise recog test,2023.1.3,59.95250562534481,
222,0,222,0,,,,,,,,,,,,,,,,,,,,,,,,,,,,,,,,,,663.0120969,664.0176672999996,661.529759,661.529759,661.529759,661.529759,new_stationery_31.png,223,4.0,1.4841035999997985,,016,0,2024-11-12_16h31.39.732,Surprise recog test,2023.1.3,59.95250562534481,
223,0,223,0,,,,,,,,,,,,,,,,,,,,,,,,,,,,,,,,,,665.5889441999998,666.6176622000003,664.0176672999996,664.0176672999996,664.0176672999996,664.0176672999996,new_fruit_1.png,224,5.0,1.5651568999992378,,016,0,2024-11-12_16h31.39.732,Surprise recog test,2023.1.3,59.95250562534481,
224,0,224,0,,,,,,,,,,,,,,,,,,,,,,,,,,,,,,,,,,668.1226875000002,669.1596839000003,666.6176622000003,666.6176622000003,666.6176622000003,666.6176622000003,old_sceneIn_40.png,225,2.0,1.5056606000007378,,016,0,2024-11-12_16h31.39.732,Surprise recog test,2023.1.3,59.95250562534481,
225,0,225,0,,,,,,,,,,,,,,,,,,,,,,,,,,,,,,,,,,670.7434180999999,671.7650995000004,669.1596839000003,669.1596839000003,669.1596839000003,669.1596839000003,new_fruit_10.png,226,4.0,1.5829614000003858,,016,0,2024-11-12_16h31.39.732,Surprise recog test,2023.1.3,59.95250562534481,
226,0,226,0,,,,,,,,,,,,,,,,,,,,,,,,,,,,,,,,,,673.7531014999995,674.7733754999999,671.7650995000004,671.7650995000004,671.7650995000004,671.7650995000004,old_sceneOut_25.png,227,4.0,1.9828647000003912,,016,0,2024-11-12_16h31.39.732,Surprise recog test,2023.1.3,59.95250562534481,
227,0,227,0,,,,,,,,,,,,,,,,,,,,,,,,,,,,,,,,,,676.1552448000002,677.1762096000002,674.7733754999999,674.7733754999999,674.7733754999999,674.7733754999999,old_sceneOut_34.png,228,4.0,1.3819573999999193,,016,0,2024-11-12_16h31.39.732,Surprise recog test,2023.1.3,59.95250562534481,
228,0,228,0,,,,,,,,,,,,,,,,,,,,,,,,,,,,,,,,,,678.3353150000003,679.3495913999996,677.1762096000002,677.1762096000002,677.1762096000002,677.1762096000002,old_sceneOut_23.png,229,4.0,1.1606647999997222,,016,0,2024-11-12_16h31.39.732,Surprise recog test,2023.1.3,59.95250562534481,
229,0,229,0,,,,,,,,,,,,,,,,,,,,,,,,,,,,,,,,,,681.2094903999996,682.2153142999996,679.3495913999996,679.3495913999996,679.3495913999996,679.3495913999996,old_sceneIn_17.png,230,3.0,1.853031099999498,,016,0,2024-11-12_16h31.39.732,Surprise recog test,2023.1.3,59.95250562534481,
230,0,230,0,,,,,,,,,,,,,,,,,,,,,,,,,,,,,,,,,,683.7353958000003,684.7526822999998,682.2153142999996,682.2153142999996,682.2153142999996,682.2153142999996,old_sceneIn_34.png,231,5.0,1.5178150000001551,,016,0,2024-11-12_16h31.39.732,Surprise recog test,2023.1.3,59.95250562534481,
231,0,231,0,,,,,,,,,,,,,,,,,,,,,,,,,,,,,,,,,,685.7298479000001,686.7526071000002,684.7526822999998,684.7526822999998,684.7526822999998,684.7526822999998,old_sceneOut_15.png,232,4.0,0.9707744999996066,,016,0,2024-11-12_16h31.39.732,Surprise recog test,2023.1.3,59.95250562534481,
232,0,232,0,,,,,,,,,,,,,,,,,,,,,,,,,,,,,,,,,,688.2514080999999,,686.7526071000002,686.7526071000002,686.7526071000002,686.7526071000002,new_fruit_37.png,233,1.0,1.503380100000868,,016,0,2024-11-12_16h31.39.732,Surprise recog test,2023.1.3,59.95250562534481,
233,0,233,0,,,,,,,,,,,,,,,,,,,,,,,,,,,,,,,,,,690.7913662999999,691.8237300000001,689.2854457000003,689.2854457000003,689.2854457000003,689.2854457000003,old_fruit_11.png,234,2.0,1.5088318999996773,,016,0,2024-11-12_16h31.39.732,Surprise recog test,2023.1.3,59.95250562534481,
234,0,234,0,,,,,,,,,,,,,,,,,,,,,,,,,,,,,,,,,,693.3263359000002,694.3438152999997,691.8237300000001,691.8237300000001,691.8237300000001,691.8237300000001,old_sceneIn_38.png,235,4.0,1.5067877999999837,,016,0,2024-11-12_16h31.39.732,Surprise recog test,2023.1.3,59.95250562534481,
235,0,235,0,,,,,,,,,,,,,,,,,,,,,,,,,,,,,,,,,,696.0046584000002,697.0183323000001,694.3438152999997,694.3438152999997,694.3438152999997,694.3438152999997,old_stationery_46.png,236,2.0,1.6567006999994192,,016,0,2024-11-12_16h31.39.732,Surprise recog test,2023.1.3,59.95250562534481,
236,0,236,0,,,,,,,,,,,,,,,,,,,,,,,,,,,,,,,,,,698.5635941,699.5824198999999,697.0183323000001,697.0183323000001,697.0183323000001,697.0183323000001,new_stationery_20.png,237,4.0,1.5421194999998988,,016,0,2024-11-12_16h31.39.732,Surprise recog test,2023.1.3,59.95250562534481,
237,0,237,0,,,,,,,,,,,,,,,,,,,,,,,,,,,,,,,,,,700.8257008999999,701.8460353,699.5824198999999,699.5824198999999,699.5824198999999,699.5824198999999,new_sceneOut_42.png,238,3.0,1.235902200000055,,016,0,2024-11-12_16h31.39.732,Surprise recog test,2023.1.3,59.95250562534481,
238,0,238,0,,,,,,,,,,,,,,,,,,,,,,,,,,,,,,,,,,703.8950852999997,704.9113378000002,701.8460353,701.8460353,701.8460353,701.8460353,old_stationery_49.png,239,2.0,2.045006999999714,,016,0,2024-11-12_16h31.39.732,Surprise recog test,2023.1.3,59.95250562534481,
239,0,239,0,,,,,,,,,,,,,,,,,,,,,,,,,,,,,,,,,,706.3635990000002,707.3699078,704.9113378000002,704.9113378000002,704.9113378000002,704.9113378000002,old_stationery_39.png,240,2.0,1.4464445000003252,,016,0,2024-11-12_16h31.39.732,Surprise recog test,2023.1.3,59.95250562534481,
240,0,240,0,,,,,,,,,,,,,,,,,,,,,,,,,,,,,,,,,,709.2923023000003,710.3080135999999,707.3699078,707.3699078,707.3699078,707.3699078,new_sceneOut_37.png,241,3.0,1.9187053000005108,,016,0,2024-11-12_16h31.39.732,Surprise recog test,2023.1.3,59.95250562534481,
241,0,241,0,,,,,,,,,,,,,,,,,,,,,,,,,,,,,,,,,,711.6753804,712.7050694999998,710.3080135999999,710.3080135999999,710.3080135999999,710.3080135999999,new_sceneIn_29.png,242,4.0,1.3622203000004447,,016,0,2024-11-12_16h31.39.732,Surprise recog test,2023.1.3,59.95250562534481,
242,0,242,0,,,,,,,,,,,,,,,,,,,,,,,,,,,,,,,,,,714.5424752999998,715.5753180000002,712.7050694999998,712.7050694999998,712.7050694999998,712.7050694999998,old_sceneIn_12.png,243,5.0,1.839145599999938,,016,0,2024-11-12_16h31.39.732,Surprise recog test,2023.1.3,59.95250562534481,
243,0,243,0,,,,,,,,,,,,,,,,,,,,,,,,,,,,,,,,,,717.3212334999998,718.3271263999995,715.5753180000002,715.5753180000002,715.5753180000002,715.5753180000002,new_fruit_27.png,244,4.0,1.74912409999979,,016,0,2024-11-12_16h31.39.732,Surprise recog test,2023.1.3,59.95250562534481,
244,0,244,0,,,,,,,,,,,,,,,,,,,,,,,,,,,,,,,,,,720.3292934000001,,718.3271263999995,718.3271263999995,718.3271263999995,718.3271263999995,old_fruit_9.png,245,3.0,1.9948749000004682,,016,0,2024-11-12_16h31.39.732,Surprise recog test,2023.1.3,59.95250562534481,
245,0,245,0,,,,,,,,,,,,,,,,,,,,,,,,,,,,,,,,,,722.9492446000004,723.9690284999997,721.3498731999998,721.3498731999998,721.3498731999998,721.3498731999998,new_sceneIn_47.png,246,4.0,1.5940583999999944,,016,0,2024-11-12_16h31.39.732,Surprise recog test,2023.1.3,59.95250562534481,
246,0,246,0,,,,,,,,,,,,,,,,,,,,,,,,,,,,,,,,,,725.4793073999999,726.4849774000004,723.9690284999997,723.9690284999997,723.9690284999997,723.9690284999997,new_sceneIn_13.png,247,5.0,1.5062103999998726,,016,0,2024-11-12_16h31.39.732,Surprise recog test,2023.1.3,59.95250562534481,
247,0,247,0,,,,,,,,,,,,,,,,,,,,,,,,,,,,,,,,,,728.6821571999999,729.6912567999998,726.4849774000004,726.4849774000004,726.4849774000004,726.4849774000004,new_sceneIn_15.png,248,4.0,2.19375779999973,,016,0,2024-11-12_16h31.39.732,Surprise recog test,2023.1.3,59.95250562534481,
248,0,248,0,,,,,,,,,,,,,,,,,,,,,,,,,,,,,,,,,,730.9273529000002,731.9572902999998,729.6912567999998,729.6912567999998,729.6912567999998,729.6912567999998,new_sceneIn_2.png,249,4.0,1.2308923000000505,,016,0,2024-11-12_16h31.39.732,Surprise recog test,2023.1.3,59.95250562534481,
249,0,249,0,,,,,,,,,,,,,,,,,,,,,,,,,,,,,,,,,,733.5767432000002,734.6139526999996,731.9572902999998,731.9572902999998,731.9572902999998,731.9572902999998,new_stationery_6.png,250,2.0,1.6215314999999464,,016,0,2024-11-12_16h31.39.732,Surprise recog test,2023.1.3,59.95250562534481,
250,0,250,0,,,,,,,,,,,,,,,,,,,,,,,,,,,,,,,,,,735.9062121999996,736.9125360999997,734.6139526999996,734.6139526999996,734.6139526999996,734.6139526999996,new_sceneOut_32.png,251,3.0,1.296632800000225,,016,0,2024-11-12_16h31.39.732,Surprise recog test,2023.1.3,59.95250562534481,
251,0,251,0,,,,,,,,,,,,,,,,,,,,,,,,,,,,,,,,,,738.3804584,739.4175417999995,736.9125360999997,736.9125360999997,736.9125360999997,736.9125360999997,new_sceneOut_10.png,252,4.0,1.463781000000381,,016,0,2024-11-12_16h31.39.732,Surprise recog test,2023.1.3,59.95250562534481,
252,0,252,0,,,,,,,,,,,,,,,,,,,,,,,,,,,,,,,,,,740.4920087999999,741.5101709999999,739.4175417999995,739.4175417999995,739.4175417999995,739.4175417999995,old_sceneOut_13.png,253,4.0,1.0772663000007014,,016,0,2024-11-12_16h31.39.732,Surprise recog test,2023.1.3,59.95250562534481,
253,0,253,0,,,,,,,,,,,,,,,,,,,,,,,,,,,,,,,,,,742.8272616000004,743.8455948999999,741.5101709999999,741.5101709999999,741.5101709999999,741.5101709999999,new_sceneOut_6.png,254,3.0,1.3106898999994883,,016,0,2024-11-12_16h31.39.732,Surprise recog test,2023.1.3,59.95250562534481,
254,0,254,0,,,,,,,,,,,,,,,,,,,,,,,,,,,,,,,,,,745.2459132000004,746.2543820999999,743.8455948999999,743.8455948999999,743.8455948999999,743.8455948999999,old_sceneOut_50.png,255,4.0,1.3972722999997131,,016,0,2024-11-12_16h31.39.732,Surprise recog test,2023.1.3,59.95250562534481,
255,0,255,0,,,,,,,,,,,,,,,,,,,,,,,,,,,,,,,,,,747.5492672,748.5689626000003,746.2543820999999,746.2543820999999,746.2543820999999,746.2543820999999,new_stationery_32.png,256,4.0,1.2906121999994866,,016,0,2024-11-12_16h31.39.732,Surprise recog test,2023.1.3,59.95250562534481,
256,0,256,0,,,,,,,,,,,,,,,,,,,,,,,,,,,,,,,,,,749.9831266000001,751.0046091000004,748.5689626000003,748.5689626000003,748.5689626000003,748.5689626000003,new_sceneIn_45.png,257,4.0,1.4120876999995744,,016,0,2024-11-12_16h31.39.732,Surprise recog test,2023.1.3,59.95250562534481,
257,0,257,0,,,,,,,,,,,,,,,,,,,,,,,,,,,,,,,,,,752.2906455000002,753.3101133,751.0046091000004,751.0046091000004,751.0046091000004,751.0046091000004,old_sceneIn_25.png,258,5.0,1.2887784999993528,,016,0,2024-11-12_16h31.39.732,Surprise recog test,2023.1.3,59.95250562534481,
258,0,258,0,,,,,,,,,,,,,,,,,,,,,,,,,,,,,,,,,,754.7205359999998,755.7289401999997,753.3101133,753.3101133,753.3101133,753.3101133,new_sceneOut_48.png,259,3.0,1.3989376999998058,,016,0,2024-11-12_16h31.39.732,Surprise recog test,2023.1.3,59.95250562534481,
259,0,259,0,,,,,,,,,,,,,,,,,,,,,,,,,,,,,,,,,,756.9556528000003,757.9772818000001,755.7289401999997,755.7289401999997,755.7289401999997,755.7289401999997,old_sceneOut_43.png,260,4.0,1.221913499999573,,016,0,2024-11-12_16h31.39.732,Surprise recog test,2023.1.3,59.95250562534481,
260,0,260,0,,,,,,,,,,,,,,,,,,,,,,,,,,,,,,,,,,759.4323566000003,760.4482805999996,757.9772818000001,757.9772818000001,757.9772818000001,757.9772818000001,old_fruit_49.png,261,1.0,1.4576575999999477,,016,0,2024-11-12_16h31.39.732,Surprise recog test,2023.1.3,59.95250562534481,
261,0,261,0,,,,,,,,,,,,,,,,,,,,,,,,,,,,,,,,,,761.9362456999997,762.9717588000003,760.4482805999996,760.4482805999996,760.4482805999996,760.4482805999996,new_sceneIn_30.png,262,3.0,1.4839302000000316,,016,0,2024-11-12_16h31.39.732,Surprise recog test,2023.1.3,59.95250562534481,
262,0,262,0,,,,,,,,,,,,,,,,,,,,,,,,,,,,,,,,,,764.9822750000003,,762.9717588000003,762.9717588000003,762.9717588000003,762.9717588000003,new_stationery_25.png,263,4.0,2.0150462000001426,,016,0,2024-11-12_16h31.39.732,Surprise recog test,2023.1.3,59.95250562534481,
263,0,263,0,,,,,,,,,,,,,,,,,,,,,,,,,,,,,,,,,,767.8264759000003,768.8552754000002,766.0120387999996,766.0120387999996,766.0120387999996,766.0120387999996,new_stationery_49.png,264,2.0,1.814334400000007,,016,0,2024-11-12_16h31.39.732,Surprise recog test,2023.1.3,59.95250562534481,
264,0,264,0,,,,,,,,,,,,,,,,,,,,,,,,,,,,,,,,,,770.5904240999998,771.6081303999999,768.8552754000002,768.8552754000002,768.8552754000002,768.8552754000002,new_sceneIn_44.png,265,4.0,1.7382085999997798,,016,0,2024-11-12_16h31.39.732,Surprise recog test,2023.1.3,59.95250562534481,
265,0,265,0,,,,,,,,,,,,,,,,,,,,,,,,,,,,,,,,,,773.3264754000002,774.3436851999995,771.6081303999999,771.6081303999999,771.6081303999999,771.6081303999999,new_sceneOut_44.png,266,2.0,1.7107535000004646,,016,0,2024-11-12_16h31.39.732,Surprise recog test,2023.1.3,59.95250562534481,
266,0,266,0,,,,,,,,,,,,,,,,,,,,,,,,,,,,,,,,,,775.8565066000001,776.8735421000001,774.3436851999995,774.3436851999995,774.3436851999995,774.3436851999995,old_stationery_17.png,267,5.0,1.5063290000007328,,016,0,2024-11-12_16h31.39.732,Surprise recog test,2023.1.3,59.95250562534481,
267,0,267,0,,,,,,,,,,,,,,,,,,,,,,,,,,,,,,,,,,778.1095911000002,,776.8735421000001,776.8735421000001,776.8735421000001,776.8735421000001,old_sceneIn_27.png,268,4.0,1.2387420000004568,,016,0,2024-11-12_16h31.39.732,Surprise recog test,2023.1.3,59.95250562534481,
268,0,268,0,,,,,,,,,,,,,,,,,,,,,,,,,,,,,,,,,,780.3533785,781.3771292000001,779.1311331999996,779.1311331999996,779.1311331999996,779.1311331999996,old_sceneIn_20.png,269,4.0,1.2181176999993113,,016,0,2024-11-12_16h31.39.732,Surprise recog test,2023.1.3,59.95250562534481,
269,0,269,0,,,,,,,,,,,,,,,,,,,,,,,,,,,,,,,,,,782.8151244999999,783.8473174000001,781.3771292000001,781.3771292000001,781.3771292000001,781.3771292000001,new_fruit_5.png,270,2.0,1.4403984000000492,,016,0,2024-11-12_16h31.39.732,Surprise recog test,2023.1.3,59.95250562534481,
270,0,270,0,,,,,,,,,,,,,,,,,,,,,,,,,,,,,,,,,,785.1863143999999,786.2042431,783.8473174000001,783.8473174000001,783.8473174000001,783.8473174000001,new_sceneOut_4.png,271,3.0,1.3413743000000977,,016,0,2024-11-12_16h31.39.732,Surprise recog test,2023.1.3,59.95250562534481,
271,0,271,0,,,,,,,,,,,,,,,,,,,,,,,,,,,,,,,,,,787.6725890999996,788.6902042000002,786.2042431,786.2042431,786.2042431,786.2042431,old_sceneIn_10.png,272,3.0,1.4643820999999662,,016,0,2024-11-12_16h31.39.732,Surprise recog test,2023.1.3,59.95250562534481,
272,0,272,0,,,,,,,,,,,,,,,,,,,,,,,,,,,,,,,,,,790.2604382999998,791.2884640000002,788.6902042000002,788.6902042000002,788.6902042000002,788.6902042000002,old_fruit_35.png,273,4.0,1.564226299999973,,016,0,2024-11-12_16h31.39.732,Surprise recog test,2023.1.3,59.95250562534481,
273,0,273,0,,,,,,,,,,,,,,,,,,,,,,,,,,,,,,,,,,792.7226258000001,,791.2884640000002,791.2884640000002,791.2884640000002,791.2884640000002,old_sceneIn_44.png,274,4.0,1.4371363000000201,,016,0,2024-11-12_16h31.39.732,Surprise recog test,2023.1.3,59.95250562534481,
274,0,274,0,,,,,,,,,,,,,,,,,,,,,,,,,,,,,,,,,,795.1542657999998,796.1741548,793.7429398000004,793.7429398000004,793.7429398000004,793.7429398000004,new_sceneOut_26.png,275,4.0,1.4016325000002325,,016,0,2024-11-12_16h31.39.732,Surprise recog test,2023.1.3,59.95250562534481,
275,0,275,0,,,,,,,,,,,,,,,,,,,,,,,,,,,,,,,,,,797.2894893000002,798.3075618000003,796.1741548,796.1741548,796.1741548,796.1741548,new_sceneOut_1.png,276,3.0,1.1176746999999523,,016,0,2024-11-12_16h31.39.732,Surprise recog test,2023.1.3,59.95250562534481,
276,0,276,0,,,,,,,,,,,,,,,,,,,,,,,,,,,,,,,,,,800.0925858999999,801.1082634000004,798.3075618000003,798.3075618000003,798.3075618000003,798.3075618000003,new_sceneIn_48.png,277,3.0,1.7850262000001749,,016,0,2024-11-12_16h31.39.732,Surprise recog test,2023.1.3,59.95250562534481,
277,0,277,0,,,,,,,,,,,,,,,,,,,,,,,,,,,,,,,,,,803.0235960999998,804.0351551000003,801.1082634000004,801.1082634000004,801.1082634000004,801.1082634000004,old_stationery_26.png,278,3.0,1.9127067999997962,,016,0,2024-11-12_16h31.39.732,Surprise recog test,2023.1.3,59.95250562534481,
278,0,278,0,,,,,,,,,,,,,,,,,,,,,,,,,,,,,,,,,,805.9516531999998,806.9713062999999,804.0351551000003,804.0351551000003,804.0351551000003,804.0351551000003,old_fruit_48.png,279,2.0,1.911443799999688,,016,0,2024-11-12_16h31.39.732,Surprise recog test,2023.1.3,59.95250562534481,
279,0,279,0,,,,,,,,,,,,,,,,,,,,,,,,,,,,,,,,,,808.9691518999998,,806.9713062999999,806.9713062999999,806.9713062999999,806.9713062999999,old_fruit_4.png,280,1.0,1.9893410000004224,,016,0,2024-11-12_16h31.39.732,Surprise recog test,2023.1.3,59.95250562534481,
280,0,280,0,,,,,,,,,,,,,,,,,,,,,,,,,,,,,,,,,,811.5633797,812.5719972999996,809.9887361000001,809.9887361000001,809.9887361000001,809.9887361000001,old_sceneIn_33.png,281,4.0,1.569775099999788,,016,0,2024-11-12_16h31.39.732,Surprise recog test,2023.1.3,59.95250562534481,
281,0,281,0,,,,,,,,,,,,,,,,,,,,,,,,,,,,,,,,,,814.1394385000003,,812.5719972999996,812.5719972999996,812.5719972999996,812.5719972999996,old_sceneIn_48.png,282,4.0,1.5640740000008009,,016,0,2024-11-12_16h31.39.732,Surprise recog test,2023.1.3,59.95250562534481,
282,0,282,0,,,,,,,,,,,,,,,,,,,,,,,,,,,,,,,,,,816.7953993000001,817.8248565000004,815.1726786999998,815.1726786999998,815.1726786999998,815.1726786999998,old_sceneIn_46.png,283,5.0,1.6226891000005708,,016,0,2024-11-12_16h31.39.732,Surprise recog test,2023.1.3,59.95250562534481,
283,0,283,0,,,,,,,,,,,,,,,,,,,,,,,,,,,,,,,,,,819.3053358999996,820.3141156000002,817.8248565000004,817.8248565000004,817.8248565000004,817.8248565000004,new_stationery_50.png,284,4.0,1.482307899999796,,016,0,2024-11-12_16h31.39.732,Surprise recog test,2023.1.3,59.95250562534481,
284,0,284,0,,,,,,,,,,,,,,,,,,,,,,,,,,,,,,,,,,822.2578304999997,823.2796007999996,820.3141156000002,820.3141156000002,820.3141156000002,820.3141156000002,old_fruit_2.png,285,1.0,1.9394222999999329,,016,0,2024-11-12_16h31.39.732,Surprise recog test,2023.1.3,59.95250562534481,
285,0,285,0,,,,,,,,,,,,,,,,,,,,,,,,,,,,,,,,,,824.8737056999998,825.8932925999998,823.2796007999996,823.2796007999996,823.2796007999996,823.2796007999996,old_sceneIn_41.png,286,4.0,1.5960919999997714,,016,0,2024-11-12_16h31.39.732,Surprise recog test,2023.1.3,59.95250562534481,
286,0,286,0,,,,,,,,,,,,,,,,,,,,,,,,,,,,,,,,,,827.3639125,828.3844351999996,825.8932925999998,825.8932925999998,825.8932925999998,825.8932925999998,old_sceneOut_10.png,287,4.0,1.4720268999999462,,016,0,2024-11-12_16h31.39.732,Surprise recog test,2023.1.3,59.95250562534481,
287,0,287,0,,,,,,,,,,,,,,,,,,,,,,,,,,,,,,,,,,830.2332759999999,831.2553058000003,828.3844351999996,828.3844351999996,828.3844351999996,828.3844351999996,old_fruit_14.png,288,2.0,1.8440544000004593,,016,0,2024-11-12_16h31.39.732,Surprise recog test,2023.1.3,59.95250562534481,
288,0,288,0,,,,,,,,,,,,,,,,,,,,,,,,,,,,,,,,,,832.7808592000001,833.7931306999999,831.2553058000003,831.2553058000003,831.2553058000003,831.2553058000003,old_stationery_50.png,289,2.0,1.5278688000007605,,016,0,2024-11-12_16h31.39.732,Surprise recog test,2023.1.3,59.95250562534481,
289,0,289,0,,,,,,,,,,,,,,,,,,,,,,,,,,,,,,,,,,835.2618950999995,836.2911560000002,833.7931306999999,833.7931306999999,833.7931306999999,833.7931306999999,new_sceneIn_21.png,290,4.0,1.4648465999998734,,016,0,2024-11-12_16h31.39.732,Surprise recog test,2023.1.3,59.95250562534481,
290,0,290,0,,,,,,,,,,,,,,,,,,,,,,,,,,,,,,,,,,837.7231075999998,838.7494907,836.2911560000002,836.2911560000002,836.2911560000002,836.2911560000002,new_sceneOut_36.png,291,3.0,1.4334111999996821,,016,0,2024-11-12_16h31.39.732,Surprise recog test,2023.1.3,59.95250562534481,
291,0,291,0,,,,,,,,,,,,,,,,,,,,,,,,,,,,,,,,,,840.5494780999998,841.5779376,838.7494907,838.7494907,838.7494907,838.7494907,new_fruit_15.png,292,4.0,1.801729400000113,,016,0,2024-11-12_16h31.39.732,Surprise recog test,2023.1.3,59.95250562534481,
292,0,292,0,,,,,,,,,,,,,,,,,,,,,,,,,,,,,,,,,,842.8438028999999,843.8597325999999,841.5779376,841.5779376,841.5779376,841.5779376,new_stationery_10.png,293,4.0,1.2655261999998402,,016,0,2024-11-12_16h31.39.732,Surprise recog test,2023.1.3,59.95250562534481,
293,0,293,0,,,,,,,,,,,,,,,,,,,,,,,,,,,,,,,,,,845.4694073999999,846.4831519999998,843.8597325999999,843.8597325999999,843.8597325999999,843.8597325999999,new_sceneIn_11.png,294,4.0,1.610231699999531,,016,0,2024-11-12_16h31.39.732,Surprise recog test,2023.1.3,59.95250562534481,
294,0,294,0,,,,,,,,,,,,,,,,,,,,,,,,,,,,,,,,,,848.3284709999998,849.3393737999995,846.4831519999998,846.4831519999998,846.4831519999998,846.4831519999998,new_stationery_43.png,295,5.0,1.8414532000006147,,016,0,2024-11-12_16h31.39.732,Surprise recog test,2023.1.3,59.95250562534481,
295,0,295,0,,,,,,,,,,,,,,,,,,,,,,,,,,,,,,,,,,851.5969549000001,852.6222887000004,849.3393737999995,849.3393737999995,849.3393737999995,849.3393737999995,new_fruit_43.png,296,5.0,2.253122000000076,,016,0,2024-11-12_16h31.39.732,Surprise recog test,2023.1.3,59.95250562534481,
296,0,296,0,,,,,,,,,,,,,,,,,,,,,,,,,,,,,,,,,,853.9981803000001,855.0276418000003,852.6222887000004,852.6222887000004,852.6222887000004,852.6222887000004,new_fruit_13.png,297,5.0,1.3791160000000673,,016,0,2024-11-12_16h31.39.732,Surprise recog test,2023.1.3,59.95250562534481,
297,0,297,0,,,,,,,,,,,,,,,,,,,,,,,,,,,,,,,,,,856.5010043000002,857.5229962000003,855.0276418000003,855.0276418000003,855.0276418000003,855.0276418000003,old_fruit_40.png,298,2.0,1.4749005000003308,,016,0,2024-11-12_16h31.39.732,Surprise recog test,2023.1.3,59.95250562534481,
298,0,298,0,,,,,,,,,,,,,,,,,,,,,,,,,,,,,,,,,,858.8106115,,857.5229962000003,857.5229962000003,857.5229962000003,857.5229962000003,old_sceneIn_50.png,299,4.0,1.2844938999996884,,016,0,2024-11-12_16h31.39.732,Surprise recog test,2023.1.3,59.95250562534481,
299,0,299,0,,,,,,,,,,,,,,,,,,,,,,,,,,,,,,,,,,861.3331322000004,862.3473123000003,859.8306204,859.8306204,859.8306204,859.8306204,old_fruit_37.png,300,4.0,1.4986572000007072,,016,0,2024-11-12_16h31.39.732,Surprise recog test,2023.1.3,59.95250562534481,
300,0,300,0,,,,,,,,,,,,,,,,,,,,,,,,,,,,,,,,,,864.3952490000001,865.4143310999998,862.3473123000003,862.3473123000003,862.3473123000003,862.3473123000003,old_stationery_44.png,301,1.0,2.03697209999973,,016,0,2024-11-12_16h31.39.732,Surprise recog test,2023.1.3,59.95250562534481,
301,0,301,0,,,,,,,,,,,,,,,,,,,,,,,,,,,,,,,,,,867.6142166999998,868.6321017999999,865.4143310999998,865.4143310999998,865.4143310999998,865.4143310999998,new_fruit_45.png,302,4.0,2.1944258000003174,,016,0,2024-11-12_16h31.39.732,Surprise recog test,2023.1.3,59.95250562534481,
302,0,302,0,,,,,,,,,,,,,,,,,,,,,,,,,,,,,,,,,,870.3165167999996,871.3250276999997,868.6321017999999,868.6321017999999,868.6321017999999,868.6321017999999,old_sceneIn_3.png,303,4.0,1.6830626000000848,,016,0,2024-11-12_16h31.39.732,Surprise recog test,2023.1.3,59.95250562534481,
303,0,303,0,,,,,,,,,,,,,,,,,,,,,,,,,,,,,,,,,,872.7673494000001,873.7885178999995,871.3250276999997,871.3250276999997,871.3250276999997,871.3250276999997,old_sceneOut_21.png,304,5.0,1.4380066000003353,,016,0,2024-11-12_16h31.39.732,Surprise recog test,2023.1.3,59.95250562534481,
304,0,304,0,,,,,,,,,,,,,,,,,,,,,,,,,,,,,,,,,,875.029423,876.0575325,873.7885178999995,873.7885178999995,873.7885178999995,873.7885178999995,new_stationery_9.png,305,4.0,1.2445729999999458,,016,0,2024-11-12_16h31.39.732,Surprise recog test,2023.1.3,59.95250562534481,
305,0,305,0,,,,,,,,,,,,,,,,,,,,,,,,,,,,,,,,,,877.8263514,,876.0575325,876.0575325,876.0575325,876.0575325,old_stationery_42.png,306,1.0,1.7724041999999827,,016,0,2024-11-12_16h31.39.732,Surprise recog test,2023.1.3,59.95250562534481,
306,0,306,0,,,,,,,,,,,,,,,,,,,,,,,,,,,,,,,,,,880.3155373,881.3475695999996,878.8547461999997,878.8547461999997,878.8547461999997,878.8547461999997,old_sceneIn_39.png,307,3.0,1.457781499999328,,016,0,2024-11-12_16h31.39.732,Surprise recog test,2023.1.3,59.95250562534481,
307,0,307,0,,,,,,,,,,,,,,,,,,,,,,,,,,,,,,,,,,882.7066126999998,883.7303552000003,881.3475695999996,881.3475695999996,881.3475695999996,881.3475695999996,new_sceneIn_18.png,308,2.0,1.3612726000001203,,016,0,2024-11-12_16h31.39.732,Surprise recog test,2023.1.3,59.95250562534481,
308,0,308,0,,,,,,,,,,,,,,,,,,,,,,,,,,,,,,,,,,885.2349224,886.2660231,883.7303552000003,883.7303552000003,883.7303552000003,883.7303552000003,old_fruit_43.png,309,1.0,1.5071269999998549,,016,0,2024-11-12_16h31.39.732,Surprise recog test,2023.1.3,59.95250562534481,
309,0,309,0,,,,,,,,,,,,,,,,,,,,,,,,,,,,,,,,,,887.4515060000003,,886.2660231,886.2660231,886.2660231,886.2660231,old_stationery_18.png,310,2.0,1.1879701999996541,,016,0,2024-11-12_16h31.39.732,Surprise recog test,2023.1.3,59.95250562534481,
310,0,310,0,,,,,,,,,,,,,,,,,,,,,,,,,,,,,,,,,,889.8644392999995,890.8820556999999,888.4711096000001,888.4711096000001,888.4711096000001,888.4711096000001,new_stationery_7.png,311,4.0,1.3891806000001452,,016,0,2024-11-12_16h31.39.732,Surprise recog test,2023.1.3,59.95250562534481,
311,0,311,0,,,,,,,,,,,,,,,,,,,,,,,,,,,,,,,,,,893.2174987999997,894.2385173000002,890.8820556999999,890.8820556999999,890.8820556999999,890.8820556999999,new_sceneIn_22.png,312,3.0,2.3369990999999573,,016,0,2024-11-12_16h31.39.732,Surprise recog test,2023.1.3,59.95250562534481,
312,0,312,0,,,,,,,,,,,,,,,,,,,,,,,,,,,,,,,,,,895.3262924999999,896.3444759000004,894.2385173000002,894.2385173000002,894.2385173000002,894.2385173000002,old_sceneIn_32.png,313,4.0,1.0899653000005856,,016,0,2024-11-12_16h31.39.732,Surprise recog test,2023.1.3,59.95250562534481,
313,0,313,0,,,,,,,,,,,,,,,,,,,,,,,,,,,,,,,,,,897.8260362000001,,896.3444759000004,896.3444759000004,896.3444759000004,896.3444759000004,old_fruit_42.png,314,4.0,1.475828200000251,,016,0,2024-11-12_16h31.39.732,Surprise recog test,2023.1.3,59.95250562534481,
314,0,314,0,,,,,,,,,,,,,,,,,,,,,,,,,,,,,,,,,,900.2721599999995,901.2941396999995,898.8464842000003,898.8464842000003,898.8464842000003,898.8464842000003,old_sceneOut_49.png,315,5.0,1.4207279000002018,,016,0,2024-11-12_16h31.39.732,Surprise recog test,2023.1.3,59.95250562534481,
315,0,315,0,,,,,,,,,,,,,,,,,,,,,,,,,,,,,,,,,,902.9235437999996,903.9352747000003,901.2941396999995,901.2941396999995,901.2941396999995,901.2941396999995,new_stationery_27.png,316,2.0,1.6286663000000772,,016,0,2024-11-12_16h31.39.732,Surprise recog test,2023.1.3,59.95250562534481,
316,0,316,0,,,,,,,,,,,,,,,,,,,,,,,,,,,,,,,,,,905.0965096,906.1204598000004,903.9352747000003,903.9352747000003,903.9352747000003,903.9352747000003,new_stationery_45.png,317,2.0,1.1571426999998948,,016,0,2024-11-12_16h31.39.732,Surprise recog test,2023.1.3,59.95250562534481,
317,0,317,0,,,,,,,,,,,,,,,,,,,,,,,,,,,,,,,,,,907.7444943999999,908.7523060000003,906.1204598000004,906.1204598000004,906.1204598000004,906.1204598000004,old_sceneOut_3.png,318,2.0,1.6251261000006707,,016,0,2024-11-12_16h31.39.732,Surprise recog test,2023.1.3,59.95250562534481,
318,0,318,0,,,,,,,,,,,,,,,,,,,,,,,,,,,,,,,,,,910.2843874999999,911.2924377999998,908.7523060000003,908.7523060000003,908.7523060000003,908.7523060000003,old_sceneIn_1.png,319,3.0,1.526629199999661,,016,0,2024-11-12_16h31.39.732,Surprise recog test,2023.1.3,59.95250562534481,
319,0,319,0,,,,,,,,,,,,,,,,,,,,,,,,,,,,,,,,,,912.6507019000001,913.6568541999995,911.2924377999998,911.2924377999998,911.2924377999998,911.2924377999998,new_stationery_12.png,320,4.0,1.3535693000003448,,016,0,2024-11-12_16h31.39.732,Surprise recog test,2023.1.3,59.95250562534481,
320,0,320,0,,,,,,,,,,,,,,,,,,,,,,,,,,,,,,,,,,914.7547949999998,915.7794942999999,913.6568541999995,913.6568541999995,913.6568541999995,913.6568541999995,new_sceneOut_22.png,321,4.0,1.0943120000001727,,016,0,2024-11-12_16h31.39.732,Surprise recog test,2023.1.3,59.95250562534481,
321,0,321,0,,,,,,,,,,,,,,,,,,,,,,,,,,,,,,,,,,917.1589517000002,,915.7794942999999,915.7794942999999,915.7794942999999,915.7794942999999,old_sceneIn_13.png,322,4.0,1.383520999999746,,016,0,2024-11-12_16h31.39.732,Surprise recog test,2023.1.3,59.95250562534481,
322,0,322,0,,,,,,,,,,,,,,,,,,,,,,,,,,,,,,,,,,919.7889401000002,920.7989564,918.1971164999995,918.1971164999995,918.1971164999995,918.1971164999995,old_stationery_22.png,323,5.0,1.5951953999992838,,016,0,2024-11-12_16h31.39.732,Surprise recog test,2023.1.3,59.95250562534481,
323,0,323,0,,,,,,,,,,,,,,,,,,,,,,,,,,,,,,,,,,922.0191311999997,923.0462041999999,920.7989564,920.7989564,920.7989564,920.7989564,old_sceneOut_22.png,324,4.0,1.2112982999997257,,016,0,2024-11-12_16h31.39.732,Surprise recog test,2023.1.3,59.95250562534481,
324,0,324,0,,,,,,,,,,,,,,,,,,,,,,,,,,,,,,,,,,924.3990838,,923.0462041999999,923.0462041999999,923.0462041999999,923.0462041999999,new_sceneIn_14.png,325,4.0,1.3543601000001217,,016,0,2024-11-12_16h31.39.732,Surprise recog test,2023.1.3,59.95250562534481,
325,0,325,0,,,,,,,,,,,,,,,,,,,,,,,,,,,,,,,,,,926.6310393000003,927.6379875000002,925.4318008999999,925.4318008999999,925.4318008999999,925.4318008999999,new_sceneOut_16.png,326,4.0,1.198995400000058,,016,0,2024-11-12_16h31.39.732,Surprise recog test,2023.1.3,59.95250562534481,
326,0,326,0,,,,,,,,,,,,,,,,,,,,,,,,,,,,,,,,,,928.7483854000002,929.7574078999996,927.6379875000002,927.6379875000002,927.6379875000002,927.6379875000002,old_sceneOut_11.png,327,4.0,1.1038557000001674,,016,0,2024-11-12_16h31.39.732,Surprise recog test,2023.1.3,59.95250562534481,
327,0,327,0,,,,,,,,,,,,,,,,,,,,,,,,,,,,,,,,,,931.3572066999996,932.387283,929.7574078999996,929.7574078999996,929.7574078999996,929.7574078999996,old_sceneIn_35.png,328,4.0,1.5937536999999793,,016,0,2024-11-12_16h31.39.732,Surprise recog test,2023.1.3,59.95250562534481,
328,0,328,0,,,,,,,,,,,,,,,,,,,,,,,,,,,,,,,,,,934.1000763000002,935.1108725000004,932.387283,932.387283,932.387283,932.387283,new_fruit_22.png,329,4.0,1.712501500000144,,016,0,2024-11-12_16h31.39.732,Surprise recog test,2023.1.3,59.95250562534481,
329,0,329,0,,,,,,,,,,,,,,,,,,,,,,,,,,,,,,,,,,936.4977441000001,937.5154217999998,935.1108725000004,935.1108725000004,935.1108725000004,935.1108725000004,old_fruit_21.png,330,3.0,1.3806156999999075,,016,0,2024-11-12_16h31.39.732,Surprise recog test,2023.1.3,59.95250562534481,
330,0,330,0,,,,,,,,,,,,,,,,,,,,,,,,,,,,,,,,,,938.7101143,,937.5154217999998,937.5154217999998,937.5154217999998,937.5154217999998,new_sceneOut_47.png,331,3.0,1.192103300000781,,016,0,2024-11-12_16h31.39.732,Surprise recog test,2023.1.3,59.95250562534481,
331,0,331,0,,,,,,,,,,,,,,,,,,,,,,,,,,,,,,,,,,941.5341189000001,942.5635474999999,939.7443129000003,939.7443129000003,939.7443129000003,939.7443129000003,old_stationery_16.png,332,2.0,1.7933603999999832,,016,0,2024-11-12_16h31.39.732,Surprise recog test,2023.1.3,59.95250562534481,
332,0,332,0,,,,,,,,,,,,,,,,,,,,,,,,,,,,,,,,,,944.0786812999995,945.0996433999999,942.5635474999999,942.5635474999999,942.5635474999999,942.5635474999999,new_fruit_16.png,333,3.0,1.51326169999993,,016,0,2024-11-12_16h31.39.732,Surprise recog test,2023.1.3,59.95250562534481,
333,0,333,0,,,,,,,,,,,,,,,,,,,,,,,,,,,,,,,,,,946.5464740999996,947.5542668999997,945.0996433999999,945.0996433999999,945.0996433999999,945.0996433999999,new_stationery_40.png,334,4.0,1.446176600000399,,016,0,2024-11-12_16h31.39.732,Surprise recog test,2023.1.3,59.95250562534481,
334,0,334,0,,,,,,,,,,,,,,,,,,,,,,,,,,,,,,,,,,949.1566440999995,950.1896709000002,947.5542668999997,947.5542668999997,947.5542668999997,947.5542668999997,new_sceneIn_10.png,335,3.0,1.595993100000669,,016,0,2024-11-12_16h31.39.732,Surprise recog test,2023.1.3,59.95250562534481,
335,0,335,0,,,,,,,,,,,,,,,,,,,,,,,,,,,,,,,,,,951.7694504000001,,950.1896709000002,950.1896709000002,950.1896709000002,950.1896709000002,old_sceneOut_9.png,336,3.0,1.5831845000002431,,016,0,2024-11-12_16h31.39.732,Surprise recog test,2023.1.3,59.95250562534481,
336,0,336,0,,,,,,,,,,,,,,,,,,,,,,,,,,,,,,,,,,954.3597161999996,955.3782954999997,952.7919332000001,952.7919332000001,952.7919332000001,952.7919332000001,old_sceneIn_16.png,337,4.0,1.5637053000000378,,016,0,2024-11-12_16h31.39.732,Surprise recog test,2023.1.3,59.95250562534481,
337,0,337,0,,,,,,,,,,,,,,,,,,,,,,,,,,,,,,,,,,956.7031346000003,957.7130980000002,955.3782954999997,955.3782954999997,955.3782954999997,955.3782954999997,old_fruit_39.png,338,2.0,1.3182807000002867,,016,0,2024-11-12_16h31.39.732,Surprise recog test,2023.1.3,59.95250562534481,
338,0,338,0,,,,,,,,,,,,,,,,,,,,,,,,,,,,,,,,,,959.4868551,960.5120460999997,957.7130980000002,957.7130980000002,957.7130980000002,957.7130980000002,new_sceneIn_24.png,339,4.0,1.769759900000281,,016,0,2024-11-12_16h31.39.732,Surprise recog test,2023.1.3,59.95250562534481,
339,0,339,0,,,,,,,,,,,,,,,,,,,,,,,,,,,,,,,,,,962.1594924000001,963.1784123999996,960.5120460999997,960.5120460999997,960.5120460999997,960.5120460999997,old_fruit_33.png,340,1.0,1.6445926999995208,,016,0,2024-11-12_16h31.39.732,Surprise recog test,2023.1.3,59.95250562534481,
340,0,340,0,,,,,,,,,,,,,,,,,,,,,,,,,,,,,,,,,,965.4854748999996,966.5036515000002,963.1784123999996,963.1784123999996,963.1784123999996,963.1784123999996,old_stationery_1.png,341,3.0,2.310524699999405,,016,0,2024-11-12_16h31.39.732,Surprise recog test,2023.1.3,59.95250562534481,
341,0,341,0,,,,,,,,,,,,,,,,,,,,,,,,,,,,,,,,,,967.7834458999996,,966.5036515000002,966.5036515000002,966.5036515000002,966.5036515000002,old_sceneIn_9.png,342,4.0,1.2731112000001303,,016,0,2024-11-12_16h31.39.732,Surprise recog test,2023.1.3,59.95250562534481,
342,0,342,0,,,,,,,,,,,,,,,,,,,,,,,,,,,,,,,,,,970.1063537999999,971.1361478999997,968.8050517000001,968.8050517000001,968.8050517000001,968.8050517000001,old_stationery_38.png,343,4.0,1.2975136999993993,,016,0,2024-11-12_16h31.39.732,Surprise recog test,2023.1.3,59.95250562534481,
343,0,343,0,,,,,,,,,,,,,,,,,,,,,,,,,,,,,,,,,,972.5574846,973.5894939,971.1361478999997,971.1361478999997,971.1361478999997,971.1361478999997,new_sceneOut_35.png,344,3.0,1.4237825000000157,,016,0,2024-11-12_16h31.39.732,Surprise recog test,2023.1.3,59.95250562534481,
344,0,344,0,,,,,,,,,,,,,,,,,,,,,,,,,,,,,,,,,,975.4706043999995,976.4788878999998,973.5894939,973.5894939,973.5894939,973.5894939,new_sceneIn_36.png,345,3.0,1.8801654999997481,,016,0,2024-11-12_16h31.39.732,Surprise recog test,2023.1.3,59.95250562534481,
345,0,345,0,,,,,,,,,,,,,,,,,,,,,,,,,,,,,,,,,,978.2730375000001,979.2935088000004,976.4788878999998,976.4788878999998,976.4788878999998,976.4788878999998,new_fruit_30.png,346,4.0,1.7877846999999747,,016,0,2024-11-12_16h31.39.732,Surprise recog test,2023.1.3,59.95250562534481,
346,0,346,0,,,,,,,,,,,,,,,,,,,,,,,,,,,,,,,,,,980.9880886999999,982.0120106000004,979.2935088000004,979.2935088000004,979.2935088000004,979.2935088000004,new_fruit_41.png,347,4.0,1.6966194999995423,,016,0,2024-11-12_16h31.39.732,Surprise recog test,2023.1.3,59.95250562534481,
347,0,347,0,,,,,,,,,,,,,,,,,,,,,,,,,,,,,,,,,,983.5940676,984.6097576000002,982.0120106000004,982.0120106000004,982.0120106000004,982.0120106000004,old_sceneOut_46.png,348,3.0,1.5815450999998575,,016,0,2024-11-12_16h31.39.732,Surprise recog test,2023.1.3,59.95250562534481,
348,0,348,0,,,,,,,,,,,,,,,,,,,,,,,,,,,,,,,,,,986.4981828,987.5113721999996,984.6097576000002,984.6097576000002,984.6097576000002,984.6097576000002,old_fruit_16.png,349,4.0,1.8880090000002383,,016,0,2024-11-12_16h31.39.732,Surprise recog test,2023.1.3,59.95250562534481,
349,0,349,0,,,,,,,,,,,,,,,,,,,,,,,,,,,,,,,,,,988.6365243999999,989.6727005000002,987.5113721999996,987.5113721999996,987.5113721999996,987.5113721999996,new_stationery_14.png,350,4.0,1.1270133999996688,,016,0,2024-11-12_16h31.39.732,Surprise recog test,2023.1.3,59.95250562534481,
350,0,350,0,,,,,,,,,,,,,,,,,,,,,,,,,,,,,,,,,,990.9437253999995,991.9699000999999,989.6727005000002,989.6727005000002,989.6727005000002,989.6727005000002,new_sceneOut_34.png,351,4.0,1.2724697000003289,,016,0,2024-11-12_16h31.39.732,Surprise recog test,2023.1.3,59.95250562534481,
351,0,351,0,,,,,,,,,,,,,,,,,,,,,,,,,,,,,,,,,,993.9791161000003,995.0067317000003,991.9699000999999,991.9699000999999,991.9699000999999,991.9699000999999,new_sceneIn_4.png,352,4.0,2.0108930000005785,,016,0,2024-11-12_16h31.39.732,Surprise recog test,2023.1.3,59.95250562534481,
352,0,352,0,,,,,,,,,,,,,,,,,,,,,,,,,,,,,,,,,,996.0653830000001,997.0916440999999,995.0067317000003,995.0067317000003,995.0067317000003,995.0067317000003,old_sceneOut_37.png,353,4.0,1.0606392999998207,,016,0,2024-11-12_16h31.39.732,Surprise recog test,2023.1.3,59.95250562534481,
353,0,353,0,,,,,,,,,,,,,,,,,,,,,,,,,,,,,,,,,,998.5485914999999,999.5789132999998,997.0916440999999,997.0916440999999,997.0916440999999,997.0916440999999,old_stationery_19.png,354,4.0,1.4574312000004284,,016,0,2024-11-12_16h31.39.732,Surprise recog test,2023.1.3,59.95250562534481,
354,0,354,0,,,,,,,,,,,,,,,,,,,,,,,,,,,,,,,,,,1001.5974060999997,1002.6289301999996,999.5789132999998,999.5789132999998,999.5789132999998,999.5789132999998,old_fruit_32.png,355,2.0,2.0216388999997434,,016,0,2024-11-12_16h31.39.732,Surprise recog test,2023.1.3,59.95250562534481,
355,0,355,0,,,,,,,,,,,,,,,,,,,,,,,,,,,,,,,,,,1003.8262109999996,1004.8503773000002,1002.6289301999996,1002.6289301999996,1002.6289301999996,1002.6289301999996,new_stationery_23.png,356,2.0,1.1972721000001911,,016,0,2024-11-12_16h31.39.732,Surprise recog test,2023.1.3,59.95250562534481,
356,0,356,0,,,,,,,,,,,,,,,,,,,,,,,,,,,,,,,,,,1006.1463416999995,1007.1713699000002,1004.8503773000002,1004.8503773000002,1004.8503773000002,1004.8503773000002,new_sceneOut_12.png,357,3.0,1.2977948999996443,,016,0,2024-11-12_16h31.39.732,Surprise recog test,2023.1.3,59.95250562534481,
357,0,357,0,,,,,,,,,,,,,,,,,,,,,,,,,,,,,,,,,,1008.4113910999995,1009.4289257,1007.1713699000002,1007.1713699000002,1007.1713699000002,1007.1713699000002,old_sceneOut_30.png,358,3.0,1.2452487999998993,,016,0,2024-11-12_16h31.39.732,Surprise recog test,2023.1.3,59.95250562534481,
358,0,358,0,,,,,,,,,,,,,,,,,,,,,,,,,,,,,,,,,,1010.6709047000004,,1009.4289257,1009.4289257,1009.4289257,1009.4289257,new_sceneOut_43.png,359,4.0,1.2431314999994356,,016,0,2024-11-12_16h31.39.732,Surprise recog test,2023.1.3,59.95250562534481,
