trial_loop.thisRepN,trial_loop.thisTrialN,trial_loop.thisN,trial_loop.thisIndex,VAS_slider.started,VAS_text.started,VAS_notstressed_text.started,VAS_stressed_text.started,continue_input.started,continue_text.started,label0.started,label10.started,label20.started,label30.started,label40.started,label50.started,label60.started,label70.started,label80.started,label90.started,label100.started,VAS_slider.response,VAS_slider.rt,VAS_slider.history,Answer_VAS,continue_input.keys,instruction_text.started,continue_text_2.started,continue_input_2.started,continue_input_2.keys,continue_input_2.rt,continue_input_2.duration,example_text.started,example_slider_2.started,example_image.started,example_slider_2.response,example_slider_2.rt,fixcross.started,fixcross.stopped,front_square.started,stim_images.started,trial_inst_images.started,slider_images.started,slider_images.stopped,thisImg,trial_count,slider_images.response,slider_images.rt,front_square.stopped,stim_images.stopped,trial_inst_images.stopped,outro.started,participant,condition,date,expName,psychopyVersion,frameRate,
,,,,21.42088039999362,21.42088039999362,21.42088039999362,21.42088039999362,21.42088039999362,21.42088039999362,21.42088039999362,21.42088039999362,21.42088039999362,21.42088039999362,21.42088039999362,21.42088039999362,21.42088039999362,21.42088039999362,21.42088039999362,21.42088039999362,21.42088039999362,2.9666666666666663,9.305218999972567,"[(2.9666666666666663, 9.305218999972567)]",2.9666666666666663,None,,,,,,,,,,,,,,,,,,,,,,,,,,,017,1,2024-11-19_16h05.33.163,Surprise recog test,2023.1.3,59.956315858583956,
,,,,,,,,,,,,,,,,,,,,,,,,,,30.751998799969442,30.751998799969442,30.751998799969442,space,6.588440699968487,None,,,,,,,,,,,,,,,,,,,,,017,1,2024-11-19_16h05.33.163,Surprise recog test,2023.1.3,59.956315858583956,
0,0,0,0,,,,,,,,,,,,,,,,,,,,,,,,,,,,,37.494842200074345,37.494842200074345,37.494842200074345,5.0,8.363248099922203,51.80092050007079,46.81721590005327,46.81721590005327,46.81721590005327,46.81721590005327,46.81721590005327,51.7765090999892,old_sceneOut_8.png,1,None,None,,,,,017,1,2024-11-19_16h05.33.163,Surprise recog test,2023.1.3,59.956315858583956,
1,0,1,0,,,,,,,,,,,,,,,,,,,,,,,,,,,,,,,,,,55.90431490004994,56.91171540005598,52.818387000006624,52.818387000006624,52.818387000006624,52.818387000006624,,new_fruit_50.png,2,4.0,3.088425299967639,,,,,017,1,2024-11-19_16h05.33.163,Surprise recog test,2023.1.3,59.956315858583956,
2,0,2,0,,,,,,,,,,,,,,,,,,,,,,,,,,,,,,,,,,59.010200800024904,,56.91171540005598,56.91171540005598,56.91171540005598,56.91171540005598,,new_fruit_26.png,3,3.0,2.0944900999311358,,,,,017,1,2024-11-19_16h05.33.163,Surprise recog test,2023.1.3,59.956315858583956,
3,0,3,0,,,,,,,,,,,,,,,,,,,,,,,,,,,,,,,,,,62.3429257000098,63.3676764999982,60.027777099981904,60.027777099981904,60.027777099981904,60.027777099981904,,old_stationery_48.png,4,4.0,2.3095488999970257,,,,,017,1,2024-11-19_16h05.33.163,Surprise recog test,2023.1.3,59.956315858583956,
4,0,4,0,,,,,,,,,,,,,,,,,,,,,,,,,,,,,,,,,,66.01357599999756,67.01703400001861,63.3676764999982,63.3676764999982,63.3676764999982,63.3676764999982,,new_sceneIn_28.png,5,4.0,2.650952099938877,,,,,017,1,2024-11-19_16h05.33.163,Surprise recog test,2023.1.3,59.956315858583956,
5,0,5,0,,,,,,,,,,,,,,,,,,,,,,,,,,,,,,,,,,69.55840219999664,70.58644470002037,67.01703400001861,67.01703400001861,67.01703400001861,67.01703400001861,,old_fruit_13.png,6,3.0,2.5378265000181273,,,,,017,1,2024-11-19_16h05.33.163,Surprise recog test,2023.1.3,59.956315858583956,
6,0,6,0,,,,,,,,,,,,,,,,,,,,,,,,,,,,,,,,,,73.3348360999953,74.34519090002868,70.58644470002037,70.58644470002037,70.58644470002037,70.58644470002037,,new_fruit_46.png,7,4.0,2.750425999984145,,,,,017,1,2024-11-19_16h05.33.163,Surprise recog test,2023.1.3,59.956315858583956,
7,0,7,0,,,,,,,,,,,,,,,,,,,,,,,,,,,,,,,,,,76.33006269996986,77.35690430004615,74.34519090002868,74.34519090002868,74.34519090002868,74.34519090002868,,new_stationery_28.png,8,3.0,1.983122899895534,,,,,017,1,2024-11-19_16h05.33.163,Surprise recog test,2023.1.3,59.956315858583956,
8,0,8,0,,,,,,,,,,,,,,,,,,,,,,,,,,,,,,,,,,81.367133700056,82.39821800007485,77.35690430004615,77.35690430004615,77.35690430004615,77.35690430004615,,new_sceneIn_19.png,9,3.0,4.011325899977237,,,,,017,1,2024-11-19_16h05.33.163,Surprise recog test,2023.1.3,59.956315858583956,
9,0,9,0,,,,,,,,,,,,,,,,,,,,,,,,,,,,,,,,,,87.38576099998318,,82.39821800007485,82.39821800007485,82.39821800007485,82.39821800007485,87.37803570006508,old_sceneIn_33.png,10,None,None,,,,,017,1,2024-11-19_16h05.33.163,Surprise recog test,2023.1.3,59.956315858583956,
10,0,10,0,,,,,,,,,,,,,,,,,,,,,,,,,,,,,,,,,,89.78087860008236,90.80489680008031,88.41668590006884,88.41668590006884,88.41668590006884,88.41668590006884,,new_sceneOut_33.png,11,3.0,1.3646355000091717,,,,,017,1,2024-11-19_16h05.33.163,Surprise recog test,2023.1.3,59.956315858583956,
11,0,11,0,,,,,,,,,,,,,,,,,,,,,,,,,,,,,,,,,,95.44803660002071,96.46169949998148,90.80489680008031,90.80489680008031,90.80489680008031,90.80489680008031,,old_sceneIn_32.png,12,3.0,4.646396000054665,,,,,017,1,2024-11-19_16h05.33.163,Surprise recog test,2023.1.3,59.956315858583956,
12,0,12,0,,,,,,,,,,,,,,,,,,,,,,,,,,,,,,,,,,97.51108750002459,98.53154790005647,96.46169949998148,96.46169949998148,96.46169949998148,96.46169949998148,,old_fruit_19.png,13,3.0,1.0453365999273956,,,,,017,1,2024-11-19_16h05.33.163,Surprise recog test,2023.1.3,59.956315858583956,
13,0,13,0,,,,,,,,,,,,,,,,,,,,,,,,,,,,,,,,,,101.87285400007386,102.88426329998765,98.53154790005647,98.53154790005647,98.53154790005647,98.53154790005647,,new_sceneIn_41.png,14,4.0,3.3348558000288904,,,,,017,1,2024-11-19_16h05.33.163,Surprise recog test,2023.1.3,59.956315858583956,
14,0,14,0,,,,,,,,,,,,,,,,,,,,,,,,,,,,,,,,,,104.71099629998207,105.73039609997068,102.88426329998765,102.88426329998765,102.88426329998765,102.88426329998765,,new_fruit_14.png,15,3.0,1.8244086999911815,,,,,017,1,2024-11-19_16h05.33.163,Surprise recog test,2023.1.3,59.956315858583956,
15,0,15,0,,,,,,,,,,,,,,,,,,,,,,,,,,,,,,,,,,109.8458757000044,110.87555280001834,105.73039609997068,105.73039609997068,105.73039609997068,105.73039609997068,,new_fruit_8.png,16,4.0,4.117384699988179,,,,,017,1,2024-11-19_16h05.33.163,Surprise recog test,2023.1.3,59.956315858583956,
16,0,16,0,,,,,,,,,,,,,,,,,,,,,,,,,,,,,,,,,,113.47540840005968,114.5016763000749,110.87555280001834,110.87555280001834,110.87555280001834,110.87555280001834,,old_sceneOut_24.png,17,3.0,2.604749499936588,,,,,017,1,2024-11-19_16h05.33.163,Surprise recog test,2023.1.3,59.956315858583956,
17,0,17,0,,,,,,,,,,,,,,,,,,,,,,,,,,,,,,,,,,116.18152950005606,117.20856110006571,114.5016763000749,114.5016763000749,114.5016763000749,114.5016763000749,,new_stationery_40.png,18,4.0,1.6800751000409946,,,,,017,1,2024-11-19_16h05.33.163,Surprise recog test,2023.1.3,59.956315858583956,
18,0,18,0,,,,,,,,,,,,,,,,,,,,,,,,,,,,,,,,,,119.24875989998691,120.26423530001193,117.20856110006571,117.20856110006571,117.20856110006571,117.20856110006571,,old_stationery_42.png,19,3.0,2.0430640999693424,,,,,017,1,2024-11-19_16h05.33.163,Surprise recog test,2023.1.3,59.956315858583956,
19,0,19,0,,,,,,,,,,,,,,,,,,,,,,,,,,,,,,,,,,122.49513609998394,,120.26423530001193,120.26423530001193,120.26423530001193,120.26423530001193,,old_stationery_15.png,20,4.0,2.224240299896337,,,,,017,1,2024-11-19_16h05.33.163,Surprise recog test,2023.1.3,59.956315858583956,
20,0,20,0,,,,,,,,,,,,,,,,,,,,,,,,,,,,,,,,,,124.75992380001117,125.7798511000583,123.51453070004936,123.51453070004936,123.51453070004936,123.51453070004936,,old_sceneOut_49.png,21,4.0,1.2420316999778152,,,,,017,1,2024-11-19_16h05.33.163,Surprise recog test,2023.1.3,59.956315858583956,
21,0,21,0,,,,,,,,,,,,,,,,,,,,,,,,,,,,,,,,,,127.04993300000206,,125.7798511000583,125.7798511000583,125.7798511000583,125.7798511000583,,old_stationery_13.png,22,4.0,1.2717583000194281,,,,,017,1,2024-11-19_16h05.33.163,Surprise recog test,2023.1.3,59.956315858583956,
22,0,22,0,,,,,,,,,,,,,,,,,,,,,,,,,,,,,,,,,,129.51488230004907,130.53031559998635,128.0861814999953,128.0861814999953,128.0861814999953,128.0861814999953,,old_fruit_38.png,23,3.0,1.430058200028725,,,,,017,1,2024-11-19_16h05.33.163,Surprise recog test,2023.1.3,59.956315858583956,
23,0,23,0,,,,,,,,,,,,,,,,,,,,,,,,,,,,,,,,,,132.82737840001937,133.84335800004192,130.53031559998635,130.53031559998635,130.53031559998635,130.53031559998635,,old_sceneIn_50.png,24,3.0,2.297875300049782,,,,,017,1,2024-11-19_16h05.33.163,Surprise recog test,2023.1.3,59.956315858583956,
24,0,24,0,,,,,,,,,,,,,,,,,,,,,,,,,,,,,,,,,,134.62942850007676,135.64477080001961,133.84335800004192,133.84335800004192,133.84335800004192,133.84335800004192,,old_sceneIn_8.png,25,3.0,0.7795500999782234,,,,,017,1,2024-11-19_16h05.33.163,Surprise recog test,2023.1.3,59.956315858583956,
25,0,25,0,,,,,,,,,,,,,,,,,,,,,,,,,,,,,,,,,,136.41880840004887,137.4404104000423,135.64477080001961,135.64477080001961,135.64477080001961,135.64477080001961,,old_fruit_33.png,26,3.0,0.7668369000311941,,,,,017,1,2024-11-19_16h05.33.163,Surprise recog test,2023.1.3,59.956315858583956,
26,0,26,0,,,,,,,,,,,,,,,,,,,,,,,,,,,,,,,,,,138.4488648000406,139.4738430000143,137.4404104000423,137.4404104000423,137.4404104000423,137.4404104000423,,old_sceneIn_44.png,27,3.0,1.0113392000785097,,,,,017,1,2024-11-19_16h05.33.163,Surprise recog test,2023.1.3,59.956315858583956,
27,0,27,0,,,,,,,,,,,,,,,,,,,,,,,,,,,,,,,,,,141.91700020001736,142.9471642000135,139.4738430000143,139.4738430000143,139.4738430000143,139.4738430000143,,old_sceneIn_43.png,28,3.0,2.4460382000543177,,,,,017,1,2024-11-19_16h05.33.163,Surprise recog test,2023.1.3,59.956315858583956,
28,0,28,0,,,,,,,,,,,,,,,,,,,,,,,,,,,,,,,,,,145.21409740007948,,142.9471642000135,142.9471642000135,142.9471642000135,142.9471642000135,,new_stationery_15.png,29,3.0,2.267380699981004,,,,,017,1,2024-11-19_16h05.33.163,Surprise recog test,2023.1.3,59.956315858583956,
29,0,29,0,,,,,,,,,,,,,,,,,,,,,,,,,,,,,,,,,,147.2569142000284,148.28266040002927,146.2488822999876,146.2488822999876,146.2488822999876,146.2488822999876,,old_sceneOut_16.png,30,3.0,1.0070643000071868,,,,,017,1,2024-11-19_16h05.33.163,Surprise recog test,2023.1.3,59.956315858583956,
30,0,30,0,,,,,,,,,,,,,,,,,,,,,,,,,,,,,,,,,,149.03567510005087,,148.28266040002927,148.28266040002927,148.28266040002927,148.28266040002927,,old_sceneOut_43.png,31,3.0,0.7547472999431193,,,,,017,1,2024-11-19_16h05.33.163,Surprise recog test,2023.1.3,59.956315858583956,
31,0,31,0,,,,,,,,,,,,,,,,,,,,,,,,,,,,,,,,,,150.70468109997455,151.7366336999694,150.0690828000661,150.0690828000661,150.0690828000661,150.0690828000661,,new_fruit_25.png,32,3.0,0.6381897999672219,,,,,017,1,2024-11-19_16h05.33.163,Surprise recog test,2023.1.3,59.956315858583956,
32,0,32,0,,,,,,,,,,,,,,,,,,,,,,,,,,,,,,,,,,152.35245440003928,,151.7366336999694,151.7366336999694,151.7366336999694,151.7366336999694,,new_sceneOut_14.png,33,3.0,0.6158565999940038,,,,,017,1,2024-11-19_16h05.33.163,Surprise recog test,2023.1.3,59.956315858583956,
33,0,33,0,,,,,,,,,,,,,,,,,,,,,,,,,,,,,,,,,,155.1034220000729,156.11503760004416,153.38599880004767,153.38599880004767,153.38599880004767,153.38599880004767,,new_sceneOut_44.png,34,3.0,1.7171937000239268,,,,,017,1,2024-11-19_16h05.33.163,Surprise recog test,2023.1.3,59.956315858583956,
34,0,34,0,,,,,,,,,,,,,,,,,,,,,,,,,,,,,,,,,,157.29626950004604,158.3271993000526,156.11503760004416,156.11503760004416,156.11503760004416,156.11503760004416,,old_stationery_35.png,35,3.0,1.1816428999882191,,,,,017,1,2024-11-19_16h05.33.163,Surprise recog test,2023.1.3,59.956315858583956,
35,0,35,0,,,,,,,,,,,,,,,,,,,,,,,,,,,,,,,,,,159.01381180004682,160.04290320002474,158.3271993000526,158.3271993000526,158.3271993000526,158.3271993000526,,new_fruit_12.png,36,3.0,0.6875029999064282,,,,,017,1,2024-11-19_16h05.33.163,Surprise recog test,2023.1.3,59.956315858583956,
36,0,36,0,,,,,,,,,,,,,,,,,,,,,,,,,,,,,,,,,,160.95027640007902,161.97882489999756,160.04290320002474,160.04290320002474,160.04290320002474,160.04290320002474,,old_sceneIn_46.png,37,3.0,0.9112940999912098,,,,,017,1,2024-11-19_16h05.33.163,Surprise recog test,2023.1.3,59.956315858583956,
37,0,37,0,,,,,,,,,,,,,,,,,,,,,,,,,,,,,,,,,,162.69267949997447,163.70669170003384,161.97882489999756,161.97882489999756,161.97882489999756,161.97882489999756,,new_fruit_42.png,38,3.0,0.7156359000364318,,,,,017,1,2024-11-19_16h05.33.163,Surprise recog test,2023.1.3,59.956315858583956,
38,0,38,0,,,,,,,,,,,,,,,,,,,,,,,,,,,,,,,,,,165.00266680005006,166.01978750003036,163.70669170003384,163.70669170003384,163.70669170003384,163.70669170003384,,old_stationery_38.png,39,3.0,1.297274100012146,,,,,017,1,2024-11-19_16h05.33.163,Surprise recog test,2023.1.3,59.956315858583956,
39,0,39,0,,,,,,,,,,,,,,,,,,,,,,,,,,,,,,,,,,168.67803670000285,169.69998050003778,166.01978750003036,166.01978750003036,166.01978750003036,166.01978750003036,,old_stationery_33.png,40,3.0,2.6517041000770405,,,,,017,1,2024-11-19_16h05.33.163,Surprise recog test,2023.1.3,59.956315858583956,
40,0,40,0,,,,,,,,,,,,,,,,,,,,,,,,,,,,,,,,,,170.48759010003414,171.519267900032,169.69998050003778,169.69998050003778,169.69998050003778,169.69998050003778,,new_fruit_37.png,41,3.0,0.7895936999702826,,,,,017,1,2024-11-19_16h05.33.163,Surprise recog test,2023.1.3,59.956315858583956,
41,0,41,0,,,,,,,,,,,,,,,,,,,,,,,,,,,,,,,,,,174.12893580005039,175.15864689997397,171.519267900032,171.519267900032,171.519267900032,171.519267900032,,new_stationery_38.png,42,3.0,2.6116996000055224,,,,,017,1,2024-11-19_16h05.33.163,Surprise recog test,2023.1.3,59.956315858583956,
42,0,42,0,,,,,,,,,,,,,,,,,,,,,,,,,,,,,,,,,,178.91273670003284,179.9390371000627,175.15864689997397,175.15864689997397,175.15864689997397,175.15864689997397,,old_sceneIn_27.png,43,3.0,3.757571099908091,,,,,017,1,2024-11-19_16h05.33.163,Surprise recog test,2023.1.3,59.956315858583956,
43,0,43,0,,,,,,,,,,,,,,,,,,,,,,,,,,,,,,,,,,182.25581220001914,183.2747935000807,179.9390371000627,179.9390371000627,179.9390371000627,179.9390371000627,,new_sceneIn_3.png,44,3.0,2.319143799948506,,,,,017,1,2024-11-19_16h05.33.163,Surprise recog test,2023.1.3,59.956315858583956,
44,0,44,0,,,,,,,,,,,,,,,,,,,,,,,,,,,,,,,,,,184.5611659999704,185.56778380007017,183.2747935000807,183.2747935000807,183.2747935000807,183.2747935000807,,new_fruit_13.png,45,3.0,1.2858473000815138,,,,,017,1,2024-11-19_16h05.33.163,Surprise recog test,2023.1.3,59.956315858583956,
45,0,45,0,,,,,,,,,,,,,,,,,,,,,,,,,,,,,,,,,,186.5688789000269,187.59870910004247,185.56778380007017,185.56778380007017,185.56778380007017,185.56778380007017,,new_stationery_24.png,46,3.0,0.9921244001016021,,,,,017,1,2024-11-19_16h05.33.163,Surprise recog test,2023.1.3,59.956315858583956,
46,0,46,0,,,,,,,,,,,,,,,,,,,,,,,,,,,,,,,,,,190.27432059997227,191.3036565000657,187.59870910004247,187.59870910004247,187.59870910004247,187.59870910004247,,new_sceneOut_28.png,47,2.0,2.6748225000919774,,,,,017,1,2024-11-19_16h05.33.163,Surprise recog test,2023.1.3,59.956315858583956,
47,0,47,0,,,,,,,,,,,,,,,,,,,,,,,,,,,,,,,,,,194.33654709998518,195.35572059999686,191.3036565000657,191.3036565000657,191.3036565000657,191.3036565000657,,old_sceneIn_11.png,48,3.0,3.0360096000367776,,,,,017,1,2024-11-19_16h05.33.163,Surprise recog test,2023.1.3,59.956315858583956,
48,0,48,0,,,,,,,,,,,,,,,,,,,,,,,,,,,,,,,,,,198.07497830002103,,195.35572059999686,195.35572059999686,195.35572059999686,195.35572059999686,,old_sceneIn_18.png,49,4.0,2.7197183000389487,,,,,017,1,2024-11-19_16h05.33.163,Surprise recog test,2023.1.3,59.956315858583956,
49,0,49,0,,,,,,,,,,,,,,,,,,,,,,,,,,,,,,,,,,200.40989360003732,,199.11065040004905,199.11065040004905,199.11065040004905,199.11065040004905,,new_sceneOut_48.png,50,3.0,1.3009207000723109,,,,,017,1,2024-11-19_16h05.33.163,Surprise recog test,2023.1.3,59.956315858583956,
50,0,50,0,,,,,,,,,,,,,,,,,,,,,,,,,,,,,,,,,,202.80747680005152,203.82383680006023,201.44614710006863,201.44614710006863,201.44614710006863,201.44614710006863,,new_stationery_20.png,51,4.0,1.36495289998129,,,,,017,1,2024-11-19_16h05.33.163,Surprise recog test,2023.1.3,59.956315858583956,
51,0,51,0,,,,,,,,,,,,,,,,,,,,,,,,,,,,,,,,,,205.83244690007996,,203.82383680006023,203.82383680006023,203.82383680006023,203.82383680006023,,new_sceneOut_19.png,52,4.0,2.007908800034784,,,,,017,1,2024-11-19_16h05.33.163,Surprise recog test,2023.1.3,59.956315858583956,
52,0,52,0,,,,,,,,,,,,,,,,,,,,,,,,,,,,,,,,,,208.11469529999886,209.13511709996965,206.86127550003584,206.86127550003584,206.86127550003584,206.86127550003584,,old_sceneOut_50.png,53,4.0,1.2527740000514314,,,,,017,1,2024-11-19_16h05.33.163,Surprise recog test,2023.1.3,59.956315858583956,
53,0,53,0,,,,,,,,,,,,,,,,,,,,,,,,,,,,,,,,,,210.8547280000057,211.88364860008005,209.13511709996965,209.13511709996965,209.13511709996965,209.13511709996965,,old_fruit_7.png,54,3.0,1.7214375999756157,,,,,017,1,2024-11-19_16h05.33.163,Surprise recog test,2023.1.3,59.956315858583956,
54,0,54,0,,,,,,,,,,,,,,,,,,,,,,,,,,,,,,,,,,213.0635508999694,214.0835791999707,211.88364860008005,211.88364860008005,211.88364860008005,211.88364860008005,,old_fruit_26.png,55,3.0,1.1826947999652475,,,,,017,1,2024-11-19_16h05.33.163,Surprise recog test,2023.1.3,59.956315858583956,
55,0,55,0,,,,,,,,,,,,,,,,,,,,,,,,,,,,,,,,,,215.2232526000589,,214.0835791999707,214.0835791999707,214.0835791999707,214.0835791999707,,old_sceneOut_25.png,56,3.0,1.142821199959144,,,,,017,1,2024-11-19_16h05.33.163,Surprise recog test,2023.1.3,59.956315858583956,
56,0,56,0,,,,,,,,,,,,,,,,,,,,,,,,,,,,,,,,,,217.91169029998127,218.94253680005204,216.25232560001314,216.25232560001314,216.25232560001314,216.25232560001314,,old_stationery_12.png,57,3.0,1.6610112999333069,,,,,017,1,2024-11-19_16h05.33.163,Surprise recog test,2023.1.3,59.956315858583956,
57,0,57,0,,,,,,,,,,,,,,,,,,,,,,,,,,,,,,,,,,220.69094020000193,221.708071900066,218.94253680005204,218.94253680005204,218.94253680005204,218.94253680005204,,new_stationery_42.png,58,4.0,1.7508352999575436,,,,,017,1,2024-11-19_16h05.33.163,Surprise recog test,2023.1.3,59.956315858583956,
58,0,58,0,,,,,,,,,,,,,,,,,,,,,,,,,,,,,,,,,,222.9372480000602,223.9480840000324,221.708071900066,221.708071900066,221.708071900066,221.708071900066,,old_sceneIn_12.png,59,4.0,1.229174999985844,,,,,017,1,2024-11-19_16h05.33.163,Surprise recog test,2023.1.3,59.956315858583956,
59,0,59,0,,,,,,,,,,,,,,,,,,,,,,,,,,,,,,,,,,224.69522990006953,225.71204840007704,223.9480840000324,223.9480840000324,223.9480840000324,223.9480840000324,,old_stationery_2.png,60,4.0,0.7440515999915078,,,,,017,1,2024-11-19_16h05.33.163,Surprise recog test,2023.1.3,59.956315858583956,
60,0,60,0,,,,,,,,,,,,,,,,,,,,,,,,,,,,,,,,,,226.72129470005166,227.75207739998586,225.71204840007704,225.71204840007704,225.71204840007704,225.71204840007704,,new_sceneIn_30.png,61,4.0,1.0095846999902278,,,,,017,1,2024-11-19_16h05.33.163,Surprise recog test,2023.1.3,59.956315858583956,
61,0,61,0,,,,,,,,,,,,,,,,,,,,,,,,,,,,,,,,,,228.524116900051,229.53651350003202,227.75207739998586,227.75207739998586,227.75207739998586,227.75207739998586,,new_sceneOut_17.png,62,4.0,0.7757527000503615,,,,,017,1,2024-11-19_16h05.33.163,Surprise recog test,2023.1.3,59.956315858583956,
62,0,62,0,,,,,,,,,,,,,,,,,,,,,,,,,,,,,,,,,,231.10193160001654,,229.53651350003202,229.53651350003202,229.53651350003202,229.53651350003202,,old_fruit_4.png,63,2.0,1.5614835999440402,,,,,017,1,2024-11-19_16h05.33.163,Surprise recog test,2023.1.3,59.956315858583956,
63,0,63,0,,,,,,,,,,,,,,,,,,,,,,,,,,,,,,,,,,232.89421930001117,233.90997759997845,232.12119450001046,232.12119450001046,232.12119450001046,232.12119450001046,,old_sceneIn_5.png,64,3.0,0.7704151999205351,,,,,017,1,2024-11-19_16h05.33.163,Surprise recog test,2023.1.3,59.956315858583956,
64,0,64,0,,,,,,,,,,,,,,,,,,,,,,,,,,,,,,,,,,234.89721199998166,235.924124400015,233.90997759997845,233.90997759997845,233.90997759997845,233.90997759997845,,new_sceneIn_39.png,65,3.0,0.982896100031212,,,,,017,1,2024-11-19_16h05.33.163,Surprise recog test,2023.1.3,59.956315858583956,
65,0,65,0,,,,,,,,,,,,,,,,,,,,,,,,,,,,,,,,,,237.2218860000139,238.24140220007394,235.924124400015,235.924124400015,235.924124400015,235.924124400015,,new_sceneIn_37.png,66,4.0,1.2983872999902815,,,,,017,1,2024-11-19_16h05.33.163,Surprise recog test,2023.1.3,59.956315858583956,
66,0,66,0,,,,,,,,,,,,,,,,,,,,,,,,,,,,,,,,,,239.62739250005689,,238.24140220007394,238.24140220007394,238.24140220007394,238.24140220007394,,new_fruit_20.png,67,3.0,1.3870017000008374,,,,,017,1,2024-11-19_16h05.33.163,Surprise recog test,2023.1.3,59.956315858583956,
67,0,67,0,,,,,,,,,,,,,,,,,,,,,,,,,,,,,,,,,,243.22955819999333,,240.6597428000532,240.6597428000532,240.6597428000532,240.6597428000532,,new_stationery_2.png,68,4.0,2.5736397999571636,,,,,017,1,2024-11-19_16h05.33.163,Surprise recog test,2023.1.3,59.956315858583956,
68,0,68,0,,,,,,,,,,,,,,,,,,,,,,,,,,,,,,,,,,245.5562815000303,246.57526160008274,244.25717410002835,244.25717410002835,244.25717410002835,244.25717410002835,,new_sceneIn_12.png,69,4.0,1.3007889000000432,,,,,017,1,2024-11-19_16h05.33.163,Surprise recog test,2023.1.3,59.956315858583956,
69,0,69,0,,,,,,,,,,,,,,,,,,,,,,,,,,,,,,,,,,247.71943569998257,248.75220109999646,246.57526160008274,246.57526160008274,246.57526160008274,246.57526160008274,,old_fruit_34.png,70,3.0,1.14376650005579,,,,,017,1,2024-11-19_16h05.33.163,Surprise recog test,2023.1.3,59.956315858583956,
70,0,70,0,,,,,,,,,,,,,,,,,,,,,,,,,,,,,,,,,,251.9843318000203,253.00290429999586,248.75220109999646,248.75220109999646,248.75220109999646,248.75220109999646,,old_sceneIn_34.png,71,3.0,3.235456799971871,,,,,017,1,2024-11-19_16h05.33.163,Surprise recog test,2023.1.3,59.956315858583956,
71,0,71,0,,,,,,,,,,,,,,,,,,,,,,,,,,,,,,,,,,255.2880126000382,,253.00290429999586,253.00290429999586,253.00290429999586,253.00290429999586,,old_stationery_43.png,72,4.0,2.2844945999095216,,,,,017,1,2024-11-19_16h05.33.163,Surprise recog test,2023.1.3,59.956315858583956,
72,0,72,0,,,,,,,,,,,,,,,,,,,,,,,,,,,,,,,,,,257.81997339997906,258.84380989999045,256.32113489997573,256.32113489997573,256.32113489997573,256.32113489997573,,old_stationery_21.png,73,3.0,1.501723000081256,,,,,017,1,2024-11-19_16h05.33.163,Surprise recog test,2023.1.3,59.956315858583956,
73,0,73,0,,,,,,,,,,,,,,,,,,,,,,,,,,,,,,,,,,260.7733245000709,261.78898239997216,258.84380989999045,258.84380989999045,258.84380989999045,258.84380989999045,,old_sceneIn_39.png,74,3.0,1.9325147999916226,,,,,017,1,2024-11-19_16h05.33.163,Surprise recog test,2023.1.3,59.956315858583956,
74,0,74,0,,,,,,,,,,,,,,,,,,,,,,,,,,,,,,,,,,263.3078117000405,264.332081999979,261.78898239997216,261.78898239997216,261.78898239997216,261.78898239997216,,new_sceneOut_20.png,75,3.0,1.5146300999913365,,,,,017,1,2024-11-19_16h05.33.163,Surprise recog test,2023.1.3,59.956315858583956,
75,0,75,0,,,,,,,,,,,,,,,,,,,,,,,,,,,,,,,,,,265.147783900029,,264.332081999979,264.332081999979,264.332081999979,264.332081999979,,new_sceneOut_16.png,76,3.0,0.8186142999911681,,,,,017,1,2024-11-19_16h05.33.163,Surprise recog test,2023.1.3,59.956315858583956,
76,0,76,0,,,,,,,,,,,,,,,,,,,,,,,,,,,,,,,,,,266.6948388000019,267.71853279997595,266.18197869998403,266.18197869998403,266.18197869998403,266.18197869998403,,new_sceneOut_31.png,77,3.0,0.5170069000450894,,,,,017,1,2024-11-19_16h05.33.163,Surprise recog test,2023.1.3,59.956315858583956,
77,0,77,0,,,,,,,,,,,,,,,,,,,,,,,,,,,,,,,,,,268.48610630002804,269.5219939000672,267.71853279997595,267.71853279997595,267.71853279997595,267.71853279997595,,old_stationery_14.png,78,3.0,0.7684014000697061,,,,,017,1,2024-11-19_16h05.33.163,Surprise recog test,2023.1.3,59.956315858583956,
78,0,78,0,,,,,,,,,,,,,,,,,,,,,,,,,,,,,,,,,,270.19851830007974,271.2202493000077,269.5219939000672,269.5219939000672,269.5219939000672,269.5219939000672,,old_sceneOut_47.png,79,3.0,0.6784121999517083,,,,,017,1,2024-11-19_16h05.33.163,Surprise recog test,2023.1.3,59.956315858583956,
79,0,79,0,,,,,,,,,,,,,,,,,,,,,,,,,,,,,,,,,,273.0355410000775,274.04821969999466,271.2202493000077,271.2202493000077,271.2202493000077,271.2202493000077,,old_stationery_8.png,80,3.0,1.8176076000090688,,,,,017,1,2024-11-19_16h05.33.163,Surprise recog test,2023.1.3,59.956315858583956,
80,0,80,0,,,,,,,,,,,,,,,,,,,,,,,,,,,,,,,,,,274.9881171999732,,274.04821969999466,274.04821969999466,274.04821969999466,274.04821969999466,,new_fruit_49.png,81,3.0,0.9387166999513283,,,,,017,1,2024-11-19_16h05.33.163,Surprise recog test,2023.1.3,59.956315858583956,
81,0,81,0,,,,,,,,,,,,,,,,,,,,,,,,,,,,,,,,,,276.7435523000313,277.7768588999752,276.00796010007616,276.00796010007616,276.00796010007616,276.00796010007616,,new_fruit_34.png,82,3.0,0.7307147999526933,,,,,017,1,2024-11-19_16h05.33.163,Surprise recog test,2023.1.3,59.956315858583956,
82,0,82,0,,,,,,,,,,,,,,,,,,,,,,,,,,,,,,,,,,279.22510649997275,,277.7768588999752,277.7768588999752,277.7768588999752,277.7768588999752,,old_sceneOut_21.png,83,4.0,1.4475733999861404,,,,,017,1,2024-11-19_16h05.33.163,Surprise recog test,2023.1.3,59.956315858583956,
83,0,83,0,,,,,,,,,,,,,,,,,,,,,,,,,,,,,,,,,,282.8757131000748,283.89471530006267,280.258039599983,280.258039599983,280.258039599983,280.258039599983,,new_sceneIn_6.png,84,3.0,2.6145746000111103,,,,,017,1,2024-11-19_16h05.33.163,Surprise recog test,2023.1.3,59.956315858583956,
84,0,84,0,,,,,,,,,,,,,,,,,,,,,,,,,,,,,,,,,,284.82548020000104,285.84980690001976,283.89471530006267,283.89471530006267,283.89471530006267,283.89471530006267,,old_fruit_31.png,85,3.0,0.9323641000082716,,,,,017,1,2024-11-19_16h05.33.163,Surprise recog test,2023.1.3,59.956315858583956,
85,0,85,0,,,,,,,,,,,,,,,,,,,,,,,,,,,,,,,,,,286.8219746000832,287.85491810005624,285.84980690001976,285.84980690001976,285.84980690001976,285.84980690001976,,new_sceneOut_35.png,86,3.0,0.9739839999238029,,,,,017,1,2024-11-19_16h05.33.163,Surprise recog test,2023.1.3,59.956315858583956,
86,0,86,0,,,,,,,,,,,,,,,,,,,,,,,,,,,,,,,,,,288.5365317000542,289.55609299999196,287.85491810005624,287.85491810005624,287.85491810005624,287.85491810005624,,new_fruit_38.png,87,3.0,0.6849905999843031,,,,,017,1,2024-11-19_16h05.33.163,Surprise recog test,2023.1.3,59.956315858583956,
87,0,87,0,,,,,,,,,,,,,,,,,,,,,,,,,,,,,,,,,,291.1094058000017,292.1261847000569,289.55609299999196,289.55609299999196,289.55609299999196,289.55609299999196,,old_fruit_20.png,88,3.0,1.5489096000092104,,,,,017,1,2024-11-19_16h05.33.163,Surprise recog test,2023.1.3,59.956315858583956,
88,0,88,0,,,,,,,,,,,,,,,,,,,,,,,,,,,,,,,,,,293.4177819000324,294.42340600001626,292.1261847000569,292.1261847000569,292.1261847000569,292.1261847000569,,new_sceneIn_32.png,89,3.0,1.2854528999887407,,,,,017,1,2024-11-19_16h05.33.163,Surprise recog test,2023.1.3,59.956315858583956,
89,0,89,0,,,,,,,,,,,,,,,,,,,,,,,,,,,,,,,,,,295.1141622000141,296.14022150007077,294.42340600001626,294.42340600001626,294.42340600001626,294.42340600001626,,old_sceneOut_7.png,90,3.0,0.6878376000095159,,,,,017,1,2024-11-19_16h05.33.163,Surprise recog test,2023.1.3,59.956315858583956,
90,0,90,0,,,,,,,,,,,,,,,,,,,,,,,,,,,,,,,,,,296.68710690003354,297.69558300008066,296.14022150007077,296.14022150007077,296.14022150007077,296.14022150007077,,new_sceneIn_49.png,91,3.0,0.5482299000723287,,,,,017,1,2024-11-19_16h05.33.163,Surprise recog test,2023.1.3,59.956315858583956,
91,0,91,0,,,,,,,,,,,,,,,,,,,,,,,,,,,,,,,,,,298.78889450000133,299.8060460999841,297.69558300008066,297.69558300008066,297.69558300008066,297.69558300008066,,old_stationery_4.png,92,3.0,1.0823883999837562,,,,,017,1,2024-11-19_16h05.33.163,Surprise recog test,2023.1.3,59.956315858583956,
92,0,92,0,,,,,,,,,,,,,,,,,,,,,,,,,,,,,,,,,,301.6163987000473,302.6404421000043,299.8060460999841,299.8060460999841,299.8060460999841,299.8060460999841,,new_sceneOut_50.png,93,5.0,1.8125938000157475,,,,,017,1,2024-11-19_16h05.33.163,Surprise recog test,2023.1.3,59.956315858583956,
93,0,93,0,,,,,,,,,,,,,,,,,,,,,,,,,,,,,,,,,,305.1022411000449,306.1189373000525,302.6404421000043,302.6404421000043,302.6404421000043,302.6404421000043,,old_sceneOut_3.png,94,4.0,2.463117399951443,,,,,017,1,2024-11-19_16h05.33.163,Surprise recog test,2023.1.3,59.956315858583956,
94,0,94,0,,,,,,,,,,,,,,,,,,,,,,,,,,,,,,,,,,307.60561950004194,308.6322113000788,306.1189373000525,306.1189373000525,306.1189373000525,306.1189373000525,,new_sceneOut_26.png,95,2.0,1.4827909000450745,,,,,017,1,2024-11-19_16h05.33.163,Surprise recog test,2023.1.3,59.956315858583956,
95,0,95,0,,,,,,,,,,,,,,,,,,,,,,,,,,,,,,,,,,309.5029444000684,310.53449089999776,308.6322113000788,308.6322113000788,308.6322113000788,308.6322113000788,,old_fruit_27.png,96,2.0,0.8728227999527007,,,,,017,1,2024-11-19_16h05.33.163,Surprise recog test,2023.1.3,59.956315858583956,
96,0,96,0,,,,,,,,,,,,,,,,,,,,,,,,,,,,,,,,,,312.6574779000366,313.6825927000027,310.53449089999776,310.53449089999776,310.53449089999776,310.53449089999776,,new_fruit_10.png,97,4.0,2.122227899963036,,,,,017,1,2024-11-19_16h05.33.163,Surprise recog test,2023.1.3,59.956315858583956,
97,0,97,0,,,,,,,,,,,,,,,,,,,,,,,,,,,,,,,,,,315.719985099975,316.74108960002195,313.6825927000027,313.6825927000027,313.6825927000027,313.6825927000027,,old_stationery_23.png,98,3.0,2.0351208000211045,,,,,017,1,2024-11-19_16h05.33.163,Surprise recog test,2023.1.3,59.956315858583956,
98,0,98,0,,,,,,,,,,,,,,,,,,,,,,,,,,,,,,,,,,318.01502280007116,319.04186880006455,316.74108960002195,316.74108960002195,316.74108960002195,316.74108960002195,,old_sceneIn_2.png,99,3.0,1.2765535999787971,,,,,017,1,2024-11-19_16h05.33.163,Surprise recog test,2023.1.3,59.956315858583956,
99,0,99,0,,,,,,,,,,,,,,,,,,,,,,,,,,,,,,,,,,320.27220220002346,321.29449930007104,319.04186880006455,319.04186880006455,319.04186880006455,319.04186880006455,,old_fruit_1.png,100,3.0,1.2333351999986917,,,,,017,1,2024-11-19_16h05.33.163,Surprise recog test,2023.1.3,59.956315858583956,
100,0,100,0,,,,,,,,,,,,,,,,,,,,,,,,,,,,,,,,,,322.2503558000317,323.2806530999951,321.29449930007104,321.29449930007104,321.29449930007104,321.29449930007104,,new_stationery_3.png,101,3.0,0.9593078000470996,,,,,017,1,2024-11-19_16h05.33.163,Surprise recog test,2023.1.3,59.956315858583956,
101,0,101,0,,,,,,,,,,,,,,,,,,,,,,,,,,,,,,,,,,323.91395760001615,,323.2806530999951,323.2806530999951,323.2806530999951,323.2806530999951,,new_sceneOut_43.png,102,3.0,0.636162200011313,,,,,017,1,2024-11-19_16h05.33.163,Surprise recog test,2023.1.3,59.956315858583956,
102,0,102,0,,,,,,,,,,,,,,,,,,,,,,,,,,,,,,,,,,325.38790390000213,326.4025688000256,324.9464939000318,324.9464939000318,324.9464939000318,324.9464939000318,,new_sceneOut_7.png,103,3.0,0.4426382000092417,,,,,017,1,2024-11-19_16h05.33.163,Surprise recog test,2023.1.3,59.956315858583956,
103,0,103,0,,,,,,,,,,,,,,,,,,,,,,,,,,,,,,,,,,327.2669748000335,,326.4025688000256,326.4025688000256,326.4025688000256,326.4025688000256,,old_fruit_12.png,104,3.0,0.8595798000460491,,,,,017,1,2024-11-19_16h05.33.163,Surprise recog test,2023.1.3,59.956315858583956,
104,0,104,0,,,,,,,,,,,,,,,,,,,,,,,,,,,,,,,,,,329.7654401999898,330.78461309999693,328.29810979997274,328.29810979997274,328.29810979997274,328.29810979997274,,old_stationery_7.png,105,4.0,1.46925820002798,,,,,017,1,2024-11-19_16h05.33.163,Surprise recog test,2023.1.3,59.956315858583956,
105,0,105,0,,,,,,,,,,,,,,,,,,,,,,,,,,,,,,,,,,331.6362412000308,,330.78461309999693,330.78461309999693,330.78461309999693,330.78461309999693,,old_fruit_39.png,106,3.0,0.8536540999775752,,,,,017,1,2024-11-19_16h05.33.163,Surprise recog test,2023.1.3,59.956315858583956,
106,0,106,0,,,,,,,,,,,,,,,,,,,,,,,,,,,,,,,,,,333.6785757000325,334.70692580007017,332.6675532000372,332.6675532000372,332.6675532000372,332.6675532000372,,old_sceneIn_22.png,107,3.0,1.0129968000110239,,,,,017,1,2024-11-19_16h05.33.163,Surprise recog test,2023.1.3,59.956315858583956,
107,0,107,0,,,,,,,,,,,,,,,,,,,,,,,,,,,,,,,,,,335.9510774000082,336.95802100002766,334.70692580007017,334.70692580007017,334.70692580007017,334.70692580007017,,old_stationery_11.png,108,4.0,1.2461936000036076,,,,,017,1,2024-11-19_16h05.33.163,Surprise recog test,2023.1.3,59.956315858583956,
108,0,108,0,,,,,,,,,,,,,,,,,,,,,,,,,,,,,,,,,,337.69477469997946,338.7306780000217,336.95802100002766,336.95802100002766,336.95802100002766,336.95802100002766,,new_stationery_47.png,109,3.0,0.7315109999617562,,,,,017,1,2024-11-19_16h05.33.163,Surprise recog test,2023.1.3,59.956315858583956,
109,0,109,0,,,,,,,,,,,,,,,,,,,,,,,,,,,,,,,,,,339.5489179000724,340.5758640000131,338.7306780000217,338.7306780000217,338.7306780000217,338.7306780000217,,old_sceneOut_12.png,110,3.0,0.8206465999828652,,,,,017,1,2024-11-19_16h05.33.163,Surprise recog test,2023.1.3,59.956315858583956,
110,0,110,0,,,,,,,,,,,,,,,,,,,,,,,,,,,,,,,,,,341.83272070006933,342.84630890004337,340.5758640000131,340.5758640000131,340.5758640000131,340.5758640000131,,new_stationery_30.png,111,3.0,1.258944800007157,,,,,017,1,2024-11-19_16h05.33.163,Surprise recog test,2023.1.3,59.956315858583956,
111,0,111,0,,,,,,,,,,,,,,,,,,,,,,,,,,,,,,,,,,344.397501999978,,342.84630890004337,342.84630890004337,342.84630890004337,342.84630890004337,,old_sceneOut_17.png,112,4.0,1.5475137999746948,,,,,017,1,2024-11-19_16h05.33.163,Surprise recog test,2023.1.3,59.956315858583956,
112,0,112,0,,,,,,,,,,,,,,,,,,,,,,,,,,,,,,,,,,347.1343315000413,348.1669297000626,345.4302031000843,345.4302031000843,345.4302031000843,345.4302031000843,,new_stationery_7.png,113,4.0,1.7067816000198945,,,,,017,1,2024-11-19_16h05.33.163,Surprise recog test,2023.1.3,59.956315858583956,
113,0,113,0,,,,,,,,,,,,,,,,,,,,,,,,,,,,,,,,,,349.4367059000069,350.45250830007717,348.1669297000626,348.1669297000626,348.1669297000626,348.1669297000626,,old_sceneOut_22.png,114,4.0,1.2725093000335619,,,,,017,1,2024-11-19_16h05.33.163,Surprise recog test,2023.1.3,59.956315858583956,
114,0,114,0,,,,,,,,,,,,,,,,,,,,,,,,,,,,,,,,,,352.64842420001514,353.6624262999976,350.45250830007717,350.45250830007717,350.45250830007717,350.45250830007717,,new_stationery_33.png,115,3.0,2.1921817999100313,,,,,017,1,2024-11-19_16h05.33.163,Surprise recog test,2023.1.3,59.956315858583956,
115,0,115,0,,,,,,,,,,,,,,,,,,,,,,,,,,,,,,,,,,354.97597350005526,356.0040680000093,353.6624262999976,353.6624262999976,353.6624262999976,353.6624262999976,,new_sceneOut_36.png,116,3.0,1.3102085000136867,,,,,017,1,2024-11-19_16h05.33.163,Surprise recog test,2023.1.3,59.956315858583956,
116,0,116,0,,,,,,,,,,,,,,,,,,,,,,,,,,,,,,,,,,357.1789121000329,358.2046196999727,356.0040680000093,356.0040680000093,356.0040680000093,356.0040680000093,,old_sceneIn_13.png,117,3.0,1.1765657999785617,,,,,017,1,2024-11-19_16h05.33.163,Surprise recog test,2023.1.3,59.956315858583956,
117,0,117,0,,,,,,,,,,,,,,,,,,,,,,,,,,,,,,,,,,360.16513790003955,361.19629420002457,358.2046196999727,358.2046196999727,358.2046196999727,358.2046196999727,,old_fruit_15.png,118,2.0,1.9623601000057533,,,,,017,1,2024-11-19_16h05.33.163,Surprise recog test,2023.1.3,59.956315858583956,
118,0,118,0,,,,,,,,,,,,,,,,,,,,,,,,,,,,,,,,,,362.2492704000324,363.27617780002765,361.19629420002457,361.19629420002457,361.19629420002457,361.19629420002457,,old_sceneIn_41.png,119,3.0,1.055093799950555,,,,,017,1,2024-11-19_16h05.33.163,Surprise recog test,2023.1.3,59.956315858583956,
119,0,119,0,,,,,,,,,,,,,,,,,,,,,,,,,,,,,,,,,,364.3602115000831,365.37353290000465,363.27617780002765,363.27617780002765,363.27617780002765,363.27617780002765,,old_sceneIn_23.png,120,3.0,1.078336099977605,,,,,017,1,2024-11-19_16h05.33.163,Surprise recog test,2023.1.3,59.956315858583956,
120,0,120,0,,,,,,,,,,,,,,,,,,,,,,,,,,,,,,,,,,366.2783050000435,367.29052240005694,365.37353290000465,365.37353290000465,365.37353290000465,365.37353290000465,,new_sceneOut_37.png,121,3.0,0.9019516999833286,,,,,017,1,2024-11-19_16h05.33.163,Surprise recog test,2023.1.3,59.956315858583956,
121,0,121,0,,,,,,,,,,,,,,,,,,,,,,,,,,,,,,,,,,368.17570770008024,369.18527180003,367.29052240005694,367.29052240005694,367.29052240005694,367.29052240005694,,new_sceneOut_4.png,122,3.0,0.8856568000046536,,,,,017,1,2024-11-19_16h05.33.163,Surprise recog test,2023.1.3,59.956315858583956,
122,0,122,0,,,,,,,,,,,,,,,,,,,,,,,,,,,,,,,,,,370.08145679999143,371.10177479998674,369.18527180003,369.18527180003,369.18527180003,369.18527180003,,old_sceneOut_31.png,123,3.0,0.8920128999743611,,,,,017,1,2024-11-19_16h05.33.163,Surprise recog test,2023.1.3,59.956315858583956,
123,0,123,0,,,,,,,,,,,,,,,,,,,,,,,,,,,,,,,,,,372.6611068000784,373.68418139999267,371.10177479998674,371.10177479998674,371.10177479998674,371.10177479998674,,new_stationery_13.png,124,3.0,1.5609192999545485,,,,,017,1,2024-11-19_16h05.33.163,Surprise recog test,2023.1.3,59.956315858583956,
124,0,124,0,,,,,,,,,,,,,,,,,,,,,,,,,,,,,,,,,,375.28698770003393,376.30656549998093,373.68418139999267,373.68418139999267,373.68418139999267,373.68418139999267,,old_fruit_17.png,125,2.0,1.6046400000341237,,,,,017,1,2024-11-19_16h05.33.163,Surprise recog test,2023.1.3,59.956315858583956,
125,0,125,0,,,,,,,,,,,,,,,,,,,,,,,,,,,,,,,,,,377.1233201000141,,376.30656549998093,376.30656549998093,376.30656549998093,376.30656549998093,,old_sceneOut_4.png,126,3.0,0.8195295000914484,,,,,017,1,2024-11-19_16h05.33.163,Surprise recog test,2023.1.3,59.956315858583956,
126,0,126,0,,,,,,,,,,,,,,,,,,,,,,,,,,,,,,,,,,379.09880999999586,380.1279625999741,378.1560824000044,378.1560824000044,378.1560824000044,378.1560824000044,,new_stationery_6.png,127,3.0,0.9447684000479057,,,,,017,1,2024-11-19_16h05.33.163,Surprise recog test,2023.1.3,59.956315858583956,
127,0,127,0,,,,,,,,,,,,,,,,,,,,,,,,,,,,,,,,,,380.75836680002976,381.7737976000644,380.1279625999741,380.1279625999741,380.1279625999741,380.1279625999741,,new_fruit_44.png,128,3.0,0.6330459000309929,,,,,017,1,2024-11-19_16h05.33.163,Surprise recog test,2023.1.3,59.956315858583956,
128,0,128,0,,,,,,,,,,,,,,,,,,,,,,,,,,,,,,,,,,382.3837035000324,383.41136929998174,381.7737976000644,381.7737976000644,381.7737976000644,381.7737976000644,,new_sceneIn_21.png,129,2.0,0.6116603000555187,,,,,017,1,2024-11-19_16h05.33.163,Surprise recog test,2023.1.3,59.956315858583956,
129,0,129,0,,,,,,,,,,,,,,,,,,,,,,,,,,,,,,,,,,384.4877378999954,385.50320580007974,383.41136929998174,383.41136929998174,383.41136929998174,383.41136929998174,,new_fruit_22.png,130,2.0,1.0791617999784648,,,,,017,1,2024-11-19_16h05.33.163,Surprise recog test,2023.1.3,59.956315858583956,
130,0,130,0,,,,,,,,,,,,,,,,,,,,,,,,,,,,,,,,,,388.0149094000226,,385.50320580007974,385.50320580007974,385.50320580007974,385.50320580007974,,new_stationery_32.png,131,4.0,2.507538899895735,,,,,017,1,2024-11-19_16h05.33.163,Surprise recog test,2023.1.3,59.956315858583956,
131,0,131,0,,,,,,,,,,,,,,,,,,,,,,,,,,,,,,,,,,390.2997338999994,391.3206564000575,389.0440880000824,389.0440880000824,389.0440880000824,389.0440880000824,,old_fruit_14.png,132,2.0,1.2569096999941394,,,,,017,1,2024-11-19_16h05.33.163,Surprise recog test,2023.1.3,59.956315858583956,
132,0,132,0,,,,,,,,,,,,,,,,,,,,,,,,,,,,,,,,,,392.21824429999106,393.2383314999752,391.3206564000575,391.3206564000575,391.3206564000575,391.3206564000575,,old_stationery_5.png,133,3.0,0.8981275999685749,,,,,017,1,2024-11-19_16h05.33.163,Surprise recog test,2023.1.3,59.956315858583956,
133,0,133,0,,,,,,,,,,,,,,,,,,,,,,,,,,,,,,,,,,394.79721920005977,395.82570370007306,393.2383314999752,393.2383314999752,393.2383314999752,393.2383314999752,,old_sceneIn_10.png,134,3.0,1.5627339000348002,,,,,017,1,2024-11-19_16h05.33.163,Surprise recog test,2023.1.3,59.956315858583956,
134,0,134,0,,,,,,,,,,,,,,,,,,,,,,,,,,,,,,,,,,396.62463450001087,,395.82570370007306,395.82570370007306,395.82570370007306,395.82570370007306,,new_stationery_48.png,135,3.0,0.8007237000856549,,,,,017,1,2024-11-19_16h05.33.163,Surprise recog test,2023.1.3,59.956315858583956,
135,0,135,0,,,,,,,,,,,,,,,,,,,,,,,,,,,,,,,,,,398.894249200006,399.92885220004246,397.6619938000804,397.6619938000804,397.6619938000804,397.6619938000804,,new_sceneIn_5.png,136,3.0,1.2344605000689626,,,,,017,1,2024-11-19_16h05.33.163,Surprise recog test,2023.1.3,59.956315858583956,
136,0,136,0,,,,,,,,,,,,,,,,,,,,,,,,,,,,,,,,,,401.2145901999902,402.2325318000512,399.92885220004246,399.92885220004246,399.92885220004246,399.92885220004246,,new_fruit_27.png,137,2.0,1.290034499950707,,,,,017,1,2024-11-19_16h05.33.163,Surprise recog test,2023.1.3,59.956315858583956,
137,0,137,0,,,,,,,,,,,,,,,,,,,,,,,,,,,,,,,,,,404.0472494000569,,402.2325318000512,402.2325318000512,402.2325318000512,402.2325318000512,,new_stationery_36.png,138,4.0,1.8108598999679089,,,,,017,1,2024-11-19_16h05.33.163,Surprise recog test,2023.1.3,59.956315858583956,
138,0,138,0,,,,,,,,,,,,,,,,,,,,,,,,,,,,,,,,,,405.79709200002253,,405.0677230000729,405.0677230000729,405.0677230000729,405.0677230000729,,new_sceneOut_46.png,139,3.0,0.7231931999558583,,,,,017,1,2024-11-19_16h05.33.163,Surprise recog test,2023.1.3,59.956315858583956,
139,0,139,0,,,,,,,,,,,,,,,,,,,,,,,,,,,,,,,,,,407.729449299979,408.7390797000844,406.8209836999886,406.8209836999886,406.8209836999886,406.8209836999886,,new_stationery_11.png,140,3.0,0.90672609989997,,,,,017,1,2024-11-19_16h05.33.163,Surprise recog test,2023.1.3,59.956315858583956,
140,0,140,0,,,,,,,,,,,,,,,,,,,,,,,,,,,,,,,,,,409.8980271000182,410.9022186000366,408.7390797000844,408.7390797000844,408.7390797000844,408.7390797000844,,new_fruit_1.png,141,3.0,1.1487480000359938,,,,,017,1,2024-11-19_16h05.33.163,Surprise recog test,2023.1.3,59.956315858583956,
141,0,141,0,,,,,,,,,,,,,,,,,,,,,,,,,,,,,,,,,,411.6340886000544,412.64178399997763,410.9022186000366,410.9022186000366,410.9022186000366,410.9022186000366,,old_stationery_44.png,142,3.0,0.7281282999319956,,,,,017,1,2024-11-19_16h05.33.163,Surprise recog test,2023.1.3,59.956315858583956,
142,0,142,0,,,,,,,,,,,,,,,,,,,,,,,,,,,,,,,,,,413.34069300000556,414.36626629997045,412.64178399997763,412.64178399997763,412.64178399997763,412.64178399997763,,old_stationery_46.png,143,3.0,0.6923655999125913,,,,,017,1,2024-11-19_16h05.33.163,Surprise recog test,2023.1.3,59.956315858583956,
143,0,143,0,,,,,,,,,,,,,,,,,,,,,,,,,,,,,,,,,,415.27824450004846,416.3061737000244,414.36626629997045,414.36626629997045,414.36626629997045,414.36626629997045,,old_sceneIn_38.png,144,3.0,0.91320499998983,,,,,017,1,2024-11-19_16h05.33.163,Surprise recog test,2023.1.3,59.956315858583956,
144,0,144,0,,,,,,,,,,,,,,,,,,,,,,,,,,,,,,,,,,419.1890164000215,420.2087441000622,416.3061737000244,416.3061737000244,416.3061737000244,416.3061737000244,,old_sceneIn_25.png,145,4.0,2.8807709000539035,,,,,017,1,2024-11-19_16h05.33.163,Surprise recog test,2023.1.3,59.956315858583956,
145,0,145,0,,,,,,,,,,,,,,,,,,,,,,,,,,,,,,,,,,421.9579912000336,422.97392470005434,420.2087441000622,420.2087441000622,420.2087441000622,420.2087441000622,,new_sceneIn_27.png,146,4.0,1.7459365000249818,,,,,017,1,2024-11-19_16h05.33.163,Surprise recog test,2023.1.3,59.956315858583956,
146,0,146,0,,,,,,,,,,,,,,,,,,,,,,,,,,,,,,,,,,424.0677667000564,425.09883490006905,422.97392470005434,422.97392470005434,422.97392470005434,422.97392470005434,,new_fruit_15.png,147,4.0,1.0939183000009507,,,,,017,1,2024-11-19_16h05.33.163,Surprise recog test,2023.1.3,59.956315858583956,
147,0,147,0,,,,,,,,,,,,,,,,,,,,,,,,,,,,,,,,,,425.8340190000599,426.86648000008427,425.09883490006905,425.09883490006905,425.09883490006905,425.09883490006905,,new_sceneOut_22.png,148,4.0,0.7380940000293776,,,,,017,1,2024-11-19_16h05.33.163,Surprise recog test,2023.1.3,59.956315858583956,
148,0,148,0,,,,,,,,,,,,,,,,,,,,,,,,,,,,,,,,,,427.61264720000327,428.6348507000366,426.86648000008427,426.86648000008427,426.86648000008427,426.86648000008427,,old_sceneOut_14.png,149,4.0,0.7446718999417499,,,,,017,1,2024-11-19_16h05.33.163,Surprise recog test,2023.1.3,59.956315858583956,
149,0,149,0,,,,,,,,,,,,,,,,,,,,,,,,,,,,,,,,,,429.56370860000607,430.5832349000266,428.6348507000366,428.6348507000366,428.6348507000366,428.6348507000366,,new_sceneOut_23.png,150,4.0,0.9309519999660552,,,,,017,1,2024-11-19_16h05.33.163,Surprise recog test,2023.1.3,59.956315858583956,
150,0,150,0,,,,,,,,,,,,,,,,,,,,,,,,,,,,,,,,,,431.319586000056,,430.5832349000266,430.5832349000266,430.5832349000266,430.5832349000266,,new_sceneOut_32.png,151,4.0,0.7382838999619707,,,,,017,1,2024-11-19_16h05.33.163,Surprise recog test,2023.1.3,59.956315858583956,
151,0,151,0,,,,,,,,,,,,,,,,,,,,,,,,,,,,,,,,,,433.9607725000242,434.9764463000465,432.34071040002163,432.34071040002163,432.34071040002163,432.34071040002163,,old_fruit_49.png,152,3.0,1.6156019000336528,,,,,017,1,2024-11-19_16h05.33.163,Surprise recog test,2023.1.3,59.956315858583956,
152,0,152,0,,,,,,,,,,,,,,,,,,,,,,,,,,,,,,,,,,436.1431339000119,437.17412420001347,434.9764463000465,434.9764463000465,434.9764463000465,434.9764463000465,,new_fruit_16.png,153,3.0,1.163160200114362,,,,,017,1,2024-11-19_16h05.33.163,Surprise recog test,2023.1.3,59.956315858583956,
153,0,153,0,,,,,,,,,,,,,,,,,,,,,,,,,,,,,,,,,,439.97620350006036,,437.17412420001347,437.17412420001347,437.17412420001347,437.17412420001347,,new_sceneOut_10.png,154,4.0,2.8031548000872135,,,,,017,1,2024-11-19_16h05.33.163,Surprise recog test,2023.1.3,59.956315858583956,
154,0,154,0,,,,,,,,,,,,,,,,,,,,,,,,,,,,,,,,,,442.4420556999976,443.4576324999798,440.99729229998775,440.99729229998775,440.99729229998775,440.99729229998775,,old_sceneOut_23.png,155,4.0,1.4408095000544563,,,,,017,1,2024-11-19_16h05.33.163,Surprise recog test,2023.1.3,59.956315858583956,
155,0,155,0,,,,,,,,,,,,,,,,,,,,,,,,,,,,,,,,,,444.37735450000037,445.39713569998275,443.4576324999798,443.4576324999798,443.4576324999798,443.4576324999798,,old_stationery_32.png,156,4.0,0.9215007999446243,,,,,017,1,2024-11-19_16h05.33.163,Surprise recog test,2023.1.3,59.956315858583956,
156,0,156,0,,,,,,,,,,,,,,,,,,,,,,,,,,,,,,,,,,446.3958917000564,447.40063940000255,445.39713569998275,445.39713569998275,445.39713569998275,445.39713569998275,,new_sceneIn_23.png,157,4.0,1.0004059000639245,,,,,017,1,2024-11-19_16h05.33.163,Surprise recog test,2023.1.3,59.956315858583956,
157,0,157,0,,,,,,,,,,,,,,,,,,,,,,,,,,,,,,,,,,448.8512966000708,,447.40063940000255,447.40063940000255,447.40063940000255,447.40063940000255,,new_fruit_29.png,158,3.0,1.4470374999800697,,,,,017,1,2024-11-19_16h05.33.163,Surprise recog test,2023.1.3,59.956315858583956,
158,0,158,0,,,,,,,,,,,,,,,,,,,,,,,,,,,,,,,,,,450.6651596999727,451.6825580999721,449.8828106999863,449.8828106999863,449.8828106999863,449.8828106999863,,old_sceneIn_7.png,159,3.0,0.7834225000115111,,,,,017,1,2024-11-19_16h05.33.163,Surprise recog test,2023.1.3,59.956315858583956,
159,0,159,0,,,,,,,,,,,,,,,,,,,,,,,,,,,,,,,,,,453.2341675000498,454.24247250007465,451.6825580999721,451.6825580999721,451.6825580999721,451.6825580999721,,new_sceneIn_40.png,160,4.0,1.5526645999634638,,,,,017,1,2024-11-19_16h05.33.163,Surprise recog test,2023.1.3,59.956315858583956,
160,0,160,0,,,,,,,,,,,,,,,,,,,,,,,,,,,,,,,,,,455.40707680000924,456.4249457999831,454.24247250007465,454.24247250007465,454.24247250007465,454.24247250007465,,new_sceneIn_34.png,161,4.0,1.1606173999607563,,,,,017,1,2024-11-19_16h05.33.163,Surprise recog test,2023.1.3,59.956315858583956,
161,0,161,0,,,,,,,,,,,,,,,,,,,,,,,,,,,,,,,,,,457.3938234000234,458.410794800031,456.4249457999831,456.4249457999831,456.4249457999831,456.4249457999831,,old_sceneOut_28.png,162,4.0,0.9655370999826118,,,,,017,1,2024-11-19_16h05.33.163,Surprise recog test,2023.1.3,59.956315858583956,
162,0,162,0,,,,,,,,,,,,,,,,,,,,,,,,,,,,,,,,,,459.31960809999146,460.3382656000322,458.410794800031,458.410794800031,458.410794800031,458.410794800031,,new_sceneOut_15.png,163,4.0,0.9031027000164613,,,,,017,1,2024-11-19_16h05.33.163,Surprise recog test,2023.1.3,59.956315858583956,
163,0,163,0,,,,,,,,,,,,,,,,,,,,,,,,,,,,,,,,,,463.94604690000415,,460.3382656000322,460.3382656000322,460.3382656000322,460.3382656000322,,old_sceneIn_16.png,164,2.0,3.604438400012441,,,,,017,1,2024-11-19_16h05.33.163,Surprise recog test,2023.1.3,59.956315858583956,
164,0,164,0,,,,,,,,,,,,,,,,,,,,,,,,,,,,,,,,,,466.7476412000833,,464.9753181000706,464.9753181000706,464.9753181000706,464.9753181000706,,old_fruit_29.png,165,2.0,1.772181799984537,,,,,017,1,2024-11-19_16h05.33.163,Surprise recog test,2023.1.3,59.956315858583956,
165,0,165,0,,,,,,,,,,,,,,,,,,,,,,,,,,,,,,,,,,470.0594249999849,471.0885090000229,467.7789558999939,467.7789558999939,467.7789558999939,467.7789558999939,,old_sceneIn_49.png,166,4.0,2.2834125999361277,,,,,017,1,2024-11-19_16h05.33.163,Surprise recog test,2023.1.3,59.956315858583956,
166,0,166,0,,,,,,,,,,,,,,,,,,,,,,,,,,,,,,,,,,472.908279000083,473.92593949998263,471.0885090000229,471.0885090000229,471.0885090000229,471.0885090000229,,new_sceneIn_35.png,167,4.0,1.8228909000754356,,,,,017,1,2024-11-19_16h05.33.163,Surprise recog test,2023.1.3,59.956315858583956,
167,0,167,0,,,,,,,,,,,,,,,,,,,,,,,,,,,,,,,,,,475.55797209998127,476.58769850002136,473.92593949998263,473.92593949998263,473.92593949998263,473.92593949998263,,old_sceneOut_18.png,168,4.0,1.6269861001055688,,,,,017,1,2024-11-19_16h05.33.163,Surprise recog test,2023.1.3,59.956315858583956,
168,0,168,0,,,,,,,,,,,,,,,,,,,,,,,,,,,,,,,,,,477.9070881999796,,476.58769850002136,476.58769850002136,476.58769850002136,476.58769850002136,,old_fruit_45.png,169,3.0,1.3198588999221101,,,,,017,1,2024-11-19_16h05.33.163,Surprise recog test,2023.1.3,59.956315858583956,
169,0,169,0,,,,,,,,,,,,,,,,,,,,,,,,,,,,,,,,,,480.45080150000285,481.473830300034,478.93472220003605,478.93472220003605,478.93472220003605,478.93472220003605,,new_fruit_6.png,170,3.0,1.516280100098811,,,,,017,1,2024-11-19_16h05.33.163,Surprise recog test,2023.1.3,59.956315858583956,
170,0,170,0,,,,,,,,,,,,,,,,,,,,,,,,,,,,,,,,,,484.07621129998006,485.084873600048,481.473830300034,481.473830300034,481.473830300034,481.473830300034,,old_sceneOut_42.png,171,4.0,2.6002572999568656,,,,,017,1,2024-11-19_16h05.33.163,Surprise recog test,2023.1.3,59.956315858583956,
171,0,171,0,,,,,,,,,,,,,,,,,,,,,,,,,,,,,,,,,,485.8071781999897,486.83037189999595,485.084873600048,485.084873600048,485.084873600048,485.084873600048,,old_sceneOut_34.png,172,4.0,0.718240899965167,,,,,017,1,2024-11-19_16h05.33.163,Surprise recog test,2023.1.3,59.956315858583956,
172,0,172,0,,,,,,,,,,,,,,,,,,,,,,,,,,,,,,,,,,488.9825151000405,,486.83037189999595,486.83037189999595,486.83037189999595,486.83037189999595,,old_fruit_8.png,173,3.0,2.1540651998948306,,,,,017,1,2024-11-19_16h05.33.163,Surprise recog test,2023.1.3,59.956315858583956,
173,0,173,0,,,,,,,,,,,,,,,,,,,,,,,,,,,,,,,,,,492.74509240000043,493.7675450000679,490.01752580003813,490.01752580003813,490.01752580003813,490.01752580003813,,new_sceneIn_33.png,174,4.0,2.7292688000015914,,,,,017,1,2024-11-19_16h05.33.163,Surprise recog test,2023.1.3,59.956315858583956,
174,0,174,0,,,,,,,,,,,,,,,,,,,,,,,,,,,,,,,,,,495.18776850006543,,493.7675450000679,493.7675450000679,493.7675450000679,493.7675450000679,,old_fruit_48.png,175,1.0,1.4229495000327006,,,,,017,1,2024-11-19_16h05.33.163,Surprise recog test,2023.1.3,59.956315858583956,
175,0,175,0,,,,,,,,,,,,,,,,,,,,,,,,,,,,,,,,,,497.86890200001653,498.8946332000196,496.2154517000308,496.2154517000308,496.2154517000308,496.2154517000308,,new_fruit_33.png,176,3.0,1.6544692000607029,,,,,017,1,2024-11-19_16h05.33.163,Surprise recog test,2023.1.3,59.956315858583956,
176,0,176,0,,,,,,,,,,,,,,,,,,,,,,,,,,,,,,,,,,500.5482824000064,501.5779228999745,498.8946332000196,498.8946332000196,498.8946332000196,498.8946332000196,,old_sceneOut_48.png,177,4.0,1.6583434999920428,,,,,017,1,2024-11-19_16h05.33.163,Surprise recog test,2023.1.3,59.956315858583956,
177,0,177,0,,,,,,,,,,,,,,,,,,,,,,,,,,,,,,,,,,502.55582680006046,503.5783426000271,501.5779228999745,501.5779228999745,501.5779228999745,501.5779228999745,,new_sceneIn_48.png,178,4.0,0.9784745000069961,,,,,017,1,2024-11-19_16h05.33.163,Surprise recog test,2023.1.3,59.956315858583956,
178,0,178,0,,,,,,,,,,,,,,,,,,,,,,,,,,,,,,,,,,504.36972239997704,505.3952591000125,503.5783426000271,503.5783426000271,503.5783426000271,503.5783426000271,,new_sceneOut_47.png,179,4.0,0.7934799999929965,,,,,017,1,2024-11-19_16h05.33.163,Surprise recog test,2023.1.3,59.956315858583956,
179,0,179,0,,,,,,,,,,,,,,,,,,,,,,,,,,,,,,,,,,506.28776800003834,507.3157678999705,505.3952591000125,505.3952591000125,505.3952591000125,505.3952591000125,,new_stationery_46.png,180,4.0,0.8943598000332713,,,,,017,1,2024-11-19_16h05.33.163,Surprise recog test,2023.1.3,59.956315858583956,
180,0,180,0,,,,,,,,,,,,,,,,,,,,,,,,,,,,,,,,,,508.1767422000412,509.19749549997505,507.3157678999705,507.3157678999705,507.3157678999705,507.3157678999705,,new_stationery_22.png,181,4.0,0.8633432000642642,,,,,017,1,2024-11-19_16h05.33.163,Surprise recog test,2023.1.3,59.956315858583956,
181,0,181,0,,,,,,,,,,,,,,,,,,,,,,,,,,,,,,,,,,510.7223743000068,511.7466286000563,509.19749549997505,509.19749549997505,509.19749549997505,509.19749549997505,,old_fruit_23.png,182,3.0,1.5267910999245942,,,,,017,1,2024-11-19_16h05.33.163,Surprise recog test,2023.1.3,59.956315858583956,
182,0,182,0,,,,,,,,,,,,,,,,,,,,,,,,,,,,,,,,,,514.1074835000327,515.134970700019,511.7466286000563,511.7466286000563,511.7466286000563,511.7466286000563,,old_sceneOut_45.png,183,4.0,2.3611229000380263,,,,,017,1,2024-11-19_16h05.33.163,Surprise recog test,2023.1.3,59.956315858583956,
183,0,183,0,,,,,,,,,,,,,,,,,,,,,,,,,,,,,,,,,,518.0118980000261,519.0391880000243,515.134970700019,515.134970700019,515.134970700019,515.134970700019,,old_sceneOut_38.png,184,4.0,2.8776370000559837,,,,,017,1,2024-11-19_16h05.33.163,Surprise recog test,2023.1.3,59.956315858583956,
184,0,184,0,,,,,,,,,,,,,,,,,,,,,,,,,,,,,,,,,,519.951390900067,520.9786028000526,519.0391880000243,519.0391880000243,519.0391880000243,519.0391880000243,,new_sceneOut_24.png,185,4.0,0.9134782999753952,,,,,017,1,2024-11-19_16h05.33.163,Surprise recog test,2023.1.3,59.956315858583956,
185,0,185,0,,,,,,,,,,,,,,,,,,,,,,,,,,,,,,,,,,521.758335200022,522.770194599987,520.9786028000526,520.9786028000526,520.9786028000526,520.9786028000526,,new_sceneOut_25.png,186,4.0,0.78240150003694,,,,,017,1,2024-11-19_16h05.33.163,Surprise recog test,2023.1.3,59.956315858583956,
186,0,186,0,,,,,,,,,,,,,,,,,,,,,,,,,,,,,,,,,,526.4786572000012,527.4934300000314,522.770194599987,522.770194599987,522.770194599987,522.770194599987,,new_sceneIn_17.png,187,4.0,3.7079043000703678,,,,,017,1,2024-11-19_16h05.33.163,Surprise recog test,2023.1.3,59.956315858583956,
187,0,187,0,,,,,,,,,,,,,,,,,,,,,,,,,,,,,,,,,,528.9252625000663,529.9518072999781,527.4934300000314,527.4934300000314,527.4934300000314,527.4934300000314,,old_fruit_10.png,188,2.0,1.4330711999209598,,,,,017,1,2024-11-19_16h05.33.163,Surprise recog test,2023.1.3,59.956315858583956,
188,0,188,0,,,,,,,,,,,,,,,,,,,,,,,,,,,,,,,,,,530.9223298999714,531.9515346999979,529.9518072999781,529.9518072999781,529.9518072999781,529.9518072999781,,old_fruit_11.png,189,2.0,0.9739590999670327,,,,,017,1,2024-11-19_16h05.33.163,Surprise recog test,2023.1.3,59.956315858583956,
189,0,189,0,,,,,,,,,,,,,,,,,,,,,,,,,,,,,,,,,,533.8836836999981,534.9032360999845,531.9515346999979,531.9515346999979,531.9515346999979,531.9515346999979,,old_sceneIn_4.png,190,3.0,1.9297884999541566,,,,,017,1,2024-11-19_16h05.33.163,Surprise recog test,2023.1.3,59.956315858583956,
190,0,190,0,,,,,,,,,,,,,,,,,,,,,,,,,,,,,,,,,,536.1694980000611,537.1748545999872,534.9032360999845,534.9032360999845,534.9032360999845,534.9032360999845,,old_fruit_6.png,191,3.0,1.2611818999284878,,,,,017,1,2024-11-19_16h05.33.163,Surprise recog test,2023.1.3,59.956315858583956,
191,0,191,0,,,,,,,,,,,,,,,,,,,,,,,,,,,,,,,,,,538.5213704999769,539.534272900084,537.1748545999872,537.1748545999872,537.1748545999872,537.1748545999872,,old_sceneOut_44.png,192,3.0,1.3381175000686198,,,,,017,1,2024-11-19_16h05.33.163,Surprise recog test,2023.1.3,59.956315858583956,
192,0,192,0,,,,,,,,,,,,,,,,,,,,,,,,,,,,,,,,,,541.8845657000784,542.8958033000818,539.534272900084,539.534272900084,539.534272900084,539.534272900084,,old_sceneIn_24.png,193,4.0,2.346168900025077,,,,,017,1,2024-11-19_16h05.33.163,Surprise recog test,2023.1.3,59.956315858583956,
193,0,193,0,,,,,,,,,,,,,,,,,,,,,,,,,,,,,,,,,,545.2102382000303,546.2172003000742,542.8958033000818,542.8958033000818,542.8958033000818,542.8958033000818,,old_stationery_25.png,194,4.0,2.304261100012809,,,,,017,1,2024-11-19_16h05.33.163,Surprise recog test,2023.1.3,59.956315858583956,
194,0,194,0,,,,,,,,,,,,,,,,,,,,,,,,,,,,,,,,,,548.3628371000523,549.3673811000772,546.2172003000742,546.2172003000742,546.2172003000742,546.2172003000742,,old_fruit_40.png,195,2.0,2.137199499993585,,,,,017,1,2024-11-19_16h05.33.163,Surprise recog test,2023.1.3,59.956315858583956,
195,0,195,0,,,,,,,,,,,,,,,,,,,,,,,,,,,,,,,,,,552.7332375000697,553.739848600002,549.3673811000772,549.3673811000772,549.3673811000772,549.3673811000772,,old_stationery_49.png,196,4.0,3.355538300005719,,,,,017,1,2024-11-19_16h05.33.163,Surprise recog test,2023.1.3,59.956315858583956,
196,0,196,0,,,,,,,,,,,,,,,,,,,,,,,,,,,,,,,,,,555.0517333999742,556.0561229999876,553.739848600002,553.739848600002,553.739848600002,553.739848600002,,new_fruit_21.png,197,3.0,1.3024227999849245,,,,,017,1,2024-11-19_16h05.33.163,Surprise recog test,2023.1.3,59.956315858583956,
197,0,197,0,,,,,,,,,,,,,,,,,,,,,,,,,,,,,,,,,,557.3871342000784,558.3928589000134,556.0561229999876,556.0561229999876,556.0561229999876,556.0561229999876,,new_fruit_11.png,198,3.0,1.3202594999456778,,,,,017,1,2024-11-19_16h05.33.163,Surprise recog test,2023.1.3,59.956315858583956,
198,0,198,0,,,,,,,,,,,,,,,,,,,,,,,,,,,,,,,,,,561.7240520999767,562.7295660000527,558.3928589000134,558.3928589000134,558.3928589000134,558.3928589000134,,new_sceneOut_38.png,199,4.0,3.321836300077848,,,,,017,1,2024-11-19_16h05.33.163,Surprise recog test,2023.1.3,59.956315858583956,
199,0,199,0,,,,,,,,,,,,,,,,,,,,,,,,,,,,,,,,,,564.195462499978,,562.7295660000527,562.7295660000527,562.7295660000527,562.7295660000527,,old_sceneOut_1.png,200,4.0,1.457642100052908,,,,,017,1,2024-11-19_16h05.33.163,Surprise recog test,2023.1.3,59.956315858583956,
200,0,200,0,,,,,,,,,,,,,,,,,,,,,,,,,,,,,,,,,,566.9449928000104,567.9504129000707,565.214093000046,565.214093000046,565.214093000046,565.214093000046,,new_stationery_31.png,201,3.0,1.7211096999235451,,,,,017,1,2024-11-19_16h05.33.163,Surprise recog test,2023.1.3,59.956315858583956,
201,0,201,0,,,,,,,,,,,,,,,,,,,,,,,,,,,,,,,,,,569.5304987999843,570.5353514000308,567.9504129000707,567.9504129000707,567.9504129000707,567.9504129000707,,new_sceneOut_9.png,202,4.0,1.5706201000139117,,,,,017,1,2024-11-19_16h05.33.163,Surprise recog test,2023.1.3,59.956315858583956,
202,0,202,0,,,,,,,,,,,,,,,,,,,,,,,,,,,,,,,,,,573.3838277000468,574.3880160000408,570.5353514000308,570.5353514000308,570.5353514000308,570.5353514000308,,new_stationery_29.png,203,4.0,2.838193100062199,,,,,017,1,2024-11-19_16h05.33.163,Surprise recog test,2023.1.3,59.956315858583956,
203,0,203,0,,,,,,,,,,,,,,,,,,,,,,,,,,,,,,,,,,575.7523260000162,576.757568800007,574.3880160000408,574.3880160000408,574.3880160000408,574.3880160000408,,new_stationery_23.png,204,4.0,1.3534880999941379,,,,,017,1,2024-11-19_16h05.33.163,Surprise recog test,2023.1.3,59.956315858583956,
204,0,204,0,,,,,,,,,,,,,,,,,,,,,,,,,,,,,,,,,,577.5538276999723,578.5585271000164,576.757568800007,576.757568800007,576.757568800007,576.757568800007,,old_sceneIn_19.png,205,4.0,0.7865811000810936,,,,,017,1,2024-11-19_16h05.33.163,Surprise recog test,2023.1.3,59.956315858583956,
205,0,205,0,,,,,,,,,,,,,,,,,,,,,,,,,,,,,,,,,,580.2560182000743,581.2614867000375,578.5585271000164,578.5585271000164,578.5585271000164,578.5585271000164,,new_stationery_45.png,206,4.0,1.687163700000383,,,,,017,1,2024-11-19_16h05.33.163,Surprise recog test,2023.1.3,59.956315858583956,
206,0,206,0,,,,,,,,,,,,,,,,,,,,,,,,,,,,,,,,,,581.9074373000767,582.9123554000398,581.2614867000375,581.2614867000375,581.2614867000375,581.2614867000375,,old_sceneIn_26.png,207,4.0,0.6364434999413788,,,,,017,1,2024-11-19_16h05.33.163,Surprise recog test,2023.1.3,59.956315858583956,
207,0,207,0,,,,,,,,,,,,,,,,,,,,,,,,,,,,,,,,,,583.7090574000031,584.7147665000521,582.9123554000398,582.9123554000398,582.9123554000398,582.9123554000398,,old_sceneOut_46.png,208,4.0,0.7866700999438763,,,,,017,1,2024-11-19_16h05.33.163,Surprise recog test,2023.1.3,59.956315858583956,
208,0,208,0,,,,,,,,,,,,,,,,,,,,,,,,,,,,,,,,,,585.4603666000767,586.4680243000621,584.7147665000521,584.7147665000521,584.7147665000521,584.7147665000521,,new_sceneIn_45.png,209,4.0,0.7368968999944627,,,,,017,1,2024-11-19_16h05.33.163,Surprise recog test,2023.1.3,59.956315858583956,
209,0,209,0,,,,,,,,,,,,,,,,,,,,,,,,,,,,,,,,,,588.2460730000166,589.2530976000708,586.4680243000621,586.4680243000621,586.4680243000621,586.4680243000621,,old_fruit_41.png,210,3.0,1.7718219999223948,,,,,017,1,2024-11-19_16h05.33.163,Surprise recog test,2023.1.3,59.956315858583956,
210,0,210,0,,,,,,,,,,,,,,,,,,,,,,,,,,,,,,,,,,590.2420184999937,591.2526149000041,589.2530976000708,589.2530976000708,589.2530976000708,589.2530976000708,,old_sceneOut_5.png,211,3.0,0.982592000043951,,,,,017,1,2024-11-19_16h05.33.163,Surprise recog test,2023.1.3,59.956315858583956,
211,0,211,0,,,,,,,,,,,,,,,,,,,,,,,,,,,,,,,,,,592.0492101999698,593.05373220006,591.2526149000041,591.2526149000041,591.2526149000041,591.2526149000041,,new_sceneIn_50.png,212,3.0,0.7894111000932753,,,,,017,1,2024-11-19_16h05.33.163,Surprise recog test,2023.1.3,59.956315858583956,
212,0,212,0,,,,,,,,,,,,,,,,,,,,,,,,,,,,,,,,,,594.4678652000148,595.4724566000514,593.05373220006,593.05373220006,593.05373220006,593.05373220006,,old_sceneIn_14.png,213,3.0,1.403809200040996,,,,,017,1,2024-11-19_16h05.33.163,Surprise recog test,2023.1.3,59.956315858583956,
213,0,213,0,,,,,,,,,,,,,,,,,,,,,,,,,,,,,,,,,,599.6221723000053,600.6268583000638,595.4724566000514,595.4724566000514,595.4724566000514,595.4724566000514,,old_sceneOut_33.png,214,4.0,4.139378200052306,,,,,017,1,2024-11-19_16h05.33.163,Surprise recog test,2023.1.3,59.956315858583956,
214,0,214,0,,,,,,,,,,,,,,,,,,,,,,,,,,,,,,,,,,602.7914496000158,603.7958584000589,600.6268583000638,600.6268583000638,600.6268583000638,600.6268583000638,,new_stationery_50.png,215,4.0,2.1539991000900045,,,,,017,1,2024-11-19_16h05.33.163,Surprise recog test,2023.1.3,59.956315858583956,
215,0,215,0,,,,,,,,,,,,,,,,,,,,,,,,,,,,,,,,,,604.5095934000565,605.5148567999713,603.7958584000589,603.7958584000589,603.7958584000589,603.7958584000589,,old_sceneIn_17.png,216,4.0,0.7033867000136524,,,,,017,1,2024-11-19_16h05.33.163,Surprise recog test,2023.1.3,59.956315858583956,
216,0,216,0,,,,,,,,,,,,,,,,,,,,,,,,,,,,,,,,,,606.3444042999763,607.3505853000097,605.5148567999713,605.5148567999713,605.5148567999713,605.5148567999713,,new_sceneOut_34.png,217,4.0,0.8197476000059396,,,,,017,1,2024-11-19_16h05.33.163,Surprise recog test,2023.1.3,59.956315858583956,
217,0,217,0,,,,,,,,,,,,,,,,,,,,,,,,,,,,,,,,,,609.0349547000369,610.0512776999967,607.3505853000097,607.3505853000097,607.3505853000097,607.3505853000097,,new_sceneIn_44.png,218,4.0,1.6810870999470353,,,,,017,1,2024-11-19_16h05.33.163,Surprise recog test,2023.1.3,59.956315858583956,
218,0,218,0,,,,,,,,,,,,,,,,,,,,,,,,,,,,,,,,,,611.1984587999759,612.2027675000718,610.0512776999967,610.0512776999967,610.0512776999967,610.0512776999967,,new_sceneOut_6.png,219,4.0,1.136919799959287,,,,,017,1,2024-11-19_16h05.33.163,Surprise recog test,2023.1.3,59.956315858583956,
219,0,219,0,,,,,,,,,,,,,,,,,,,,,,,,,,,,,,,,,,613.0165621000342,614.0226535000838,612.2027675000718,612.2027675000718,612.2027675000718,612.2027675000718,,old_stationery_40.png,220,4.0,0.8029695000732318,,,,,017,1,2024-11-19_16h05.33.163,Surprise recog test,2023.1.3,59.956315858583956,
220,0,220,0,,,,,,,,,,,,,,,,,,,,,,,,,,,,,,,,,,615.802219800069,616.806645500008,614.0226535000838,614.0226535000838,614.0226535000838,614.0226535000838,,old_fruit_28.png,221,2.0,1.77117870002985,,,,,017,1,2024-11-19_16h05.33.163,Surprise recog test,2023.1.3,59.956315858583956,
221,0,221,0,,,,,,,,,,,,,,,,,,,,,,,,,,,,,,,,,,618.3043576000491,619.3087793000741,616.806645500008,616.806645500008,616.806645500008,616.806645500008,,new_fruit_24.png,222,3.0,1.4870712000411004,,,,,017,1,2024-11-19_16h05.33.163,Surprise recog test,2023.1.3,59.956315858583956,
222,0,222,0,,,,,,,,,,,,,,,,,,,,,,,,,,,,,,,,,,620.5061398000689,621.5118775999872,619.3087793000741,619.3087793000741,619.3087793000741,619.3087793000741,,old_sceneOut_41.png,223,4.0,1.1872802999569103,,,,,017,1,2024-11-19_16h05.33.163,Surprise recog test,2023.1.3,59.956315858583956,
223,0,223,0,,,,,,,,,,,,,,,,,,,,,,,,,,,,,,,,,,622.3123089000583,,621.5118775999872,621.5118775999872,621.5118775999872,621.5118775999872,,new_sceneOut_40.png,224,4.0,0.7968522000592202,,,,,017,1,2024-11-19_16h05.33.163,Surprise recog test,2023.1.3,59.956315858583956,
224,0,224,0,,,,,,,,,,,,,,,,,,,,,,,,,,,,,,,,,,624.1218036999926,625.145442900015,623.3471647000406,623.3471647000406,623.3471647000406,623.3471647000406,,new_sceneIn_26.png,225,4.0,0.77801140001975,,,,,017,1,2024-11-19_16h05.33.163,Surprise recog test,2023.1.3,59.956315858583956,
225,0,225,0,,,,,,,,,,,,,,,,,,,,,,,,,,,,,,,,,,625.7457671000157,626.7624180000275,625.145442900015,625.145442900015,625.145442900015,625.145442900015,,old_sceneOut_32.png,226,4.0,0.6013329999987036,,,,,017,1,2024-11-19_16h05.33.163,Surprise recog test,2023.1.3,59.956315858583956,
226,0,226,0,,,,,,,,,,,,,,,,,,,,,,,,,,,,,,,,,,627.6186962000793,628.6332325000549,626.7624180000275,626.7624180000275,626.7624180000275,626.7624180000275,,new_stationery_9.png,227,4.0,0.8557067000074312,,,,,017,1,2024-11-19_16h05.33.163,Surprise recog test,2023.1.3,59.956315858583956,
227,0,227,0,,,,,,,,,,,,,,,,,,,,,,,,,,,,,,,,,,631.5989999000449,632.6207821000135,628.6332325000549,628.6332325000549,628.6332325000549,628.6332325000549,,new_stationery_12.png,228,3.0,2.9544181999517605,,,,,017,1,2024-11-19_16h05.33.163,Surprise recog test,2023.1.3,59.956315858583956,
228,0,228,0,,,,,,,,,,,,,,,,,,,,,,,,,,,,,,,,,,635.4045518999919,,632.6207821000135,632.6207821000135,632.6207821000135,632.6207821000135,,old_fruit_18.png,229,3.0,2.7835920000215992,,,,,017,1,2024-11-19_16h05.33.163,Surprise recog test,2023.1.3,59.956315858583956,
229,0,229,0,,,,,,,,,,,,,,,,,,,,,,,,,,,,,,,,,,638.9215662999777,639.9293703000294,636.4341682000086,636.4341682000086,636.4341682000086,636.4341682000086,,old_stationery_28.png,230,4.0,2.4829521999927238,,,,,017,1,2024-11-19_16h05.33.163,Surprise recog test,2023.1.3,59.956315858583956,
230,0,230,0,,,,,,,,,,,,,,,,,,,,,,,,,,,,,,,,,,641.5813478999771,642.6004263000796,639.9293703000294,639.9293703000294,639.9293703000294,639.9293703000294,,new_sceneIn_9.png,231,4.0,1.6501635999884456,,,,,017,1,2024-11-19_16h05.33.163,Surprise recog test,2023.1.3,59.956315858583956,
231,0,231,0,,,,,,,,,,,,,,,,,,,,,,,,,,,,,,,,,,643.4827549000038,644.5110245000105,642.6004263000796,642.6004263000796,642.6004263000796,642.6004263000796,,new_sceneIn_18.png,232,4.0,0.8784565000096336,,,,,017,1,2024-11-19_16h05.33.163,Surprise recog test,2023.1.3,59.956315858583956,
232,0,232,0,,,,,,,,,,,,,,,,,,,,,,,,,,,,,,,,,,648.2603804999962,649.2710557000246,644.5110245000105,644.5110245000105,644.5110245000105,644.5110245000105,,new_fruit_7.png,233,3.0,3.7488170999567956,,,,,017,1,2024-11-19_16h05.33.163,Surprise recog test,2023.1.3,59.956315858583956,
233,0,233,0,,,,,,,,,,,,,,,,,,,,,,,,,,,,,,,,,,651.873960900004,652.9095503999852,649.2710557000246,649.2710557000246,649.2710557000246,649.2710557000246,,new_fruit_40.png,234,4.0,2.596507600042969,,,,,017,1,2024-11-19_16h05.33.163,Surprise recog test,2023.1.3,59.956315858583956,
234,0,234,0,,,,,,,,,,,,,,,,,,,,,,,,,,,,,,,,,,655.1513334000483,656.1734091000399,652.9095503999852,652.9095503999852,652.9095503999852,652.9095503999852,,old_stationery_18.png,235,4.0,2.2420839000260457,,,,,017,1,2024-11-19_16h05.33.163,Surprise recog test,2023.1.3,59.956315858583956,
235,0,235,0,,,,,,,,,,,,,,,,,,,,,,,,,,,,,,,,,,656.9882189000491,657.9909676000243,656.1734091000399,656.1734091000399,656.1734091000399,656.1734091000399,,old_sceneIn_21.png,236,4.0,0.8181763000320643,,,,,017,1,2024-11-19_16h05.33.163,Surprise recog test,2023.1.3,59.956315858583956,
236,0,236,0,,,,,,,,,,,,,,,,,,,,,,,,,,,,,,,,,,659.9350890000351,660.9435897000367,657.9909676000243,657.9909676000243,657.9909676000243,657.9909676000243,,old_fruit_30.png,237,3.0,1.9386518999235705,,,,,017,1,2024-11-19_16h05.33.163,Surprise recog test,2023.1.3,59.956315858583956,
237,0,237,0,,,,,,,,,,,,,,,,,,,,,,,,,,,,,,,,,,662.6971821000334,663.7301273000194,660.9435897000367,660.9435897000367,660.9435897000367,660.9435897000367,,old_stationery_16.png,238,4.0,1.7477316999575123,,,,,017,1,2024-11-19_16h05.33.163,Surprise recog test,2023.1.3,59.956315858583956,
238,0,238,0,,,,,,,,,,,,,,,,,,,,,,,,,,,,,,,,,,664.5231036000187,665.5347132000607,663.7301273000194,663.7301273000194,663.7301273000194,663.7301273000194,,old_sceneOut_20.png,239,4.0,0.7935017999261618,,,,,017,1,2024-11-19_16h05.33.163,Surprise recog test,2023.1.3,59.956315858583956,
239,0,239,0,,,,,,,,,,,,,,,,,,,,,,,,,,,,,,,,,,666.9367152000777,667.9523182000266,665.5347132000607,665.5347132000607,665.5347132000607,665.5347132000607,,new_sceneIn_13.png,240,4.0,1.3982985999900848,,,,,017,1,2024-11-19_16h05.33.163,Surprise recog test,2023.1.3,59.956315858583956,
240,0,240,0,,,,,,,,,,,,,,,,,,,,,,,,,,,,,,,,,,669.0148446999956,670.0320638000267,667.9523182000266,667.9523182000266,667.9523182000266,667.9523182000266,,new_sceneOut_11.png,241,4.0,1.0548770000459626,,,,,017,1,2024-11-19_16h05.33.163,Surprise recog test,2023.1.3,59.956315858583956,
241,0,241,0,,,,,,,,,,,,,,,,,,,,,,,,,,,,,,,,,,671.7013358999975,,670.0320638000267,670.0320638000267,670.0320638000267,670.0320638000267,,new_stationery_14.png,242,4.0,1.670990900020115,,,,,017,1,2024-11-19_16h05.33.163,Surprise recog test,2023.1.3,59.956315858583956,
242,0,242,0,,,,,,,,,,,,,,,,,,,,,,,,,,,,,,,,,,675.4692732000258,676.4870728000533,672.7231660999823,672.7231660999823,672.7231660999823,672.7231660999823,,new_fruit_48.png,243,3.0,2.7420947999926284,,,,,017,1,2024-11-19_16h05.33.163,Surprise recog test,2023.1.3,59.956315858583956,
243,0,243,0,,,,,,,,,,,,,,,,,,,,,,,,,,,,,,,,,,677.5735105000203,,676.4870728000533,676.4870728000533,676.4870728000533,676.4870728000533,,old_fruit_21.png,244,3.0,1.0886660000542179,,,,,017,1,2024-11-19_16h05.33.163,Surprise recog test,2023.1.3,59.956315858583956,
244,0,244,0,,,,,,,,,,,,,,,,,,,,,,,,,,,,,,,,,,679.3040379000595,680.3259976999834,678.5952792000026,678.5952792000026,678.5952792000026,678.5952792000026,,old_fruit_24.png,245,3.0,0.7062223999528214,,,,,017,1,2024-11-19_16h05.33.163,Surprise recog test,2023.1.3,59.956315858583956,
245,0,245,0,,,,,,,,,,,,,,,,,,,,,,,,,,,,,,,,,,680.9473424999742,681.9776702000527,680.3259976999834,680.3259976999834,680.3259976999834,680.3259976999834,,old_fruit_50.png,246,3.0,0.6236499999649823,,,,,017,1,2024-11-19_16h05.33.163,Surprise recog test,2023.1.3,59.956315858583956,
246,0,246,0,,,,,,,,,,,,,,,,,,,,,,,,,,,,,,,,,,683.8611860000528,,681.9776702000527,681.9776702000527,681.9776702000527,681.9776702000527,,new_sceneIn_11.png,247,4.0,1.8838929999619722,,,,,017,1,2024-11-19_16h05.33.163,Surprise recog test,2023.1.3,59.956315858583956,
247,0,247,0,,,,,,,,,,,,,,,,,,,,,,,,,,,,,,,,,,685.6471452000551,,684.8799594000448,684.8799594000448,684.8799594000448,684.8799594000448,,old_sceneIn_45.png,248,4.0,0.7608565000118688,,,,,017,1,2024-11-19_16h05.33.163,Surprise recog test,2023.1.3,59.956315858583956,
248,0,248,0,,,,,,,,,,,,,,,,,,,,,,,,,,,,,,,,,,689.3549551999895,690.3831845000386,686.675641000038,686.675641000038,686.675641000038,686.675641000038,,new_sceneIn_15.png,249,4.0,2.675497299991548,,,,,017,1,2024-11-19_16h05.33.163,Surprise recog test,2023.1.3,59.956315858583956,
249,0,249,0,,,,,,,,,,,,,,,,,,,,,,,,,,,,,,,,,,691.3629011000739,692.3865157000255,690.3831845000386,690.3831845000386,690.3831845000386,690.3831845000386,,old_stationery_6.png,250,4.0,0.9810464000329375,,,,,017,1,2024-11-19_16h05.33.163,Surprise recog test,2023.1.3,59.956315858583956,
250,0,250,0,,,,,,,,,,,,,,,,,,,,,,,,,,,,,,,,,,694.3936399000231,695.4209841999691,692.3865157000255,692.3865157000255,692.3865157000255,692.3865157000255,,new_stationery_25.png,251,4.0,2.009389100014232,,,,,017,1,2024-11-19_16h05.33.163,Surprise recog test,2023.1.3,59.956315858583956,
251,0,251,0,,,,,,,,,,,,,,,,,,,,,,,,,,,,,,,,,,696.3864377000136,697.4142314000055,695.4209841999691,695.4209841999691,695.4209841999691,695.4209841999691,,new_sceneOut_21.png,252,4.0,0.9665997000411153,,,,,017,1,2024-11-19_16h05.33.163,Surprise recog test,2023.1.3,59.956315858583956,
252,0,252,0,,,,,,,,,,,,,,,,,,,,,,,,,,,,,,,,,,698.4053937999997,699.4254607000621,697.4142314000055,697.4142314000055,697.4142314000055,697.4142314000055,,old_sceneOut_40.png,253,4.0,0.9948552999412641,,,,,017,1,2024-11-19_16h05.33.163,Surprise recog test,2023.1.3,59.956315858583956,
253,0,253,0,,,,,,,,,,,,,,,,,,,,,,,,,,,,,,,,,,701.2642564000562,702.2977205000352,699.4254607000621,699.4254607000621,699.4254607000621,699.4254607000621,,old_stationery_37.png,254,4.0,1.8402494000038132,,,,,017,1,2024-11-19_16h05.33.163,Surprise recog test,2023.1.3,59.956315858583956,
254,0,254,0,,,,,,,,,,,,,,,,,,,,,,,,,,,,,,,,,,704.1615538999904,,702.2977205000352,702.2977205000352,702.2977205000352,702.2977205000352,,old_sceneOut_39.png,255,4.0,1.8674158999929205,,,,,017,1,2024-11-19_16h05.33.163,Surprise recog test,2023.1.3,59.956315858583956,
255,0,255,0,,,,,,,,,,,,,,,,,,,,,,,,,,,,,,,,,,705.9806223000633,,705.1964462000178,705.1964462000178,705.1964462000178,705.1964462000178,,new_stationery_44.png,256,4.0,0.7863093999912962,,,,,017,1,2024-11-19_16h05.33.163,Surprise recog test,2023.1.3,59.956315858583956,
256,0,256,0,,,,,,,,,,,,,,,,,,,,,,,,,,,,,,,,,,708.3126838000026,709.3202694000211,707.0164070000174,707.0164070000174,707.0164070000174,707.0164070000174,,new_sceneOut_27.png,257,4.0,1.2997839000308886,,,,,017,1,2024-11-19_16h05.33.163,Surprise recog test,2023.1.3,59.956315858583956,
257,0,257,0,,,,,,,,,,,,,,,,,,,,,,,,,,,,,,,,,,710.4943687000778,711.5189814000623,709.3202694000211,709.3202694000211,709.3202694000211,709.3202694000211,,old_sceneIn_6.png,258,4.0,1.1699953000061214,,,,,017,1,2024-11-19_16h05.33.163,Surprise recog test,2023.1.3,59.956315858583956,
258,0,258,0,,,,,,,,,,,,,,,,,,,,,,,,,,,,,,,,,,713.2927289999789,714.3048885000171,711.5189814000623,711.5189814000623,711.5189814000623,711.5189814000623,,old_fruit_37.png,259,3.0,1.7763312000315636,,,,,017,1,2024-11-19_16h05.33.163,Surprise recog test,2023.1.3,59.956315858583956,
259,0,259,0,,,,,,,,,,,,,,,,,,,,,,,,,,,,,,,,,,715.9500473000808,716.9736195000587,714.3048885000171,714.3048885000171,714.3048885000171,714.3048885000171,,new_stationery_49.png,260,4.0,1.6414104000432417,,,,,017,1,2024-11-19_16h05.33.163,Surprise recog test,2023.1.3,59.956315858583956,
260,0,260,0,,,,,,,,,,,,,,,,,,,,,,,,,,,,,,,,,,718.6285620999988,719.6467650000704,716.9736195000587,716.9736195000587,716.9736195000587,716.9736195000587,,new_sceneOut_29.png,261,4.0,1.6572749000042677,,,,,017,1,2024-11-19_16h05.33.163,Surprise recog test,2023.1.3,59.956315858583956,
261,0,261,0,,,,,,,,,,,,,,,,,,,,,,,,,,,,,,,,,,720.2175321000395,721.2425949000753,719.6467650000704,719.6467650000704,719.6467650000704,719.6467650000704,,old_sceneIn_9.png,262,4.0,0.5644102999940515,,,,,017,1,2024-11-19_16h05.33.163,Surprise recog test,2023.1.3,59.956315858583956,
262,0,262,0,,,,,,,,,,,,,,,,,,,,,,,,,,,,,,,,,,721.7128461999819,722.7444794999901,721.2425949000753,721.2425949000753,721.2425949000753,721.2425949000753,,old_sceneIn_40.png,263,4.0,0.47242249990813434,,,,,017,1,2024-11-19_16h05.33.163,Surprise recog test,2023.1.3,59.956315858583956,
263,0,263,0,,,,,,,,,,,,,,,,,,,,,,,,,,,,,,,,,,723.3839207000565,724.3994038000237,722.7444794999901,722.7444794999901,722.7444794999901,722.7444794999901,,new_sceneOut_5.png,264,4.0,0.6393534999806434,,,,,017,1,2024-11-19_16h05.33.163,Surprise recog test,2023.1.3,59.956315858583956,
264,0,264,0,,,,,,,,,,,,,,,,,,,,,,,,,,,,,,,,,,725.2297753000166,,724.3994038000237,724.3994038000237,724.3994038000237,724.3994038000237,,new_stationery_18.png,265,4.0,0.8275624999077991,,,,,017,1,2024-11-19_16h05.33.163,Surprise recog test,2023.1.3,59.956315858583956,
265,0,265,0,,,,,,,,,,,,,,,,,,,,,,,,,,,,,,,,,,727.8392487000674,728.8654545000754,726.2687628000276,726.2687628000276,726.2687628000276,726.2687628000276,,new_fruit_5.png,266,3.0,1.574840399902314,,,,,017,1,2024-11-19_16h05.33.163,Surprise recog test,2023.1.3,59.956315858583956,
266,0,266,0,,,,,,,,,,,,,,,,,,,,,,,,,,,,,,,,,,730.0878774999874,731.1196191000054,728.8654545000754,728.8654545000754,728.8654545000754,728.8654545000754,,old_fruit_3.png,267,3.0,1.2248731999425218,,,,,017,1,2024-11-19_16h05.33.163,Surprise recog test,2023.1.3,59.956315858583956,
267,0,267,0,,,,,,,,,,,,,,,,,,,,,,,,,,,,,,,,,,731.6503565000603,732.6703591999831,731.1196191000054,731.1196191000054,731.1196191000054,731.1196191000054,,old_fruit_44.png,268,3.0,0.5340195000171661,,,,,017,1,2024-11-19_16h05.33.163,Surprise recog test,2023.1.3,59.956315858583956,
268,0,268,0,,,,,,,,,,,,,,,,,,,,,,,,,,,,,,,,,,734.4426376000047,735.4701108000008,732.6703591999831,732.6703591999831,732.6703591999831,732.6703591999831,,old_stationery_41.png,269,4.0,1.7740444999653846,,,,,017,1,2024-11-19_16h05.33.163,Surprise recog test,2023.1.3,59.956315858583956,
269,0,269,0,,,,,,,,,,,,,,,,,,,,,,,,,,,,,,,,,,736.1253359999973,737.1561643000459,735.4701108000008,735.4701108000008,735.4701108000008,735.4701108000008,,new_sceneOut_49.png,270,4.0,0.6569356999825686,,,,,017,1,2024-11-19_16h05.33.163,Surprise recog test,2023.1.3,59.956315858583956,
270,0,270,0,,,,,,,,,,,,,,,,,,,,,,,,,,,,,,,,,,737.6453037000028,738.673533000052,737.1561643000459,737.1561643000459,737.1561643000459,737.1561643000459,,old_fruit_9.png,271,4.0,0.4921899000182748,,,,,017,1,2024-11-19_16h05.33.163,Surprise recog test,2023.1.3,59.956315858583956,
271,0,271,0,,,,,,,,,,,,,,,,,,,,,,,,,,,,,,,,,,739.3550578000722,740.3722416000674,738.673533000052,738.673533000052,738.673533000052,738.673533000052,,new_stationery_10.png,272,4.0,0.6801508000353351,,,,,017,1,2024-11-19_16h05.33.163,Surprise recog test,2023.1.3,59.956315858583956,
272,0,272,0,,,,,,,,,,,,,,,,,,,,,,,,,,,,,,,,,,741.8159874000121,742.8431622000644,740.3722416000674,740.3722416000674,740.3722416000674,740.3722416000674,,new_stationery_8.png,273,4.0,1.4442028999328613,,,,,017,1,2024-11-19_16h05.33.163,Surprise recog test,2023.1.3,59.956315858583956,
273,0,273,0,,,,,,,,,,,,,,,,,,,,,,,,,,,,,,,,,,743.8881164999912,744.9171774999704,742.8431622000644,742.8431622000644,742.8431622000644,742.8431622000644,,old_sceneIn_47.png,274,4.0,1.0487964999629185,,,,,017,1,2024-11-19_16h05.33.163,Surprise recog test,2023.1.3,59.956315858583956,
274,0,274,0,,,,,,,,,,,,,,,,,,,,,,,,,,,,,,,,,,745.8551081999904,746.8801334999735,744.9171774999704,744.9171774999704,744.9171774999704,744.9171774999704,,new_stationery_34.png,275,4.0,0.9433890999061987,,,,,017,1,2024-11-19_16h05.33.163,Surprise recog test,2023.1.3,59.956315858583956,
275,0,275,0,,,,,,,,,,,,,,,,,,,,,,,,,,,,,,,,,,747.6288979999954,748.6395967999706,746.8801334999735,746.8801334999735,746.8801334999735,746.8801334999735,,old_sceneOut_6.png,276,4.0,0.7505820000078529,,,,,017,1,2024-11-19_16h05.33.163,Surprise recog test,2023.1.3,59.956315858583956,
276,0,276,0,,,,,,,,,,,,,,,,,,,,,,,,,,,,,,,,,,749.3060122000752,750.3213916000677,748.6395967999706,748.6395967999706,748.6395967999706,748.6395967999706,,old_stationery_10.png,277,4.0,0.6636850000359118,,,,,017,1,2024-11-19_16h05.33.163,Surprise recog test,2023.1.3,59.956315858583956,
277,0,277,0,,,,,,,,,,,,,,,,,,,,,,,,,,,,,,,,,,750.9688979000784,,750.3213916000677,750.3213916000677,750.3213916000677,750.3213916000677,,new_sceneIn_10.png,278,4.0,0.6408995999954641,,,,,017,1,2024-11-19_16h05.33.163,Surprise recog test,2023.1.3,59.956315858583956,
278,0,278,0,,,,,,,,,,,,,,,,,,,,,,,,,,,,,,,,,,753.3108305999776,754.3382228000555,751.9963408000767,751.9963408000767,751.9963408000767,751.9963408000767,,old_fruit_22.png,279,3.0,1.3146489000646397,,,,,017,1,2024-11-19_16h05.33.163,Surprise recog test,2023.1.3,59.956315858583956,
279,0,279,0,,,,,,,,,,,,,,,,,,,,,,,,,,,,,,,,,,755.798218299984,756.8223214000463,754.3382228000555,754.3382228000555,754.3382228000555,754.3382228000555,,new_stationery_17.png,280,4.0,1.4625088000902906,,,,,017,1,2024-11-19_16h05.33.163,Surprise recog test,2023.1.3,59.956315858583956,
280,0,280,0,,,,,,,,,,,,,,,,,,,,,,,,,,,,,,,,,,757.8556582999881,,756.8223214000463,756.8223214000463,756.8223214000463,756.8223214000463,,old_stationery_9.png,281,3.0,1.0357777999015525,,,,,017,1,2024-11-19_16h05.33.163,Surprise recog test,2023.1.3,59.956315858583956,
281,0,281,0,,,,,,,,,,,,,,,,,,,,,,,,,,,,,,,,,,760.4117503999732,761.4442474000389,758.8786434000358,758.8786434000358,758.8786434000358,758.8786434000358,,new_fruit_43.png,282,4.0,1.5293485999573022,,,,,017,1,2024-11-19_16h05.33.163,Surprise recog test,2023.1.3,59.956315858583956,
282,0,282,0,,,,,,,,,,,,,,,,,,,,,,,,,,,,,,,,,,762.2339059000369,763.262024500058,761.4442474000389,761.4442474000389,761.4442474000389,761.4442474000389,,new_fruit_35.png,283,3.0,0.7921431000577286,,,,,017,1,2024-11-19_16h05.33.163,Surprise recog test,2023.1.3,59.956315858583956,
283,0,283,0,,,,,,,,,,,,,,,,,,,,,,,,,,,,,,,,,,763.9071056999965,764.9291842000093,763.262024500058,763.262024500058,763.262024500058,763.262024500058,,old_fruit_47.png,284,3.0,0.6470755999907851,,,,,017,1,2024-11-19_16h05.33.163,Surprise recog test,2023.1.3,59.956315858583956,
284,0,284,0,,,,,,,,,,,,,,,,,,,,,,,,,,,,,,,,,,766.069254299975,767.0974499000004,764.9291842000093,764.9291842000093,764.9291842000093,764.9291842000093,,old_stationery_24.png,285,4.0,1.140638399985619,,,,,017,1,2024-11-19_16h05.33.163,Surprise recog test,2023.1.3,59.956315858583956,
285,0,285,0,,,,,,,,,,,,,,,,,,,,,,,,,,,,,,,,,,768.3691423999844,769.3937532000709,767.0974499000004,767.0974499000004,767.0974499000004,767.0974499000004,,old_sceneOut_11.png,286,4.0,1.273755899979733,,,,,017,1,2024-11-19_16h05.33.163,Surprise recog test,2023.1.3,59.956315858583956,
286,0,286,0,,,,,,,,,,,,,,,,,,,,,,,,,,,,,,,,,,770.0905388999963,771.1181432000594,769.3937532000709,769.3937532000709,769.3937532000709,769.3937532000709,,new_sceneIn_4.png,287,4.0,0.6983106000116095,,,,,017,1,2024-11-19_16h05.33.163,Surprise recog test,2023.1.3,59.956315858583956,
287,0,287,0,,,,,,,,,,,,,,,,,,,,,,,,,,,,,,,,,,771.7477801999776,772.7541339000454,771.1181432000594,771.1181432000594,771.1181432000594,771.1181432000594,,old_sceneIn_15.png,288,4.0,0.630656799999997,,,,,017,1,2024-11-19_16h05.33.163,Surprise recog test,2023.1.3,59.956315858583956,
288,0,288,0,,,,,,,,,,,,,,,,,,,,,,,,,,,,,,,,,,773.2857154000085,,772.7541339000454,772.7541339000454,772.7541339000454,772.7541339000454,,new_sceneOut_13.png,289,4.0,0.5266247000545263,,,,,017,1,2024-11-19_16h05.33.163,Surprise recog test,2023.1.3,59.956315858583956,
289,0,289,0,,,,,,,,,,,,,,,,,,,,,,,,,,,,,,,,,,776.3675985999871,777.3892734000692,774.3150814999826,774.3150814999826,774.3150814999826,774.3150814999826,,new_fruit_19.png,290,2.0,2.0534518000204116,,,,,017,1,2024-11-19_16h05.33.163,Surprise recog test,2023.1.3,59.956315858583956,
290,0,290,0,,,,,,,,,,,,,,,,,,,,,,,,,,,,,,,,,,779.298355899984,780.3245472999988,777.3892734000692,777.3892734000692,777.3892734000692,777.3892734000692,,old_sceneOut_29.png,291,4.0,1.9121404000325128,,,,,017,1,2024-11-19_16h05.33.163,Surprise recog test,2023.1.3,59.956315858583956,
291,0,291,0,,,,,,,,,,,,,,,,,,,,,,,,,,,,,,,,,,781.1498683000682,782.1805641000392,780.3245472999988,780.3245472999988,780.3245472999988,780.3245472999988,,old_sceneOut_2.png,292,4.0,0.8256169999949634,,,,,017,1,2024-11-19_16h05.33.163,Surprise recog test,2023.1.3,59.956315858583956,
292,0,292,0,,,,,,,,,,,,,,,,,,,,,,,,,,,,,,,,,,783.2589981000638,784.2816424000775,782.1805641000392,782.1805641000392,782.1805641000392,782.1805641000392,,new_sceneIn_2.png,293,4.0,1.082116900011897,,,,,017,1,2024-11-19_16h05.33.163,Surprise recog test,2023.1.3,59.956315858583956,
293,0,293,0,,,,,,,,,,,,,,,,,,,,,,,,,,,,,,,,,,785.5688558000838,786.5855495000724,784.2816424000775,784.2816424000775,784.2816424000775,784.2816424000775,,new_fruit_18.png,294,3.0,1.2899317999836057,,,,,017,1,2024-11-19_16h05.33.163,Surprise recog test,2023.1.3,59.956315858583956,
294,0,294,0,,,,,,,,,,,,,,,,,,,,,,,,,,,,,,,,,,787.2228477000026,788.2448026000056,786.5855495000724,786.5855495000724,786.5855495000724,786.5855495000724,,new_fruit_23.png,295,3.0,0.6334815999725834,,,,,017,1,2024-11-19_16h05.33.163,Surprise recog test,2023.1.3,59.956315858583956,
295,0,295,0,,,,,,,,,,,,,,,,,,,,,,,,,,,,,,,,,,789.4742114000255,790.488455499988,788.2448026000056,788.2448026000056,788.2448026000056,788.2448026000056,,old_stationery_31.png,296,4.0,1.2311044000089169,,,,,017,1,2024-11-19_16h05.33.163,Surprise recog test,2023.1.3,59.956315858583956,
296,0,296,0,,,,,,,,,,,,,,,,,,,,,,,,,,,,,,,,,,791.3333316000644,792.3539601999801,790.488455499988,790.488455499988,790.488455499988,790.488455499988,,new_sceneOut_2.png,297,3.0,0.8403767000418156,,,,,017,1,2024-11-19_16h05.33.163,Surprise recog test,2023.1.3,59.956315858583956,
297,0,297,0,,,,,,,,,,,,,,,,,,,,,,,,,,,,,,,,,,793.5169620000524,794.5365851999959,792.3539601999801,792.3539601999801,792.3539601999801,792.3539601999801,,old_stationery_17.png,298,4.0,1.1661638000514358,,,,,017,1,2024-11-19_16h05.33.163,Surprise recog test,2023.1.3,59.956315858583956,
298,0,298,0,,,,,,,,,,,,,,,,,,,,,,,,,,,,,,,,,,795.2889353000792,,794.5365851999959,794.5365851999959,794.5365851999959,794.5365851999959,,new_sceneIn_42.png,299,4.0,0.7522521000355482,,,,,017,1,2024-11-19_16h05.33.163,Surprise recog test,2023.1.3,59.956315858583956,
299,0,299,0,,,,,,,,,,,,,,,,,,,,,,,,,,,,,,,,,,797.6872018000577,798.7064176000422,796.3173256000737,796.3173256000737,796.3173256000737,796.3173256000737,,old_fruit_36.png,300,3.0,1.3710916999261826,,,,,017,1,2024-11-19_16h05.33.163,Surprise recog test,2023.1.3,59.956315858583956,
300,0,300,0,,,,,,,,,,,,,,,,,,,,,,,,,,,,,,,,,,800.3067955999868,801.3270015000599,798.7064176000422,798.7064176000422,798.7064176000422,798.7064176000422,,old_sceneIn_37.png,301,4.0,1.6024286000756547,,,,,017,1,2024-11-19_16h05.33.163,Surprise recog test,2023.1.3,59.956315858583956,
301,0,301,0,,,,,,,,,,,,,,,,,,,,,,,,,,,,,,,,,,802.6595918000676,,801.3270015000599,801.3270015000599,801.3270015000599,801.3270015000599,,old_fruit_42.png,302,3.0,1.3351953000528738,,,,,017,1,2024-11-19_16h05.33.163,Surprise recog test,2023.1.3,59.956315858583956,
302,0,302,0,,,,,,,,,,,,,,,,,,,,,,,,,,,,,,,,,,804.976683099987,805.9910634000553,803.6824954000767,803.6824954000767,803.6824954000767,803.6824954000767,,new_fruit_28.png,303,3.0,1.290985899977386,,,,,017,1,2024-11-19_16h05.33.163,Surprise recog test,2023.1.3,59.956315858583956,
303,0,303,0,,,,,,,,,,,,,,,,,,,,,,,,,,,,,,,,,,806.8494268000359,807.8810896000359,805.9910634000553,805.9910634000553,805.9910634000553,805.9910634000553,,old_sceneOut_36.png,304,4.0,0.8593379999510944,,,,,017,1,2024-11-19_16h05.33.163,Surprise recog test,2023.1.3,59.956315858583956,
304,0,304,0,,,,,,,,,,,,,,,,,,,,,,,,,,,,,,,,,,808.7027498000534,809.7264120000182,807.8810896000359,807.8810896000359,807.8810896000359,807.8810896000359,,new_sceneIn_8.png,305,4.0,0.8224878999171779,,,,,017,1,2024-11-19_16h05.33.163,Surprise recog test,2023.1.3,59.956315858583956,
305,0,305,0,,,,,,,,,,,,,,,,,,,,,,,,,,,,,,,,,,810.2981611000141,811.3205439000158,809.7264120000182,809.7264120000182,809.7264120000182,809.7264120000182,,new_sceneIn_16.png,306,4.0,0.5656368000200018,,,,,017,1,2024-11-19_16h05.33.163,Surprise recog test,2023.1.3,59.956315858583956,
306,0,306,0,,,,,,,,,,,,,,,,,,,,,,,,,,,,,,,,,,812.1215662000468,813.1408951000776,811.3205439000158,811.3205439000158,811.3205439000158,811.3205439000158,,old_sceneOut_19.png,307,4.0,0.8043783000903204,,,,,017,1,2024-11-19_16h05.33.163,Surprise recog test,2023.1.3,59.956315858583956,
307,0,307,0,,,,,,,,,,,,,,,,,,,,,,,,,,,,,,,,,,813.8788415000308,814.9036135000642,813.1408951000776,813.1408951000776,813.1408951000776,813.1408951000776,,old_stationery_34.png,308,4.0,0.7337798000080511,,,,,017,1,2024-11-19_16h05.33.163,Surprise recog test,2023.1.3,59.956315858583956,
308,0,308,0,,,,,,,,,,,,,,,,,,,,,,,,,,,,,,,,,,816.7435486000031,817.762196799973,814.9036135000642,814.9036135000642,814.9036135000642,814.9036135000642,,new_fruit_17.png,309,2.0,1.8408789000241086,,,,,017,1,2024-11-19_16h05.33.163,Surprise recog test,2023.1.3,59.956315858583956,
309,0,309,0,,,,,,,,,,,,,,,,,,,,,,,,,,,,,,,,,,819.6730360999936,820.6928232000209,817.762196799973,817.762196799973,817.762196799973,817.762196799973,,new_sceneIn_7.png,310,4.0,1.9080224999925122,,,,,017,1,2024-11-19_16h05.33.163,Surprise recog test,2023.1.3,59.956315858583956,
310,0,310,0,,,,,,,,,,,,,,,,,,,,,,,,,,,,,,,,,,822.6137115000747,823.6452874999959,820.6928232000209,820.6928232000209,820.6928232000209,820.6928232000209,,old_stationery_50.png,311,3.0,1.9204196000937372,,,,,017,1,2024-11-19_16h05.33.163,Surprise recog test,2023.1.3,59.956315858583956,
311,0,311,0,,,,,,,,,,,,,,,,,,,,,,,,,,,,,,,,,,824.580008000019,,823.6452874999959,823.6452874999959,823.6452874999959,823.6452874999959,,new_fruit_41.png,312,3.0,0.9371513000223786,,,,,017,1,2024-11-19_16h05.33.163,Surprise recog test,2023.1.3,59.956315858583956,
312,0,312,0,,,,,,,,,,,,,,,,,,,,,,,,,,,,,,,,,,826.8324527000077,,825.6128910999978,825.6128910999978,825.6128910999978,825.6128910999978,,new_stationery_5.png,313,4.0,1.221581400022842,,,,,017,1,2024-11-19_16h05.33.163,Surprise recog test,2023.1.3,59.956315858583956,
313,0,313,0,,,,,,,,,,,,,,,,,,,,,,,,,,,,,,,,,,829.8138200000394,830.8221692000516,827.8641161000123,827.8641161000123,827.8641161000123,827.8641161000123,,new_sceneIn_24.png,314,4.0,1.9510300001129508,,,,,017,1,2024-11-19_16h05.33.163,Surprise recog test,2023.1.3,59.956315858583956,
314,0,314,0,,,,,,,,,,,,,,,,,,,,,,,,,,,,,,,,,,831.5764176000375,832.5974691000301,830.8221692000516,830.8221692000516,830.8221692000516,830.8221692000516,,new_sceneIn_47.png,315,4.0,0.7479791999794543,,,,,017,1,2024-11-19_16h05.33.163,Surprise recog test,2023.1.3,59.956315858583956,
315,0,315,0,,,,,,,,,,,,,,,,,,,,,,,,,,,,,,,,,,833.4229089000728,834.4522127000382,832.5974691000301,832.5974691000301,832.5974691000301,832.5974691000301,,new_sceneIn_31.png,316,4.0,0.8268469999311492,,,,,017,1,2024-11-19_16h05.33.163,Surprise recog test,2023.1.3,59.956315858583956,
316,0,316,0,,,,,,,,,,,,,,,,,,,,,,,,,,,,,,,,,,835.0749555000803,836.1044382000109,834.4522127000382,834.4522127000382,834.4522127000382,834.4522127000382,,new_sceneOut_30.png,317,4.0,0.6240473999641836,,,,,017,1,2024-11-19_16h05.33.163,Surprise recog test,2023.1.3,59.956315858583956,
317,0,317,0,,,,,,,,,,,,,,,,,,,,,,,,,,,,,,,,,,836.7280002000043,837.7575616000686,836.1044382000109,836.1044382000109,836.1044382000109,836.1044382000109,,old_sceneIn_20.png,318,4.0,0.6250867000781,,,,,017,1,2024-11-19_16h05.33.163,Surprise recog test,2023.1.3,59.956315858583956,
318,0,318,0,,,,,,,,,,,,,,,,,,,,,,,,,,,,,,,,,,838.3206243000459,839.3252249000361,837.7575616000686,837.7575616000686,837.7575616000686,837.7575616000686,,new_sceneOut_8.png,319,4.0,0.5641548000276089,,,,,017,1,2024-11-19_16h05.33.163,Surprise recog test,2023.1.3,59.956315858583956,
319,0,319,0,,,,,,,,,,,,,,,,,,,,,,,,,,,,,,,,,,839.8070028000511,840.8110517000314,839.3252249000361,839.3252249000361,839.3252249000361,839.3252249000361,,old_sceneOut_15.png,320,4.0,0.4743947999086231,,,,,017,1,2024-11-19_16h05.33.163,Surprise recog test,2023.1.3,59.956315858583956,
320,0,320,0,,,,,,,,,,,,,,,,,,,,,,,,,,,,,,,,,,841.3015376999974,842.3214236000786,840.8110517000314,840.8110517000314,840.8110517000314,840.8110517000314,,old_sceneIn_36.png,321,4.0,0.4848618999822065,,,,,017,1,2024-11-19_16h05.33.163,Surprise recog test,2023.1.3,59.956315858583956,
321,0,321,0,,,,,,,,,,,,,,,,,,,,,,,,,,,,,,,,,,842.7777700000443,,842.3214236000786,842.3214236000786,842.3214236000786,842.3214236000786,,new_sceneIn_22.png,322,4.0,0.4572427999228239,,,,,017,1,2024-11-19_16h05.33.163,Surprise recog test,2023.1.3,59.956315858583956,
322,0,322,0,,,,,,,,,,,,,,,,,,,,,,,,,,,,,,,,,,844.3022498000646,845.3153169000288,843.8131695999764,843.8131695999764,843.8131695999764,843.8131695999764,,old_fruit_46.png,323,4.0,0.48841399990487844,,,,,017,1,2024-11-19_16h05.33.163,Surprise recog test,2023.1.3,59.956315858583956,
323,0,323,0,,,,,,,,,,,,,,,,,,,,,,,,,,,,,,,,,,845.7512357999803,846.7796393000754,845.3153169000288,845.3153169000288,845.3153169000288,845.3153169000288,,new_sceneOut_3.png,324,4.0,0.4321717999409884,,,,,017,1,2024-11-19_16h05.33.163,Surprise recog test,2023.1.3,59.956315858583956,
324,0,324,0,,,,,,,,,,,,,,,,,,,,,,,,,,,,,,,,,,847.2735595999984,848.2857353000436,846.7796393000754,846.7796393000754,846.7796393000754,846.7796393000754,,old_stationery_22.png,325,4.0,0.49601670005358756,,,,,017,1,2024-11-19_16h05.33.163,Surprise recog test,2023.1.3,59.956315858583956,
325,0,325,0,,,,,,,,,,,,,,,,,,,,,,,,,,,,,,,,,,848.8881252000574,849.9158872000407,848.2857353000436,848.2857353000436,848.2857353000436,848.2857353000436,,old_stationery_36.png,326,4.0,0.5982096999650821,,,,,017,1,2024-11-19_16h05.33.163,Surprise recog test,2023.1.3,59.956315858583956,
326,0,326,0,,,,,,,,,,,,,,,,,,,,,,,,,,,,,,,,,,850.2784017000813,851.2857591999928,849.9158872000407,849.9158872000407,849.9158872000407,849.9158872000407,,old_stationery_19.png,327,4.0,0.36314240004867315,,,,,017,1,2024-11-19_16h05.33.163,Surprise recog test,2023.1.3,59.956315858583956,
327,0,327,0,,,,,,,,,,,,,,,,,,,,,,,,,,,,,,,,,,851.7149500000523,852.7350228000432,851.2857591999928,851.2857591999928,851.2857591999928,851.2857591999928,,new_stationery_16.png,328,4.0,0.4190257000736892,,,,,017,1,2024-11-19_16h05.33.163,Surprise recog test,2023.1.3,59.956315858583956,
328,0,328,0,,,,,,,,,,,,,,,,,,,,,,,,,,,,,,,,,,853.2685896999901,,852.7350228000432,852.7350228000432,852.7350228000432,852.7350228000432,,new_sceneOut_41.png,329,4.0,0.5351450999733061,,,,,017,1,2024-11-19_16h05.33.163,Surprise recog test,2023.1.3,59.956315858583956,
329,0,329,0,,,,,,,,,,,,,,,,,,,,,,,,,,,,,,,,,,854.8713109000819,,854.3005484000314,854.3005484000314,854.3005484000314,854.3005484000314,,new_fruit_31.png,330,4.0,0.5733528999844566,,,,,017,1,2024-11-19_16h05.33.163,Surprise recog test,2023.1.3,59.956315858583956,
330,0,330,0,,,,,,,,,,,,,,,,,,,,,,,,,,,,,,,,,,856.4815205000341,857.4937506000279,855.8891542999772,855.8891542999772,855.8891542999772,855.8891542999772,,old_sceneOut_37.png,331,4.0,0.5848732000449672,,,,,017,1,2024-11-19_16h05.33.163,Surprise recog test,2023.1.3,59.956315858583956,
331,0,331,0,,,,,,,,,,,,,,,,,,,,,,,,,,,,,,,,,,858.5231625000015,,857.4937506000279,857.4937506000279,857.4937506000279,857.4937506000279,,old_fruit_25.png,332,3.0,1.025194099987857,,,,,017,1,2024-11-19_16h05.33.163,Surprise recog test,2023.1.3,59.956315858583956,
332,0,332,0,,,,,,,,,,,,,,,,,,,,,,,,,,,,,,,,,,860.7195954000344,861.74306420004,859.5452768000541,859.5452768000541,859.5452768000541,859.5452768000541,,old_sceneOut_35.png,333,4.0,1.1694729999871925,,,,,017,1,2024-11-19_16h05.33.163,Surprise recog test,2023.1.3,59.956315858583956,
333,0,333,0,,,,,,,,,,,,,,,,,,,,,,,,,,,,,,,,,,862.7888242000481,863.8155212000711,861.74306420004,861.74306420004,861.74306420004,861.74306420004,,new_fruit_36.png,334,3.0,1.0473867999389768,,,,,017,1,2024-11-19_16h05.33.163,Surprise recog test,2023.1.3,59.956315858583956,
334,0,334,0,,,,,,,,,,,,,,,,,,,,,,,,,,,,,,,,,,865.1165615000064,866.1316739000613,863.8155212000711,863.8155212000711,863.8155212000711,863.8155212000711,,old_sceneIn_1.png,335,4.0,1.3050377999898046,,,,,017,1,2024-11-19_16h05.33.163,Surprise recog test,2023.1.3,59.956315858583956,
335,0,335,0,,,,,,,,,,,,,,,,,,,,,,,,,,,,,,,,,,867.4046269999817,868.4392950000474,866.1316739000613,866.1316739000613,866.1316739000613,866.1316739000613,,new_stationery_39.png,336,4.0,1.2696146999951452,,,,,017,1,2024-11-19_16h05.33.163,Surprise recog test,2023.1.3,59.956315858583956,
336,0,336,0,,,,,,,,,,,,,,,,,,,,,,,,,,,,,,,,,,869.0846902000485,870.1150913999882,868.4392950000474,868.4392950000474,868.4392950000474,868.4392950000474,,old_sceneIn_28.png,337,4.0,0.6502003000350669,,,,,017,1,2024-11-19_16h05.33.163,Surprise recog test,2023.1.3,59.956315858583956,
337,0,337,0,,,,,,,,,,,,,,,,,,,,,,,,,,,,,,,,,,870.7361426000716,871.7554858999792,870.1150913999882,870.1150913999882,870.1150913999882,870.1150913999882,,old_sceneOut_27.png,338,4.0,0.6231023999862373,,,,,017,1,2024-11-19_16h05.33.163,Surprise recog test,2023.1.3,59.956315858583956,
338,0,338,0,,,,,,,,,,,,,,,,,,,,,,,,,,,,,,,,,,872.4427694000769,873.4554955000058,871.7554858999792,871.7554858999792,871.7554858999792,871.7554858999792,,new_stationery_43.png,339,4.0,0.6791684000054374,,,,,017,1,2024-11-19_16h05.33.163,Surprise recog test,2023.1.3,59.956315858583956,
339,0,339,0,,,,,,,,,,,,,,,,,,,,,,,,,,,,,,,,,,874.1038055000827,,873.4554955000058,873.4554955000058,873.4554955000058,873.4554955000058,,old_sceneIn_29.png,340,4.0,0.6445689999964088,,,,,017,1,2024-11-19_16h05.33.163,Surprise recog test,2023.1.3,59.956315858583956,
340,0,340,0,,,,,,,,,,,,,,,,,,,,,,,,,,,,,,,,,,875.7865910000401,876.8002256000182,875.1395909000421,875.1395909000421,875.1395909000421,875.1395909000421,,new_sceneOut_18.png,341,4.0,0.649427100084722,,,,,017,1,2024-11-19_16h05.33.163,Surprise recog test,2023.1.3,59.956315858583956,
341,0,341,0,,,,,,,,,,,,,,,,,,,,,,,,,,,,,,,,,,877.298724799999,878.3224440000486,876.8002256000182,876.8002256000182,876.8002256000182,876.8002256000182,,new_sceneOut_42.png,342,4.0,0.5002843000693247,,,,,017,1,2024-11-19_16h05.33.163,Surprise recog test,2023.1.3,59.956315858583956,
342,0,342,0,,,,,,,,,,,,,,,,,,,,,,,,,,,,,,,,,,878.8505558000179,879.8761177000124,878.3224440000486,878.3224440000486,878.3224440000486,878.3224440000486,,new_sceneIn_14.png,343,4.0,0.5313052999554202,,,,,017,1,2024-11-19_16h05.33.163,Surprise recog test,2023.1.3,59.956315858583956,
343,0,343,0,,,,,,,,,,,,,,,,,,,,,,,,,,,,,,,,,,880.2647525999928,881.2893814999843,879.8761177000124,879.8761177000124,879.8761177000124,879.8761177000124,,old_stationery_39.png,344,4.0,0.3882970000850037,,,,,017,1,2024-11-19_16h05.33.163,Surprise recog test,2023.1.3,59.956315858583956,
344,0,344,0,,,,,,,,,,,,,,,,,,,,,,,,,,,,,,,,,,881.7025404999731,882.7275649000658,881.2893814999843,881.2893814999843,881.2893814999843,881.2893814999843,,old_sceneOut_10.png,345,4.0,0.41295130003709346,,,,,017,1,2024-11-19_16h05.33.163,Surprise recog test,2023.1.3,59.956315858583956,
345,0,345,0,,,,,,,,,,,,,,,,,,,,,,,,,,,,,,,,,,883.1207278000657,884.1452274000039,882.7275649000658,882.7275649000658,882.7275649000658,882.7275649000658,,new_sceneIn_25.png,346,4.0,0.39360919990576804,,,,,017,1,2024-11-19_16h05.33.163,Surprise recog test,2023.1.3,59.956315858583956,
346,0,346,0,,,,,,,,,,,,,,,,,,,,,,,,,,,,,,,,,,884.9344534999691,885.9641644000076,884.1452274000039,884.1452274000039,884.1452274000039,884.1452274000039,,old_stationery_26.png,347,4.0,0.7912408000556752,,,,,017,1,2024-11-19_16h05.33.163,Surprise recog test,2023.1.3,59.956315858583956,
347,0,347,0,,,,,,,,,,,,,,,,,,,,,,,,,,,,,,,,,,887.7985562999966,,885.9641644000076,885.9641644000076,885.9641644000076,885.9641644000076,,old_stationery_29.png,348,3.0,1.83748009998817,,,,,017,1,2024-11-19_16h05.33.163,Surprise recog test,2023.1.3,59.956315858583956,
348,0,348,0,,,,,,,,,,,,,,,,,,,,,,,,,,,,,,,,,,890.8225816000486,891.8412068000762,888.8302864000434,888.8302864000434,888.8302864000434,888.8302864000434,,old_sceneOut_30.png,349,4.0,1.9923273000167683,,,,,017,1,2024-11-19_16h05.33.163,Surprise recog test,2023.1.3,59.956315858583956,
