trial_loop.thisRepN,trial_loop.thisTrialN,trial_loop.thisN,trial_loop.thisIndex,VAS_slider.started,VAS_text.started,VAS_notstressed_text.started,VAS_stressed_text.started,continue_input.started,continue_text.started,label0.started,label10.started,label20.started,label30.started,label40.started,label50.started,label60.started,label70.started,label80.started,label90.started,label100.started,VAS_slider.response,VAS_slider.rt,VAS_slider.history,Answer_VAS,continue_input.keys,instruction_text.started,continue_text_2.started,continue_input_2.started,continue_input_2.keys,continue_input_2.rt,continue_input_2.duration,example_text.started,example_slider_2.started,example_image.started,example_slider_2.response,example_slider_2.rt,fixcross.started,fixcross.stopped,front_square.started,stim_images.started,trial_inst_images.started,slider_images.started,thisImg,trial_count,slider_images.response,slider_images.rt,slider_images.stopped,outro.started,participant,condition,date,expName,psychopyVersion,frameRate,
,,,,57.89501380000729,57.89501380000729,57.89501380000729,57.89501380000729,57.89501380000729,57.89501380000729,57.89501380000729,57.89501380000729,57.89501380000729,57.89501380000729,57.89501380000729,57.89501380000729,57.89501380000729,57.89501380000729,57.89501380000729,57.89501380000729,57.89501380000729,0.005555555555555314,4.664351599989459,"[(0.005555555555555314, 4.664351599989459)]",0.005555555555555314,None,,,,,,,,,,,,,,,,,,,,,,,,019,01,2024-11-27_16h08.48.217,Surprise recog test,2023.1.3,60.0056405172738,
,,,,,,,,,,,,,,,,,,,,,,,,,,62.5915379000362,62.5915379000362,62.5915379000362,space,12.142409299965948,None,,,,,,,,,,,,,,,,,,019,01,2024-11-27_16h08.48.217,Surprise recog test,2023.1.3,60.0056405172738,
0,0,0,0,,,,,,,,,,,,,,,,,,,,,,,,,,,,,74.87946289998945,74.87946289998945,74.87946289998945,3.0,15.639428699971177,94.13354850001633,91.46706950000953,91.46706950000953,91.46706950000953,91.46706950000953,91.46706950000953,new_sceneIn_13.png,1,5.0,2.67056490003597,,,019,01,2024-11-27_16h08.48.217,Surprise recog test,2023.1.3,60.0056405172738,
1,0,1,0,,,,,,,,,,,,,,,,,,,,,,,,,,,,,,,,,,97.01736330008134,98.03568219998851,95.15796240000054,95.15796240000054,95.15796240000054,95.15796240000054,new_sceneOut_4.png,2,5.0,1.8549928999273106,,,019,01,2024-11-27_16h08.48.217,Surprise recog test,2023.1.3,60.0056405172738,
2,0,2,0,,,,,,,,,,,,,,,,,,,,,,,,,,,,,,,,,,99.38844440004323,,98.03568219998851,98.03568219998851,98.03568219998851,98.03568219998851,new_stationery_6.png,3,5.0,1.3538515000836924,,,019,01,2024-11-27_16h08.48.217,Surprise recog test,2023.1.3,60.0056405172738,
3,0,3,0,,,,,,,,,,,,,,,,,,,,,,,,,,,,,,,,,,102.14463530003559,103.174056100077,100.4146832000697,100.4146832000697,100.4146832000697,100.4146832000697,old_fruit_40.png,4,1.0,1.7304686999414116,,,019,01,2024-11-27_16h08.48.217,Surprise recog test,2023.1.3,60.0056405172738,
4,0,4,0,,,,,,,,,,,,,,,,,,,,,,,,,,,,,,,,,,105.88982739998028,106.91280619997997,103.174056100077,103.174056100077,103.174056100077,103.174056100077,old_fruit_49.png,5,3.0,2.711132299969904,,,019,01,2024-11-27_16h08.48.217,Surprise recog test,2023.1.3,60.0056405172738,
5,0,5,0,,,,,,,,,,,,,,,,,,,,,,,,,,,,,,,,,,108.76771030004602,109.78399680007715,106.91280619997997,106.91280619997997,106.91280619997997,106.91280619997997,new_fruit_8.png,6,1.0,1.8580845000687987,,,019,01,2024-11-27_16h08.48.217,Surprise recog test,2023.1.3,60.0056405172738,
6,0,6,0,,,,,,,,,,,,,,,,,,,,,,,,,,,,,,,,,,111.85733380005695,112.86991200002376,109.78399680007715,109.78399680007715,109.78399680007715,109.78399680007715,new_sceneOut_34.png,7,2.0,2.068218700005673,,,019,01,2024-11-27_16h08.48.217,Surprise recog test,2023.1.3,60.0056405172738,
7,0,7,0,,,,,,,,,,,,,,,,,,,,,,,,,,,,,,,,,,114.33182429999579,115.3428719000658,112.86991200002376,112.86991200002376,112.86991200002376,112.86991200002376,old_fruit_35.png,8,3.0,1.459193199989386,,,019,01,2024-11-27_16h08.48.217,Surprise recog test,2023.1.3,60.0056405172738,
8,0,8,0,,,,,,,,,,,,,,,,,,,,,,,,,,,,,,,,,,117.49464290007018,118.50921940000262,115.3428719000658,115.3428719000658,115.3428719000658,115.3428719000658,old_sceneIn_18.png,9,3.0,2.1498878999846056,,,019,01,2024-11-27_16h08.48.217,Surprise recog test,2023.1.3,60.0056405172738,
9,0,9,0,,,,,,,,,,,,,,,,,,,,,,,,,,,,,,,,,,120.18670660001226,121.2015385000268,118.50921940000262,118.50921940000262,118.50921940000262,118.50921940000262,old_stationery_41.png,10,1.0,1.6692024999065325,,,019,01,2024-11-27_16h08.48.217,Surprise recog test,2023.1.3,60.0056405172738,
10,0,10,0,,,,,,,,,,,,,,,,,,,,,,,,,,,,,,,,,,123.33231850003358,124.35223910002969,121.2015385000268,121.2015385000268,121.2015385000268,121.2015385000268,old_fruit_4.png,11,3.0,2.13157670001965,,,019,01,2024-11-27_16h08.48.217,Surprise recog test,2023.1.3,60.0056405172738,
11,0,11,0,,,,,,,,,,,,,,,,,,,,,,,,,,,,,,,,,,125.81042860005982,,124.35223910002969,124.35223910002969,124.35223910002969,124.35223910002969,old_sceneOut_10.png,12,3.0,1.4583657999755815,,,019,01,2024-11-27_16h08.48.217,Surprise recog test,2023.1.3,60.0056405172738,
12,0,12,0,,,,,,,,,,,,,,,,,,,,,,,,,,,,,,,,,,128.8238353000488,129.8433596000541,126.83044080005493,126.83044080005493,126.83044080005493,126.83044080005493,old_sceneIn_37.png,13,4.0,1.988476900034584,,,019,01,2024-11-27_16h08.48.217,Surprise recog test,2023.1.3,60.0056405172738,
13,0,13,0,,,,,,,,,,,,,,,,,,,,,,,,,,,,,,,,,,131.0774954999797,132.09719490003772,129.8433596000541,129.8433596000541,129.8433596000541,129.8433596000541,old_sceneOut_9.png,14,4.0,1.2311733000678942,,,019,01,2024-11-27_16h08.48.217,Surprise recog test,2023.1.3,60.0056405172738,
14,0,14,0,,,,,,,,,,,,,,,,,,,,,,,,,,,,,,,,,,134.18511199997738,135.2188892000122,132.09719490003772,132.09719490003772,132.09719490003772,132.09719490003772,old_sceneIn_34.png,15,3.0,2.089896999998018,,,019,01,2024-11-27_16h08.48.217,Surprise recog test,2023.1.3,60.0056405172738,
15,0,15,0,,,,,,,,,,,,,,,,,,,,,,,,,,,,,,,,,,137.39602169999853,138.405111100059,135.2188892000122,135.2188892000122,135.2188892000122,135.2188892000122,new_stationery_47.png,16,4.0,2.1777952999109402,,,019,01,2024-11-27_16h08.48.217,Surprise recog test,2023.1.3,60.0056405172738,
16,0,16,0,,,,,,,,,,,,,,,,,,,,,,,,,,,,,,,,,,140.06597710005008,141.09696590004023,138.405111100059,138.405111100059,138.405111100059,138.405111100059,new_fruit_49.png,17,3.0,1.657504600007087,,,019,01,2024-11-27_16h08.48.217,Surprise recog test,2023.1.3,60.0056405172738,
17,0,17,0,,,,,,,,,,,,,,,,,,,,,,,,,,,,,,,,,,142.9280014000833,143.96185930003412,141.09696590004023,141.09696590004023,141.09696590004023,141.09696590004023,old_sceneOut_50.png,18,2.0,1.833649400039576,,,019,01,2024-11-27_16h08.48.217,Surprise recog test,2023.1.3,60.0056405172738,
18,0,18,0,,,,,,,,,,,,,,,,,,,,,,,,,,,,,,,,,,145.89026240003295,146.91420100000687,143.96185930003412,143.96185930003412,143.96185930003412,143.96185930003412,new_stationery_37.png,19,5.0,1.9321405000519007,,,019,01,2024-11-27_16h08.48.217,Surprise recog test,2023.1.3,60.0056405172738,
19,0,19,0,,,,,,,,,,,,,,,,,,,,,,,,,,,,,,,,,,151.9168432999868,,146.91420100000687,146.91420100000687,146.91420100000687,146.91420100000687,new_sceneOut_37.png,20,None,None,151.88312550005503,,019,01,2024-11-27_16h08.48.217,Surprise recog test,2023.1.3,60.0056405172738,
20,0,20,0,,,,,,,,,,,,,,,,,,,,,,,,,,,,,,,,,,155.0522256999975,156.0876666000113,152.91854420001619,152.91854420001619,152.91854420001619,152.91854420001619,old_stationery_45.png,21,1.0,2.12709329999052,,,019,01,2024-11-27_16h08.48.217,Surprise recog test,2023.1.3,60.0056405172738,
21,0,21,0,,,,,,,,,,,,,,,,,,,,,,,,,,,,,,,,,,158.135228500003,,156.0876666000113,156.0876666000113,156.0876666000113,156.0876666000113,new_fruit_12.png,22,2.0,2.0498413000022992,,,019,01,2024-11-27_16h08.48.217,Surprise recog test,2023.1.3,60.0056405172738,
22,0,22,0,,,,,,,,,,,,,,,,,,,,,,,,,,,,,,,,,,160.78550290002022,161.79350370005704,159.15685590007342,159.15685590007342,159.15685590007342,159.15685590007342,old_fruit_38.png,23,3.0,1.6235635000048205,,,019,01,2024-11-27_16h08.48.217,Surprise recog test,2023.1.3,60.0056405172738,
23,0,23,0,,,,,,,,,,,,,,,,,,,,,,,,,,,,,,,,,,163.61545130005106,164.64290820003953,161.79350370005704,161.79350370005704,161.79350370005704,161.79350370005704,new_fruit_19.png,24,2.0,1.8171822000294924,,,019,01,2024-11-27_16h08.48.217,Surprise recog test,2023.1.3,60.0056405172738,
24,0,24,0,,,,,,,,,,,,,,,,,,,,,,,,,,,,,,,,,,166.03404320008121,167.05430259997956,164.64290820003953,164.64290820003953,164.64290820003953,164.64290820003953,old_fruit_21.png,25,1.0,1.392543000052683,,,019,01,2024-11-27_16h08.48.217,Surprise recog test,2023.1.3,60.0056405172738,
25,0,25,0,,,,,,,,,,,,,,,,,,,,,,,,,,,,,,,,,,168.7022143000504,169.7282065000618,167.05430259997956,167.05430259997956,167.05430259997956,167.05430259997956,old_fruit_9.png,26,3.0,1.6463540999684483,,,019,01,2024-11-27_16h08.48.217,Surprise recog test,2023.1.3,60.0056405172738,
26,0,26,0,,,,,,,,,,,,,,,,,,,,,,,,,,,,,,,,,,171.55534680001438,172.57750580005813,169.7282065000618,169.7282065000618,169.7282065000618,169.7282065000618,new_sceneIn_1.png,27,5.0,1.8294794000685215,,,019,01,2024-11-27_16h08.48.217,Surprise recog test,2023.1.3,60.0056405172738,
27,0,27,0,,,,,,,,,,,,,,,,,,,,,,,,,,,,,,,,,,174.7729916999815,175.79198179999366,172.57750580005813,172.57750580005813,172.57750580005813,172.57750580005813,new_sceneIn_12.png,28,3.0,2.197218899964355,,,019,01,2024-11-27_16h08.48.217,Surprise recog test,2023.1.3,60.0056405172738,
28,0,28,0,,,,,,,,,,,,,,,,,,,,,,,,,,,,,,,,,,177.1322102000704,178.14351449999958,175.79198179999366,175.79198179999366,175.79198179999366,175.79198179999366,old_fruit_18.png,29,1.0,1.3352556000463665,,,019,01,2024-11-27_16h08.48.217,Surprise recog test,2023.1.3,60.0056405172738,
29,0,29,0,,,,,,,,,,,,,,,,,,,,,,,,,,,,,,,,,,179.80172840005253,180.81696309999097,178.14351449999958,178.14351449999958,178.14351449999958,178.14351449999958,new_sceneOut_3.png,30,3.0,1.6556319000665098,,,019,01,2024-11-27_16h08.48.217,Surprise recog test,2023.1.3,60.0056405172738,
30,0,30,0,,,,,,,,,,,,,,,,,,,,,,,,,,,,,,,,,,182.31162230006885,183.3375315000303,180.81696309999097,180.81696309999097,180.81696309999097,180.81696309999097,new_fruit_5.png,31,2.0,1.4968479999806732,,,019,01,2024-11-27_16h08.48.217,Surprise recog test,2023.1.3,60.0056405172738,
31,0,31,0,,,,,,,,,,,,,,,,,,,,,,,,,,,,,,,,,,185.1473682000069,186.16425570007414,183.3375315000303,183.3375315000303,183.3375315000303,183.3375315000303,old_fruit_44.png,32,1.0,1.8091703000245616,,,019,01,2024-11-27_16h08.48.217,Surprise recog test,2023.1.3,60.0056405172738,
32,0,32,0,,,,,,,,,,,,,,,,,,,,,,,,,,,,,,,,,,187.6594321000157,188.67719379998744,186.16425570007414,186.16425570007414,186.16425570007414,186.16425570007414,new_fruit_39.png,33,1.0,1.4897743000183254,,,019,01,2024-11-27_16h08.48.217,Surprise recog test,2023.1.3,60.0056405172738,
33,0,33,0,,,,,,,,,,,,,,,,,,,,,,,,,,,,,,,,,,190.20012469997164,191.21425379998982,188.67719379998744,188.67719379998744,188.67719379998744,188.67719379998744,new_sceneOut_25.png,34,4.0,1.5215886000078171,,,019,01,2024-11-27_16h08.48.217,Surprise recog test,2023.1.3,60.0056405172738,
34,0,34,0,,,,,,,,,,,,,,,,,,,,,,,,,,,,,,,,,,192.6952419000445,193.7187914000824,191.21425379998982,191.21425379998982,191.21425379998982,191.21425379998982,new_sceneOut_8.png,35,4.0,1.474367200047709,,,019,01,2024-11-27_16h08.48.217,Surprise recog test,2023.1.3,60.0056405172738,
35,0,35,0,,,,,,,,,,,,,,,,,,,,,,,,,,,,,,,,,,196.0396325000329,197.06334380002227,193.7187914000824,193.7187914000824,193.7187914000824,193.7187914000824,old_sceneIn_35.png,36,4.0,2.3221819000318646,,,019,01,2024-11-27_16h08.48.217,Surprise recog test,2023.1.3,60.0056405172738,
36,0,36,0,,,,,,,,,,,,,,,,,,,,,,,,,,,,,,,,,,199.46124860004056,200.47693440003786,197.06334380002227,197.06334380002227,197.06334380002227,197.06334380002227,new_sceneIn_5.png,37,4.0,2.3956989999860525,,,019,01,2024-11-27_16h08.48.217,Surprise recog test,2023.1.3,60.0056405172738,
37,0,37,0,,,,,,,,,,,,,,,,,,,,,,,,,,,,,,,,,,201.6096741000656,202.6274728999706,200.47693440003786,200.47693440003786,200.47693440003786,200.47693440003786,new_sceneIn_33.png,38,4.0,1.128306100028567,,,019,01,2024-11-27_16h08.48.217,Surprise recog test,2023.1.3,60.0056405172738,
38,0,38,0,,,,,,,,,,,,,,,,,,,,,,,,,,,,,,,,,,203.7193521000445,204.73679840005934,202.6274728999706,202.6274728999706,202.6274728999706,202.6274728999706,new_sceneOut_12.png,39,4.0,1.0882918999996036,,,019,01,2024-11-27_16h08.48.217,Surprise recog test,2023.1.3,60.0056405172738,
39,0,39,0,,,,,,,,,,,,,,,,,,,,,,,,,,,,,,,,,,206.20314760005567,207.2257940999698,204.73679840005934,204.73679840005934,204.73679840005934,204.73679840005934,new_stationery_3.png,40,4.0,1.4616766999242827,,,019,01,2024-11-27_16h08.48.217,Surprise recog test,2023.1.3,60.0056405172738,
40,0,40,0,,,,,,,,,,,,,,,,,,,,,,,,,,,,,,,,,,208.227545700036,,207.2257940999698,207.2257940999698,207.2257940999698,207.2257940999698,old_sceneOut_47.png,41,4.0,1.0006742000114173,,,019,01,2024-11-27_16h08.48.217,Surprise recog test,2023.1.3,60.0056405172738,
41,0,41,0,,,,,,,,,,,,,,,,,,,,,,,,,,,,,,,,,,210.5304604000412,,209.24754120002035,209.24754120002035,209.24754120002035,209.24754120002035,new_stationery_10.png,42,4.0,1.2757093999534845,,,019,01,2024-11-27_16h08.48.217,Surprise recog test,2023.1.3,60.0056405172738,
42,0,42,0,,,,,,,,,,,,,,,,,,,,,,,,,,,,,,,,,,213.88118710007984,214.90031890000682,211.56165340007283,211.56165340007283,211.56165340007283,211.56165340007283,old_sceneIn_11.png,43,3.0,2.3198381001129746,,,019,01,2024-11-27_16h08.48.217,Surprise recog test,2023.1.3,60.0056405172738,
43,0,43,0,,,,,,,,,,,,,,,,,,,,,,,,,,,,,,,,,,216.65622850006912,217.68235590006225,214.90031890000682,214.90031890000682,214.90031890000682,214.90031890000682,old_fruit_31.png,44,4.0,1.757299599936232,,,019,01,2024-11-27_16h08.48.217,Surprise recog test,2023.1.3,60.0056405172738,
44,0,44,0,,,,,,,,,,,,,,,,,,,,,,,,,,,,,,,,,,218.9618635000661,219.98513070004992,217.68235590006225,217.68235590006225,217.68235590006225,217.68235590006225,new_sceneIn_22.png,45,4.0,1.2811372999567538,,,019,01,2024-11-27_16h08.48.217,Surprise recog test,2023.1.3,60.0056405172738,
45,0,45,0,,,,,,,,,,,,,,,,,,,,,,,,,,,,,,,,,,221.4998709000647,222.50729640002828,219.98513070004992,219.98513070004992,219.98513070004992,219.98513070004992,old_sceneIn_17.png,46,1.0,1.5139654000522569,,,019,01,2024-11-27_16h08.48.217,Surprise recog test,2023.1.3,60.0056405172738,
46,0,46,0,,,,,,,,,,,,,,,,,,,,,,,,,,,,,,,,,,224.6333780999994,225.65517360006925,222.50729640002828,222.50729640002828,222.50729640002828,222.50729640002828,new_stationery_49.png,47,4.0,2.122506399988197,,,019,01,2024-11-27_16h08.48.217,Surprise recog test,2023.1.3,60.0056405172738,
47,0,47,0,,,,,,,,,,,,,,,,,,,,,,,,,,,,,,,,,,227.07472390006296,228.08288190001622,225.65517360006925,225.65517360006925,225.65517360006925,225.65517360006925,new_fruit_46.png,48,3.0,1.4214321000035852,,,019,01,2024-11-27_16h08.48.217,Surprise recog test,2023.1.3,60.0056405172738,
48,0,48,0,,,,,,,,,,,,,,,,,,,,,,,,,,,,,,,,,,229.49224859999958,230.50833350000903,228.08288190001622,228.08288190001622,228.08288190001622,228.08288190001622,old_sceneOut_43.png,49,4.0,1.4029109999537468,,,019,01,2024-11-27_16h08.48.217,Surprise recog test,2023.1.3,60.0056405172738,
49,0,49,0,,,,,,,,,,,,,,,,,,,,,,,,,,,,,,,,,,232.0468349000439,,230.50833350000903,230.50833350000903,230.50833350000903,230.50833350000903,old_fruit_3.png,50,3.0,1.5399907000828534,,,019,01,2024-11-27_16h08.48.217,Surprise recog test,2023.1.3,60.0056405172738,
50,0,50,0,,,,,,,,,,,,,,,,,,,,,,,,,,,,,,,,,,234.48559970001224,235.51619950006716,233.07883640006185,233.07883640006185,233.07883640006185,233.07883640006185,new_fruit_9.png,51,2.0,1.4068851999472827,,,019,01,2024-11-27_16h08.48.217,Surprise recog test,2023.1.3,60.0056405172738,
51,0,51,0,,,,,,,,,,,,,,,,,,,,,,,,,,,,,,,,,,237.84674339997582,238.86560350004584,235.51619950006716,235.51619950006716,235.51619950006716,235.51619950006716,old_stationery_26.png,52,1.0,2.3315562999341637,,,019,01,2024-11-27_16h08.48.217,Surprise recog test,2023.1.3,60.0056405172738,
52,0,52,0,,,,,,,,,,,,,,,,,,,,,,,,,,,,,,,,,,240.66925709997304,241.6891833000118,238.86560350004584,238.86560350004584,238.86560350004584,238.86560350004584,new_sceneIn_35.png,53,5.0,1.8049553000601009,,,019,01,2024-11-27_16h08.48.217,Surprise recog test,2023.1.3,60.0056405172738,
53,0,53,0,,,,,,,,,,,,,,,,,,,,,,,,,,,,,,,,,,243.08235609997064,244.10485060000792,241.6891833000118,241.6891833000118,241.6891833000118,241.6891833000118,new_fruit_21.png,54,3.0,1.3956031000707299,,,019,01,2024-11-27_16h08.48.217,Surprise recog test,2023.1.3,60.0056405172738,
54,0,54,0,,,,,,,,,,,,,,,,,,,,,,,,,,,,,,,,,,245.91287270002067,246.9314334000228,244.10485060000792,244.10485060000792,244.10485060000792,244.10485060000792,new_sceneOut_45.png,55,4.0,1.8108744999626651,,,019,01,2024-11-27_16h08.48.217,Surprise recog test,2023.1.3,60.0056405172738,
55,0,55,0,,,,,,,,,,,,,,,,,,,,,,,,,,,,,,,,,,248.12907460005954,,246.9314334000228,246.9314334000228,246.9314334000228,246.9314334000228,old_sceneOut_16.png,56,5.0,1.1933737000217661,,,019,01,2024-11-27_16h08.48.217,Surprise recog test,2023.1.3,60.0056405172738,
56,0,56,0,,,,,,,,,,,,,,,,,,,,,,,,,,,,,,,,,,250.37693540006876,251.3958267000271,249.16046330006793,249.16046330006793,249.16046330006793,249.16046330006793,new_stationery_14.png,57,5.0,1.2178955000126734,,,019,01,2024-11-27_16h08.48.217,Surprise recog test,2023.1.3,60.0056405172738,
57,0,57,0,,,,,,,,,,,,,,,,,,,,,,,,,,,,,,,,,,253.71263660001568,254.7251116000116,251.3958267000271,251.3958267000271,251.3958267000271,251.3958267000271,old_stationery_23.png,58,1.0,2.3167202998884022,,,019,01,2024-11-27_16h08.48.217,Surprise recog test,2023.1.3,60.0056405172738,
58,0,58,0,,,,,,,,,,,,,,,,,,,,,,,,,,,,,,,,,,256.5849408999784,,254.7251116000116,254.7251116000116,254.7251116000116,254.7251116000116,new_sceneIn_39.png,59,4.0,1.8554914999986067,,,019,01,2024-11-27_16h08.48.217,Surprise recog test,2023.1.3,60.0056405172738,
59,0,59,0,,,,,,,,,,,,,,,,,,,,,,,,,,,,,,,,,,258.7346021999838,259.7430704999715,257.6055220999988,257.6055220999988,257.6055220999988,257.6055220999988,old_sceneIn_23.png,60,4.0,1.1236526999855414,,,019,01,2024-11-27_16h08.48.217,Surprise recog test,2023.1.3,60.0056405172738,
60,0,60,0,,,,,,,,,,,,,,,,,,,,,,,,,,,,,,,,,,260.62945070001297,261.6436799999792,259.7430704999715,259.7430704999715,259.7430704999715,259.7430704999715,new_sceneOut_29.png,61,4.0,0.8807171999942511,,,019,01,2024-11-27_16h08.48.217,Surprise recog test,2023.1.3,60.0056405172738,
61,0,61,0,,,,,,,,,,,,,,,,,,,,,,,,,,,,,,,,,,263.1091473000124,264.13741980004124,261.6436799999792,261.6436799999792,261.6436799999792,261.6436799999792,new_stationery_26.png,62,5.0,1.4617306001018733,,,019,01,2024-11-27_16h08.48.217,Surprise recog test,2023.1.3,60.0056405172738,
62,0,62,0,,,,,,,,,,,,,,,,,,,,,,,,,,,,,,,,,,265.34323480003513,,264.13741980004124,264.13741980004124,264.13741980004124,264.13741980004124,old_sceneOut_26.png,63,5.0,1.2042758000316098,,,019,01,2024-11-27_16h08.48.217,Surprise recog test,2023.1.3,60.0056405172738,
63,0,63,0,,,,,,,,,,,,,,,,,,,,,,,,,,,,,,,,,,267.94685830001254,268.9777994999895,266.3737662000349,266.3737662000349,266.3737662000349,266.3737662000349,old_stationery_15.png,64,1.0,1.5748663999838755,,,019,01,2024-11-27_16h08.48.217,Surprise recog test,2023.1.3,60.0056405172738,
64,0,64,0,,,,,,,,,,,,,,,,,,,,,,,,,,,,,,,,,,270.38287189998664,271.4112762999721,268.9777994999895,268.9777994999895,268.9777994999895,268.9777994999895,new_sceneIn_10.png,65,4.0,1.4054888000246137,,,019,01,2024-11-27_16h08.48.217,Surprise recog test,2023.1.3,60.0056405172738,
65,0,65,0,,,,,,,,,,,,,,,,,,,,,,,,,,,,,,,,,,272.4588717999868,273.48046730004717,271.4112762999721,271.4112762999721,271.4112762999721,271.4112762999721,old_sceneOut_8.png,66,4.0,1.0487448999192566,,,019,01,2024-11-27_16h08.48.217,Surprise recog test,2023.1.3,60.0056405172738,
66,0,66,0,,,,,,,,,,,,,,,,,,,,,,,,,,,,,,,,,,274.380773800076,275.3953022999922,273.48046730004717,273.48046730004717,273.48046730004717,273.48046730004717,new_sceneIn_34.png,67,4.0,0.8992485000053421,,,019,01,2024-11-27_16h08.48.217,Surprise recog test,2023.1.3,60.0056405172738,
67,0,67,0,,,,,,,,,,,,,,,,,,,,,,,,,,,,,,,,,,276.5158115000231,277.5249373000115,275.3953022999922,275.3953022999922,275.3953022999922,275.3953022999922,old_sceneIn_29.png,68,4.0,1.1169244999764487,,,019,01,2024-11-27_16h08.48.217,Surprise recog test,2023.1.3,60.0056405172738,
68,0,68,0,,,,,,,,,,,,,,,,,,,,,,,,,,,,,,,,,,278.7140500000678,279.73380290006753,277.5249373000115,277.5249373000115,277.5249373000115,277.5249373000115,new_fruit_17.png,69,1.0,1.1865894000511616,,,019,01,2024-11-27_16h08.48.217,Surprise recog test,2023.1.3,60.0056405172738,
69,0,69,0,,,,,,,,,,,,,,,,,,,,,,,,,,,,,,,,,,281.34478010004386,282.3605343999807,279.73380290006753,279.73380290006753,279.73380290006753,279.73380290006753,old_fruit_6.png,70,2.0,1.611721400055103,,,019,01,2024-11-27_16h08.48.217,Surprise recog test,2023.1.3,60.0056405172738,
70,0,70,0,,,,,,,,,,,,,,,,,,,,,,,,,,,,,,,,,,284.33984050003346,,282.3605343999807,282.3605343999807,282.3605343999807,282.3605343999807,old_fruit_34.png,71,3.0,1.9753823999781162,,,019,01,2024-11-27_16h08.48.217,Surprise recog test,2023.1.3,60.0056405172738,
71,0,71,0,,,,,,,,,,,,,,,,,,,,,,,,,,,,,,,,,,286.7449763000477,287.7741383999819,285.3704024000326,285.3704024000326,285.3704024000326,285.3704024000326,new_sceneIn_42.png,72,5.0,1.3760581999085844,,,019,01,2024-11-27_16h08.48.217,Surprise recog test,2023.1.3,60.0056405172738,
72,0,72,0,,,,,,,,,,,,,,,,,,,,,,,,,,,,,,,,,,289.5030400999822,290.53062950004824,287.7741383999819,287.7741383999819,287.7741383999819,287.7741383999819,new_sceneIn_4.png,73,3.0,1.7303579999133945,,,019,01,2024-11-27_16h08.48.217,Surprise recog test,2023.1.3,60.0056405172738,
73,0,73,0,,,,,,,,,,,,,,,,,,,,,,,,,,,,,,,,,,291.87344880006276,292.88563789997716,290.53062950004824,290.53062950004824,290.53062950004824,290.53062950004824,new_sceneOut_42.png,74,5.0,1.3418699000030756,,,019,01,2024-11-27_16h08.48.217,Surprise recog test,2023.1.3,60.0056405172738,
74,0,74,0,,,,,,,,,,,,,,,,,,,,,,,,,,,,,,,,,,295.63038370001595,296.6349798999727,292.88563789997716,292.88563789997716,292.88563789997716,292.88563789997716,new_stationery_23.png,75,3.0,2.7353960999753326,,,019,01,2024-11-27_16h08.48.217,Surprise recog test,2023.1.3,60.0056405172738,
75,0,75,0,,,,,,,,,,,,,,,,,,,,,,,,,,,,,,,,,,298.1447934000753,299.1729906999972,296.6349798999727,296.6349798999727,296.6349798999727,296.6349798999727,new_stationery_17.png,76,4.0,1.5033449999755248,,,019,01,2024-11-27_16h08.48.217,Surprise recog test,2023.1.3,60.0056405172738,
76,0,76,0,,,,,,,,,,,,,,,,,,,,,,,,,,,,,,,,,,300.3305747000268,301.35389710008167,299.1729906999972,299.1729906999972,299.1729906999972,299.1729906999972,new_sceneOut_31.png,77,4.0,1.1572324000298977,,,019,01,2024-11-27_16h08.48.217,Surprise recog test,2023.1.3,60.0056405172738,
77,0,77,0,,,,,,,,,,,,,,,,,,,,,,,,,,,,,,,,,,303.20870040007867,304.2420370000182,301.35389710008167,301.35389710008167,301.35389710008167,301.35389710008167,old_sceneIn_7.png,78,4.0,1.8537224000319839,,,019,01,2024-11-27_16h08.48.217,Surprise recog test,2023.1.3,60.0056405172738,
78,0,78,0,,,,,,,,,,,,,,,,,,,,,,,,,,,,,,,,,,305.75235740002245,306.7636572000338,304.2420370000182,304.2420370000182,304.2420370000182,304.2420370000182,new_fruit_37.png,79,1.0,1.5078605000162497,,,019,01,2024-11-27_16h08.48.217,Surprise recog test,2023.1.3,60.0056405172738,
79,0,79,0,,,,,,,,,,,,,,,,,,,,,,,,,,,,,,,,,,308.30754910001997,309.31538290006574,306.7636572000338,306.7636572000338,306.7636572000338,306.7636572000338,new_sceneIn_2.png,80,5.0,1.5375994000351056,,,019,01,2024-11-27_16h08.48.217,Surprise recog test,2023.1.3,60.0056405172738,
80,0,80,0,,,,,,,,,,,,,,,,,,,,,,,,,,,,,,,,,,311.34763850003947,312.36557939997874,309.31538290006574,309.31538290006574,309.31538290006574,309.31538290006574,new_stationery_13.png,81,3.0,2.0252760000294074,,,019,01,2024-11-27_16h08.48.217,Surprise recog test,2023.1.3,60.0056405172738,
81,0,81,0,,,,,,,,,,,,,,,,,,,,,,,,,,,,,,,,,,313.7470979000209,314.75574000005145,312.36557939997874,312.36557939997874,312.36557939997874,312.36557939997874,old_sceneOut_41.png,82,5.0,1.378404000075534,,,019,01,2024-11-27_16h08.48.217,Surprise recog test,2023.1.3,60.0056405172738,
82,0,82,0,,,,,,,,,,,,,,,,,,,,,,,,,,,,,,,,,,315.7908721000422,316.8168758000247,314.75574000005145,314.75574000005145,314.75574000005145,314.75574000005145,old_sceneOut_33.png,83,5.0,1.0310624999692664,,,019,01,2024-11-27_16h08.48.217,Surprise recog test,2023.1.3,60.0056405172738,
83,0,83,0,,,,,,,,,,,,,,,,,,,,,,,,,,,,,,,,,,318.382125300006,319.40622010000516,316.8168758000247,316.8168758000247,316.8168758000247,316.8168758000247,old_stationery_35.png,84,1.0,1.567770199966617,,,019,01,2024-11-27_16h08.48.217,Surprise recog test,2023.1.3,60.0056405172738,
84,0,84,0,,,,,,,,,,,,,,,,,,,,,,,,,,,,,,,,,,320.7118464000523,321.7401975999819,319.40622010000516,319.40622010000516,319.40622010000516,319.40622010000516,new_sceneOut_19.png,85,4.0,1.3077088999561965,,,019,01,2024-11-27_16h08.48.217,Surprise recog test,2023.1.3,60.0056405172738,
85,0,85,0,,,,,,,,,,,,,,,,,,,,,,,,,,,,,,,,,,323.0533652000595,324.0735461000586,321.7401975999819,321.7401975999819,321.7401975999819,321.7401975999819,old_stationery_25.png,86,4.0,1.3132246000459418,,,019,01,2024-11-27_16h08.48.217,Surprise recog test,2023.1.3,60.0056405172738,
86,0,86,0,,,,,,,,,,,,,,,,,,,,,,,,,,,,,,,,,,325.4991392000811,326.51416080002673,324.0735461000586,324.0735461000586,324.0735461000586,324.0735461000586,old_fruit_37.png,87,3.0,1.4281539000803605,,,019,01,2024-11-27_16h08.48.217,Surprise recog test,2023.1.3,60.0056405172738,
87,0,87,0,,,,,,,,,,,,,,,,,,,,,,,,,,,,,,,,,,328.68689400004223,329.7101681000786,326.51416080002673,326.51416080002673,326.51416080002673,326.51416080002673,old_stationery_24.png,88,4.0,2.1657210999401286,,,019,01,2024-11-27_16h08.48.217,Surprise recog test,2023.1.3,60.0056405172738,
88,0,88,0,,,,,,,,,,,,,,,,,,,,,,,,,,,,,,,,,,330.75165940006264,331.7783223000588,329.7101681000786,329.7101681000786,329.7101681000786,329.7101681000786,old_sceneOut_15.png,89,5.0,1.0438891999656335,,,019,01,2024-11-27_16h08.48.217,Surprise recog test,2023.1.3,60.0056405172738,
89,0,89,0,,,,,,,,,,,,,,,,,,,,,,,,,,,,,,,,,,333.82205620000605,334.84794960008,331.7783223000588,331.7783223000588,331.7783223000588,331.7783223000588,new_sceneIn_21.png,90,4.0,2.043523299973458,,,019,01,2024-11-27_16h08.48.217,Surprise recog test,2023.1.3,60.0056405172738,
90,0,90,0,,,,,,,,,,,,,,,,,,,,,,,,,,,,,,,,,,336.3530329000205,337.37225919996854,334.84794960008,334.84794960008,334.84794960008,334.84794960008,old_stationery_9.png,91,1.0,1.5066241000313312,,,019,01,2024-11-27_16h08.48.217,Surprise recog test,2023.1.3,60.0056405172738,
91,0,91,0,,,,,,,,,,,,,,,,,,,,,,,,,,,,,,,,,,338.97242150001694,340.00265829998534,337.37225919996854,337.37225919996854,337.37225919996854,337.37225919996854,old_sceneIn_32.png,92,2.0,1.5957053999882191,,,019,01,2024-11-27_16h08.48.217,Surprise recog test,2023.1.3,60.0056405172738,
92,0,92,0,,,,,,,,,,,,,,,,,,,,,,,,,,,,,,,,,,341.280260700034,342.29238420003094,340.00265829998534,340.00265829998534,340.00265829998534,340.00265829998534,old_fruit_15.png,93,1.0,1.2768060999223962,,,019,01,2024-11-27_16h08.48.217,Surprise recog test,2023.1.3,60.0056405172738,
93,0,93,0,,,,,,,,,,,,,,,,,,,,,,,,,,,,,,,,,,344.1294742000755,345.1605081000598,342.29238420003094,342.29238420003094,342.29238420003094,342.29238420003094,new_sceneIn_20.png,94,4.0,1.8302385000279173,,,019,01,2024-11-27_16h08.48.217,Surprise recog test,2023.1.3,60.0056405172738,
94,0,94,0,,,,,,,,,,,,,,,,,,,,,,,,,,,,,,,,,,346.6379126000684,347.6509239000734,345.1605081000598,345.1605081000598,345.1605081000598,345.1605081000598,new_sceneIn_49.png,95,4.0,1.4808625999139622,,,019,01,2024-11-27_16h08.48.217,Surprise recog test,2023.1.3,60.0056405172738,
95,0,95,0,,,,,,,,,,,,,,,,,,,,,,,,,,,,,,,,,,349.05493830004707,350.06507660006173,347.6509239000734,347.6509239000734,347.6509239000734,347.6509239000734,old_sceneIn_9.png,96,4.0,1.4039209999609739,,,019,01,2024-11-27_16h08.48.217,Surprise recog test,2023.1.3,60.0056405172738,
96,0,96,0,,,,,,,,,,,,,,,,,,,,,,,,,,,,,,,,,,351.2605279000709,352.2663487000391,350.06507660006173,350.06507660006173,350.06507660006173,350.06507660006173,old_fruit_11.png,97,1.0,1.1924253000179306,,,019,01,2024-11-27_16h08.48.217,Surprise recog test,2023.1.3,60.0056405172738,
97,0,97,0,,,,,,,,,,,,,,,,,,,,,,,,,,,,,,,,,,353.7966789000202,354.8200435000472,352.2663487000391,352.2663487000391,352.2663487000391,352.2663487000391,old_fruit_32.png,98,1.0,1.5271947999717668,,,019,01,2024-11-27_16h08.48.217,Surprise recog test,2023.1.3,60.0056405172738,
98,0,98,0,,,,,,,,,,,,,,,,,,,,,,,,,,,,,,,,,,358.0566918000113,359.0743002999807,354.8200435000472,354.8200435000472,354.8200435000472,354.8200435000472,new_sceneIn_23.png,99,3.0,3.240624999976717,,,019,01,2024-11-27_16h08.48.217,Surprise recog test,2023.1.3,60.0056405172738,
99,0,99,0,,,,,,,,,,,,,,,,,,,,,,,,,,,,,,,,,,360.5513403000077,361.5683057999704,359.0743002999807,359.0743002999807,359.0743002999807,359.0743002999807,new_stationery_21.png,100,5.0,1.4718905999325216,,,019,01,2024-11-27_16h08.48.217,Surprise recog test,2023.1.3,60.0056405172738,
100,0,100,0,,,,,,,,,,,,,,,,,,,,,,,,,,,,,,,,,,362.4995345000643,363.5110468000639,361.5683057999704,361.5683057999704,361.5683057999704,361.5683057999704,old_sceneOut_5.png,101,5.0,0.9330507999984547,,,019,01,2024-11-27_16h08.48.217,Surprise recog test,2023.1.3,60.0056405172738,
101,0,101,0,,,,,,,,,,,,,,,,,,,,,,,,,,,,,,,,,,364.51692470000125,365.5417279000394,363.5110468000639,363.5110468000639,363.5110468000639,363.5110468000639,old_sceneOut_21.png,102,5.0,0.9987518999259919,,,019,01,2024-11-27_16h08.48.217,Surprise recog test,2023.1.3,60.0056405172738,
102,0,102,0,,,,,,,,,,,,,,,,,,,,,,,,,,,,,,,,,,366.49470070004463,367.5112699000165,365.5417279000394,365.5417279000394,365.5417279000394,365.5417279000394,new_sceneOut_48.png,103,5.0,0.9551864999812096,,,019,01,2024-11-27_16h08.48.217,Surprise recog test,2023.1.3,60.0056405172738,
103,0,103,0,,,,,,,,,,,,,,,,,,,,,,,,,,,,,,,,,,368.4240354000358,369.43858890002593,367.5112699000165,367.5112699000165,367.5112699000165,367.5112699000165,new_sceneIn_44.png,104,5.0,0.9045804999768734,,,019,01,2024-11-27_16h08.48.217,Surprise recog test,2023.1.3,60.0056405172738,
104,0,104,0,,,,,,,,,,,,,,,,,,,,,,,,,,,,,,,,,,370.9860653000651,372.0101110000396,369.43858890002593,369.43858890002593,369.43858890002593,369.43858890002593,new_sceneIn_25.png,105,5.0,1.5469865999184549,,,019,01,2024-11-27_16h08.48.217,Surprise recog test,2023.1.3,60.0056405172738,
105,0,105,0,,,,,,,,,,,,,,,,,,,,,,,,,,,,,,,,,,372.77105580002535,373.7972507000668,372.0101110000396,372.0101110000396,372.0101110000396,372.0101110000396,new_sceneOut_41.png,106,5.0,0.7630300000309944,,,019,01,2024-11-27_16h08.48.217,Surprise recog test,2023.1.3,60.0056405172738,
106,0,106,0,,,,,,,,,,,,,,,,,,,,,,,,,,,,,,,,,,375.6989012999693,,373.7972507000668,373.7972507000668,373.7972507000668,373.7972507000668,old_sceneIn_14.png,107,1.0,1.9035305000143126,,,019,01,2024-11-27_16h08.48.217,Surprise recog test,2023.1.3,60.0056405172738,
107,0,107,0,,,,,,,,,,,,,,,,,,,,,,,,,,,,,,,,,,378.50423439999577,379.5363219999708,376.73297050001565,376.73297050001565,376.73297050001565,376.73297050001565,old_sceneIn_31.png,108,4.0,1.7707363000372425,,,019,01,2024-11-27_16h08.48.217,Surprise recog test,2023.1.3,60.0056405172738,
108,0,108,0,,,,,,,,,,,,,,,,,,,,,,,,,,,,,,,,,,381.2522815000266,382.26961159997154,379.5363219999708,379.5363219999708,379.5363219999708,379.5363219999708,new_stationery_24.png,109,5.0,1.7147795999189839,,,019,01,2024-11-27_16h08.48.217,Surprise recog test,2023.1.3,60.0056405172738,
109,0,109,0,,,,,,,,,,,,,,,,,,,,,,,,,,,,,,,,,,383.49475289997645,384.5124536000658,382.26961159997154,382.26961159997154,382.26961159997154,382.26961159997154,old_stationery_31.png,110,1.0,1.2271848000818864,,,019,01,2024-11-27_16h08.48.217,Surprise recog test,2023.1.3,60.0056405172738,
110,0,110,0,,,,,,,,,,,,,,,,,,,,,,,,,,,,,,,,,,386.3585064000217,,384.5124536000658,384.5124536000658,384.5124536000658,384.5124536000658,new_sceneIn_29.png,111,5.0,1.8424685000209138,,,019,01,2024-11-27_16h08.48.217,Surprise recog test,2023.1.3,60.0056405172738,
111,0,111,0,,,,,,,,,,,,,,,,,,,,,,,,,,,,,,,,,,388.42994559998624,389.44613000005484,387.3916967000114,387.3916967000114,387.3916967000114,387.3916967000114,new_sceneIn_31.png,112,5.0,1.0408499999903142,,,019,01,2024-11-27_16h08.48.217,Surprise recog test,2023.1.3,60.0056405172738,
112,0,112,0,,,,,,,,,,,,,,,,,,,,,,,,,,,,,,,,,,390.4564942000434,391.4694908000529,389.44613000005484,389.44613000005484,389.44613000005484,389.44613000005484,new_fruit_43.png,113,5.0,1.0064196001039818,,,019,01,2024-11-27_16h08.48.217,Surprise recog test,2023.1.3,60.0056405172738,
113,0,113,0,,,,,,,,,,,,,,,,,,,,,,,,,,,,,,,,,,392.9872836000286,394.0022814000258,391.4694908000529,391.4694908000529,391.4694908000529,391.4694908000529,new_fruit_27.png,114,2.0,1.5173298000590876,,,019,01,2024-11-27_16h08.48.217,Surprise recog test,2023.1.3,60.0056405172738,
114,0,114,0,,,,,,,,,,,,,,,,,,,,,,,,,,,,,,,,,,395.1890529000666,396.21164780005347,394.0022814000258,394.0022814000258,394.0022814000258,394.0022814000258,new_sceneOut_22.png,115,5.0,1.1823143999790773,,,019,01,2024-11-27_16h08.48.217,Surprise recog test,2023.1.3,60.0056405172738,
115,0,115,0,,,,,,,,,,,,,,,,,,,,,,,,,,,,,,,,,,397.2949168999912,398.3150039999746,396.21164780005347,396.21164780005347,396.21164780005347,396.21164780005347,old_sceneOut_6.png,116,5.0,1.0828608999727294,,,019,01,2024-11-27_16h08.48.217,Surprise recog test,2023.1.3,60.0056405172738,
116,0,116,0,,,,,,,,,,,,,,,,,,,,,,,,,,,,,,,,,,399.1807204000652,400.2034653000301,398.3150039999746,398.3150039999746,398.3150039999746,398.3150039999746,new_sceneOut_2.png,117,5.0,0.8666444999398664,,,019,01,2024-11-27_16h08.48.217,Surprise recog test,2023.1.3,60.0056405172738,
117,0,117,0,,,,,,,,,,,,,,,,,,,,,,,,,,,,,,,,,,401.7026891000569,402.709183900035,400.2034653000301,400.2034653000301,400.2034653000301,400.2034653000301,old_fruit_50.png,118,3.0,1.5011390000581741,,,019,01,2024-11-27_16h08.48.217,Surprise recog test,2023.1.3,60.0056405172738,
118,0,118,0,,,,,,,,,,,,,,,,,,,,,,,,,,,,,,,,,,404.8309122000355,405.84615470003337,402.709183900035,402.709183900035,402.709183900035,402.709183900035,new_sceneOut_49.png,119,3.0,2.1171339999418706,,,019,01,2024-11-27_16h08.48.217,Surprise recog test,2023.1.3,60.0056405172738,
119,0,119,0,,,,,,,,,,,,,,,,,,,,,,,,,,,,,,,,,,407.14684409997426,408.1753599999938,405.84615470003337,405.84615470003337,405.84615470003337,405.84615470003337,old_sceneOut_3.png,120,5.0,1.296252099913545,,,019,01,2024-11-27_16h08.48.217,Surprise recog test,2023.1.3,60.0056405172738,
120,0,120,0,,,,,,,,,,,,,,,,,,,,,,,,,,,,,,,,,,409.2833369000582,410.2983655000571,408.1753599999938,408.1753599999938,408.1753599999938,408.1753599999938,new_sceneIn_46.png,121,5.0,1.1081147000659257,,,019,01,2024-11-27_16h08.48.217,Surprise recog test,2023.1.3,60.0056405172738,
121,0,121,0,,,,,,,,,,,,,,,,,,,,,,,,,,,,,,,,,,411.7002550000325,412.7311983000254,410.2983655000571,410.2983655000571,410.2983655000571,410.2983655000571,old_stationery_36.png,122,1.0,1.3980221999809146,,,019,01,2024-11-27_16h08.48.217,Surprise recog test,2023.1.3,60.0056405172738,
122,0,122,0,,,,,,,,,,,,,,,,,,,,,,,,,,,,,,,,,,413.76212400000077,414.77942380006425,412.7311983000254,412.7311983000254,412.7311983000254,412.7311983000254,old_stationery_18.png,123,1.0,1.0315878000110388,,,019,01,2024-11-27_16h08.48.217,Surprise recog test,2023.1.3,60.0056405172738,
123,0,123,0,,,,,,,,,,,,,,,,,,,,,,,,,,,,,,,,,,416.5268090000609,417.55224660004023,414.77942380006425,414.77942380006425,414.77942380006425,414.77942380006425,old_sceneIn_33.png,124,5.0,1.7499790999572724,,,019,01,2024-11-27_16h08.48.217,Surprise recog test,2023.1.3,60.0056405172738,
124,0,124,0,,,,,,,,,,,,,,,,,,,,,,,,,,,,,,,,,,418.8556307000108,419.8860846000025,417.55224660004023,417.55224660004023,417.55224660004023,417.55224660004023,old_sceneIn_43.png,125,5.0,1.3037556000053883,,,019,01,2024-11-27_16h08.48.217,Surprise recog test,2023.1.3,60.0056405172738,
125,0,125,0,,,,,,,,,,,,,,,,,,,,,,,,,,,,,,,,,,420.8185236999998,421.8385513999965,419.8860846000025,419.8860846000025,419.8860846000025,419.8860846000025,old_sceneOut_25.png,126,5.0,0.9332256999332458,,,019,01,2024-11-27_16h08.48.217,Surprise recog test,2023.1.3,60.0056405172738,
126,0,126,0,,,,,,,,,,,,,,,,,,,,,,,,,,,,,,,,,,423.5577672000509,424.57432390004396,421.8385513999965,421.8385513999965,421.8385513999965,421.8385513999965,new_fruit_7.png,127,3.0,1.7213837000308558,,,019,01,2024-11-27_16h08.48.217,Surprise recog test,2023.1.3,60.0056405172738,
127,0,127,0,,,,,,,,,,,,,,,,,,,,,,,,,,,,,,,,,,426.0501463999972,427.0734904999845,424.57432390004396,424.57432390004396,424.57432390004396,424.57432390004396,old_sceneIn_44.png,128,5.0,1.46926409995649,,,019,01,2024-11-27_16h08.48.217,Surprise recog test,2023.1.3,60.0056405172738,
128,0,128,0,,,,,,,,,,,,,,,,,,,,,,,,,,,,,,,,,,428.0094936999958,,427.0734904999845,427.0734904999845,427.0734904999845,427.0734904999845,old_sceneOut_39.png,129,5.0,0.9351459000026807,,,019,01,2024-11-27_16h08.48.217,Surprise recog test,2023.1.3,60.0056405172738,
129,0,129,0,,,,,,,,,,,,,,,,,,,,,,,,,,,,,,,,,,430.5286071000155,,429.0435572999995,429.0435572999995,429.0435572999995,429.0435572999995,old_sceneIn_28.png,130,5.0,1.4871940000448376,,,019,01,2024-11-27_16h08.48.217,Surprise recog test,2023.1.3,60.0056405172738,
130,0,130,0,,,,,,,,,,,,,,,,,,,,,,,,,,,,,,,,,,432.4954992000712,433.509291299968,431.5616299000103,431.5616299000103,431.5616299000103,431.5616299000103,old_sceneOut_2.png,131,5.0,0.9333291000220925,,,019,01,2024-11-27_16h08.48.217,Surprise recog test,2023.1.3,60.0056405172738,
131,0,131,0,,,,,,,,,,,,,,,,,,,,,,,,,,,,,,,,,,434.3787472000113,435.4026870999951,433.509291299968,433.509291299968,433.509291299968,433.509291299968,new_sceneIn_19.png,132,5.0,0.8638769000535831,,,019,01,2024-11-27_16h08.48.217,Surprise recog test,2023.1.3,60.0056405172738,
132,0,132,0,,,,,,,,,,,,,,,,,,,,,,,,,,,,,,,,,,436.7186723999912,437.7377449000487,435.4026870999951,435.4026870999951,435.4026870999951,435.4026870999951,old_fruit_17.png,133,3.0,1.3199751999927685,,,019,01,2024-11-27_16h08.48.217,Surprise recog test,2023.1.3,60.0056405172738,
133,0,133,0,,,,,,,,,,,,,,,,,,,,,,,,,,,,,,,,,,439.2158456000034,440.22522680007387,437.7377449000487,437.7377449000487,437.7377449000487,437.7377449000487,old_stationery_37.png,134,5.0,1.474390499992296,,,019,01,2024-11-27_16h08.48.217,Surprise recog test,2023.1.3,60.0056405172738,
134,0,134,0,,,,,,,,,,,,,,,,,,,,,,,,,,,,,,,,,,441.0896951999748,442.10969599999953,440.22522680007387,440.22522680007387,440.22522680007387,440.22522680007387,new_sceneOut_36.png,135,5.0,0.8629810999846086,,,019,01,2024-11-27_16h08.48.217,Surprise recog test,2023.1.3,60.0056405172738,
135,0,135,0,,,,,,,,,,,,,,,,,,,,,,,,,,,,,,,,,,443.56758570007514,444.5847303000046,442.10969599999953,442.10969599999953,442.10969599999953,442.10969599999953,old_stationery_29.png,136,1.0,1.453319999971427,,,019,01,2024-11-27_16h08.48.217,Surprise recog test,2023.1.3,60.0056405172738,
136,0,136,0,,,,,,,,,,,,,,,,,,,,,,,,,,,,,,,,,,445.65123469999526,446.67760589998215,444.5847303000046,444.5847303000046,444.5847303000046,444.5847303000046,old_stationery_42.png,137,1.0,1.068379000062123,,,019,01,2024-11-27_16h08.48.217,Surprise recog test,2023.1.3,60.0056405172738,
137,0,137,0,,,,,,,,,,,,,,,,,,,,,,,,,,,,,,,,,,448.28030089999083,449.30882600008044,446.67760589998215,446.67760589998215,446.67760589998215,446.67760589998215,old_sceneOut_35.png,138,5.0,1.6043339000316337,,,019,01,2024-11-27_16h08.48.217,Surprise recog test,2023.1.3,60.0056405172738,
138,0,138,0,,,,,,,,,,,,,,,,,,,,,,,,,,,,,,,,,,450.8976217000745,451.9295266000554,449.30882600008044,449.30882600008044,449.30882600008044,449.30882600008044,old_stationery_8.png,139,1.0,1.5905141999246553,,,019,01,2024-11-27_16h08.48.217,Surprise recog test,2023.1.3,60.0056405172738,
139,0,139,0,,,,,,,,,,,,,,,,,,,,,,,,,,,,,,,,,,453.49823590007145,,451.9295266000554,451.9295266000554,451.9295266000554,451.9295266000554,new_fruit_13.png,140,3.0,1.5699271999765188,,,019,01,2024-11-27_16h08.48.217,Surprise recog test,2023.1.3,60.0056405172738,
140,0,140,0,,,,,,,,,,,,,,,,,,,,,,,,,,,,,,,,,,455.8186746999854,456.8374257000396,454.53151140001137,454.53151140001137,454.53151140001137,454.53151140001137,old_sceneIn_10.png,141,5.0,1.2878217999823391,,,019,01,2024-11-27_16h08.48.217,Surprise recog test,2023.1.3,60.0056405172738,
141,0,141,0,,,,,,,,,,,,,,,,,,,,,,,,,,,,,,,,,,458.00138969998807,,456.8374257000396,456.8374257000396,456.8374257000396,456.8374257000396,new_stationery_32.png,142,5.0,1.1573342999909073,,,019,01,2024-11-27_16h08.48.217,Surprise recog test,2023.1.3,60.0056405172738,
142,0,142,0,,,,,,,,,,,,,,,,,,,,,,,,,,,,,,,,,,460.02796460001264,461.0588173000142,459.0337988000829,459.0337988000829,459.0337988000829,459.0337988000829,new_sceneIn_45.png,143,5.0,0.9959673000266775,,,019,01,2024-11-27_16h08.48.217,Surprise recog test,2023.1.3,60.0056405172738,
143,0,143,0,,,,,,,,,,,,,,,,,,,,,,,,,,,,,,,,,,463.11475850001443,464.1310943000717,461.0588173000142,461.0588173000142,461.0588173000142,461.0588173000142,new_sceneIn_26.png,144,3.0,2.059042499982752,,,019,01,2024-11-27_16h08.48.217,Surprise recog test,2023.1.3,60.0056405172738,
144,0,144,0,,,,,,,,,,,,,,,,,,,,,,,,,,,,,,,,,,465.4544575000182,466.47471249999944,464.1310943000717,464.1310943000717,464.1310943000717,464.1310943000717,old_fruit_12.png,145,2.0,1.3166723999893293,,,019,01,2024-11-27_16h08.48.217,Surprise recog test,2023.1.3,60.0056405172738,
145,0,145,0,,,,,,,,,,,,,,,,,,,,,,,,,,,,,,,,,,467.76259340008255,468.78227049997076,466.47471249999944,466.47471249999944,466.47471249999944,466.47471249999944,new_sceneOut_39.png,146,5.0,1.288841100060381,,,019,01,2024-11-27_16h08.48.217,Surprise recog test,2023.1.3,60.0056405172738,
146,0,146,0,,,,,,,,,,,,,,,,,,,,,,,,,,,,,,,,,,470.5553304000059,471.56987770006526,468.78227049997076,468.78227049997076,468.78227049997076,468.78227049997076,new_sceneOut_17.png,147,1.0,1.76867530005984,,,019,01,2024-11-27_16h08.48.217,Surprise recog test,2023.1.3,60.0056405172738,
147,0,147,0,,,,,,,,,,,,,,,,,,,,,,,,,,,,,,,,,,472.9603468000423,473.9865832000505,471.56987770006526,471.56987770006526,471.56987770006526,471.56987770006526,old_sceneOut_28.png,148,5.0,1.3861641000257805,,,019,01,2024-11-27_16h08.48.217,Surprise recog test,2023.1.3,60.0056405172738,
148,0,148,0,,,,,,,,,,,,,,,,,,,,,,,,,,,,,,,,,,475.4175352000166,476.43750380002894,473.9865832000505,473.9865832000505,473.9865832000505,473.9865832000505,old_fruit_16.png,149,1.0,1.4327762000029907,,,019,01,2024-11-27_16h08.48.217,Surprise recog test,2023.1.3,60.0056405172738,
149,0,149,0,,,,,,,,,,,,,,,,,,,,,,,,,,,,,,,,,,477.3396420000354,478.35706140007824,476.43750380002894,476.43750380002894,476.43750380002894,476.43750380002894,old_fruit_48.png,150,1.0,0.8980127000249922,,,019,01,2024-11-27_16h08.48.217,Surprise recog test,2023.1.3,60.0056405172738,
150,0,150,0,,,,,,,,,,,,,,,,,,,,,,,,,,,,,,,,,,479.7511590999784,480.7750791000435,478.35706140007824,478.35706140007824,478.35706140007824,478.35706140007824,new_sceneOut_14.png,151,5.0,1.3902022000402212,,,019,01,2024-11-27_16h08.48.217,Surprise recog test,2023.1.3,60.0056405172738,
151,0,151,0,,,,,,,,,,,,,,,,,,,,,,,,,,,,,,,,,,481.7953077000566,482.82192270003725,480.7750791000435,480.7750791000435,480.7750791000435,480.7750791000435,old_sceneIn_19.png,152,5.0,1.025387000059709,,,019,01,2024-11-27_16h08.48.217,Surprise recog test,2023.1.3,60.0056405172738,
152,0,152,0,,,,,,,,,,,,,,,,,,,,,,,,,,,,,,,,,,484.44373910001013,485.4632523000473,482.82192270003725,482.82192270003725,482.82192270003725,482.82192270003725,new_fruit_36.png,153,3.0,1.6229812999954447,,,019,01,2024-11-27_16h08.48.217,Surprise recog test,2023.1.3,60.0056405172738,
153,0,153,0,,,,,,,,,,,,,,,,,,,,,,,,,,,,,,,,,,486.6010014000349,487.6241746000014,485.4632523000473,485.4632523000473,485.4632523000473,485.4632523000473,new_sceneOut_5.png,154,5.0,1.1337778000161052,,,019,01,2024-11-27_16h08.48.217,Surprise recog test,2023.1.3,60.0056405172738,
154,0,154,0,,,,,,,,,,,,,,,,,,,,,,,,,,,,,,,,,,488.5665784999728,489.5944749000482,487.6241746000014,487.6241746000014,487.6241746000014,487.6241746000014,new_sceneIn_8.png,155,5.0,0.9440222000703216,,,019,01,2024-11-27_16h08.48.217,Surprise recog test,2023.1.3,60.0056405172738,
155,0,155,0,,,,,,,,,,,,,,,,,,,,,,,,,,,,,,,,,,490.3268001000397,491.3489346000133,489.5944749000482,489.5944749000482,489.5944749000482,489.5944749000482,old_sceneOut_32.png,156,5.0,0.7319865999743342,,,019,01,2024-11-27_16h08.48.217,Surprise recog test,2023.1.3,60.0056405172738,
156,0,156,0,,,,,,,,,,,,,,,,,,,,,,,,,,,,,,,,,,492.20241620007437,493.2174006999703,491.3489346000133,491.3489346000133,491.3489346000133,491.3489346000133,old_sceneOut_31.png,157,5.0,0.8537744999630377,,,019,01,2024-11-27_16h08.48.217,Surprise recog test,2023.1.3,60.0056405172738,
157,0,157,0,,,,,,,,,,,,,,,,,,,,,,,,,,,,,,,,,,494.9325122999726,,493.2174006999703,493.2174006999703,493.2174006999703,493.2174006999703,new_stationery_22.png,158,3.0,1.7114692999748513,,,019,01,2024-11-27_16h08.48.217,Surprise recog test,2023.1.3,60.0056405172738,
158,0,158,0,,,,,,,,,,,,,,,,,,,,,,,,,,,,,,,,,,497.6419932000572,498.6558265000349,495.9603267000057,495.9603267000057,495.9603267000057,495.9603267000057,new_stationery_46.png,159,5.0,1.6831083000870422,,,019,01,2024-11-27_16h08.48.217,Surprise recog test,2023.1.3,60.0056405172738,
159,0,159,0,,,,,,,,,,,,,,,,,,,,,,,,,,,,,,,,,,499.95803270000033,500.9740003000479,498.6558265000349,498.6558265000349,498.6558265000349,498.6558265000349,old_stationery_10.png,160,1.0,1.2973263000603765,,,019,01,2024-11-27_16h08.48.217,Surprise recog test,2023.1.3,60.0056405172738,
160,0,160,0,,,,,,,,,,,,,,,,,,,,,,,,,,,,,,,,,,502.34726030007005,503.3587124000769,500.9740003000479,500.9740003000479,500.9740003000479,500.9740003000479,new_sceneOut_11.png,161,5.0,1.3707126000663266,,,019,01,2024-11-27_16h08.48.217,Surprise recog test,2023.1.3,60.0056405172738,
161,0,161,0,,,,,,,,,,,,,,,,,,,,,,,,,,,,,,,,,,504.20306480000727,505.2075759000145,503.3587124000769,503.3587124000769,503.3587124000769,503.3587124000769,old_sceneOut_30.png,162,5.0,0.8382210000418127,,,019,01,2024-11-27_16h08.48.217,Surprise recog test,2023.1.3,60.0056405172738,
162,0,162,0,,,,,,,,,,,,,,,,,,,,,,,,,,,,,,,,,,506.44505750003736,507.46041810000315,505.2075759000145,505.2075759000145,505.2075759000145,505.2075759000145,old_fruit_42.png,163,5.0,1.2310490999370813,,,019,01,2024-11-27_16h08.48.217,Surprise recog test,2023.1.3,60.0056405172738,
163,0,163,0,,,,,,,,,,,,,,,,,,,,,,,,,,,,,,,,,,508.27318869996816,509.27775970008224,507.46041810000315,507.46041810000315,507.46041810000315,507.46041810000315,new_sceneIn_11.png,164,5.0,0.8051265000831336,,,019,01,2024-11-27_16h08.48.217,Surprise recog test,2023.1.3,60.0056405172738,
164,0,164,0,,,,,,,,,,,,,,,,,,,,,,,,,,,,,,,,,,510.07460719998926,511.0795200000284,509.27775970008224,509.27775970008224,509.27775970008224,509.27775970008224,new_sceneIn_17.png,165,5.0,0.7888503998983651,,,019,01,2024-11-27_16h08.48.217,Surprise recog test,2023.1.3,60.0056405172738,
165,0,165,0,,,,,,,,,,,,,,,,,,,,,,,,,,,,,,,,,,511.8762648999691,512.8805128000677,511.0795200000284,511.0795200000284,511.0795200000284,511.0795200000284,new_sceneIn_48.png,166,5.0,0.7875146000878885,,,019,01,2024-11-27_16h08.48.217,Surprise recog test,2023.1.3,60.0056405172738,
166,0,166,0,,,,,,,,,,,,,,,,,,,,,,,,,,,,,,,,,,513.5442681000568,514.5494118999923,512.8805128000677,512.8805128000677,512.8805128000677,512.8805128000677,new_sceneOut_7.png,167,5.0,0.6537363999523222,,,019,01,2024-11-27_16h08.48.217,Surprise recog test,2023.1.3,60.0056405172738,
167,0,167,0,,,,,,,,,,,,,,,,,,,,,,,,,,,,,,,,,,515.3290783000411,516.3336656000465,514.5494118999923,514.5494118999923,514.5494118999923,514.5494118999923,old_sceneIn_22.png,168,5.0,0.7706655999645591,,,019,01,2024-11-27_16h08.48.217,Surprise recog test,2023.1.3,60.0056405172738,
168,0,168,0,,,,,,,,,,,,,,,,,,,,,,,,,,,,,,,,,,517.3306033000117,518.3353685999755,516.3336656000465,516.3336656000465,516.3336656000465,516.3336656000465,new_stationery_9.png,169,5.0,0.988306500017643,,,019,01,2024-11-27_16h08.48.217,Surprise recog test,2023.1.3,60.0056405172738,
169,0,169,0,,,,,,,,,,,,,,,,,,,,,,,,,,,,,,,,,,519.4657032000832,520.4718463000609,518.3353685999755,518.3353685999755,518.3353685999755,518.3353685999755,new_fruit_15.png,170,5.0,1.1206202000612393,,,019,01,2024-11-27_16h08.48.217,Surprise recog test,2023.1.3,60.0056405172738,
170,0,170,0,,,,,,,,,,,,,,,,,,,,,,,,,,,,,,,,,,522.1185151999816,523.1218272000551,520.4718463000609,520.4718463000609,520.4718463000609,520.4718463000609,new_stationery_30.png,171,2.0,1.6432192999636754,,,019,01,2024-11-27_16h08.48.217,Surprise recog test,2023.1.3,60.0056405172738,
171,0,171,0,,,,,,,,,,,,,,,,,,,,,,,,,,,,,,,,,,524.5533288000152,525.5584614999825,523.1218272000551,523.1218272000551,523.1218272000551,523.1218272000551,old_fruit_33.png,172,1.0,1.4208593999501318,,,019,01,2024-11-27_16h08.48.217,Surprise recog test,2023.1.3,60.0056405172738,
172,0,172,0,,,,,,,,,,,,,,,,,,,,,,,,,,,,,,,,,,526.8385484999744,527.8448531000176,525.5584614999825,525.5584614999825,525.5584614999825,525.5584614999825,new_fruit_11.png,173,3.0,1.2706696999957785,,,019,01,2024-11-27_16h08.48.217,Surprise recog test,2023.1.3,60.0056405172738,
173,0,173,0,,,,,,,,,,,,,,,,,,,,,,,,,,,,,,,,,,529.1404669000767,530.1449663999956,527.8448531000176,527.8448531000176,527.8448531000176,527.8448531000176,old_stationery_43.png,174,1.0,1.2874538000905886,,,019,01,2024-11-27_16h08.48.217,Surprise recog test,2023.1.3,60.0056405172738,
174,0,174,0,,,,,,,,,,,,,,,,,,,,,,,,,,,,,,,,,,531.4591123000719,532.4636471000267,530.1449663999956,530.1449663999956,530.1449663999956,530.1449663999956,old_fruit_27.png,175,3.0,1.3037598000373691,,,019,01,2024-11-27_16h08.48.217,Surprise recog test,2023.1.3,60.0056405172738,
175,0,175,0,,,,,,,,,,,,,,,,,,,,,,,,,,,,,,,,,,533.844264900079,534.8499466000358,532.4636471000267,532.4636471000267,532.4636471000267,532.4636471000267,new_fruit_23.png,176,2.0,1.3714327999623492,,,019,01,2024-11-27_16h08.48.217,Surprise recog test,2023.1.3,60.0056405172738,
176,0,176,0,,,,,,,,,,,,,,,,,,,,,,,,,,,,,,,,,,537.3973281000508,538.4016706000548,534.8499466000358,534.8499466000358,534.8499466000358,534.8499466000358,new_stationery_44.png,177,5.0,2.5379169000079855,,,019,01,2024-11-27_16h08.48.217,Surprise recog test,2023.1.3,60.0056405172738,
177,0,177,0,,,,,,,,,,,,,,,,,,,,,,,,,,,,,,,,,,539.2005875000032,,538.4016706000548,538.4016706000548,538.4016706000548,538.4016706000548,old_sceneOut_19.png,178,5.0,0.7932660999940708,,,019,01,2024-11-27_16h08.48.217,Surprise recog test,2023.1.3,60.0056405172738,
178,0,178,0,,,,,,,,,,,,,,,,,,,,,,,,,,,,,,,,,,541.9511168000754,542.9565747000743,540.2191603999818,540.2191603999818,540.2191603999818,540.2191603999818,old_stationery_3.png,179,1.0,1.7214824999682605,,,019,01,2024-11-27_16h08.48.217,Surprise recog test,2023.1.3,60.0056405172738,
179,0,179,0,,,,,,,,,,,,,,,,,,,,,,,,,,,,,,,,,,544.3196480000624,545.3248324000742,542.9565747000743,542.9565747000743,542.9565747000743,542.9565747000743,old_sceneOut_7.png,180,5.0,1.3565190000226721,,,019,01,2024-11-27_16h08.48.217,Surprise recog test,2023.1.3,60.0056405172738,
180,0,180,0,,,,,,,,,,,,,,,,,,,,,,,,,,,,,,,,,,546.6083227000199,,545.3248324000742,545.3248324000742,545.3248324000742,545.3248324000742,old_stationery_19.png,181,1.0,1.2752293000230566,,,019,01,2024-11-27_16h08.48.217,Surprise recog test,2023.1.3,60.0056405172738,
181,0,181,0,,,,,,,,,,,,,,,,,,,,,,,,,,,,,,,,,,549.357151400065,550.3668578000506,547.6267279000022,547.6267279000022,547.6267279000022,547.6267279000022,new_fruit_48.png,182,4.0,1.7252905999775976,,,019,01,2024-11-27_16h08.48.217,Surprise recog test,2023.1.3,60.0056405172738,
182,0,182,0,,,,,,,,,,,,,,,,,,,,,,,,,,,,,,,,,,551.8374539000215,552.8613454999868,550.3668578000506,550.3668578000506,550.3668578000506,550.3668578000506,new_stationery_33.png,183,5.0,1.467468100017868,,,019,01,2024-11-27_16h08.48.217,Surprise recog test,2023.1.3,60.0056405172738,
183,0,183,0,,,,,,,,,,,,,,,,,,,,,,,,,,,,,,,,,,554.5113060000585,555.5322992000729,552.8613454999868,552.8613454999868,552.8613454999868,552.8613454999868,old_fruit_30.png,184,2.0,1.6475683000171557,,,019,01,2024-11-27_16h08.48.217,Surprise recog test,2023.1.3,60.0056405172738,
184,0,184,0,,,,,,,,,,,,,,,,,,,,,,,,,,,,,,,,,,556.8214755000081,557.8514265000122,555.5322992000729,555.5322992000729,555.5322992000729,555.5322992000729,old_sceneIn_6.png,185,1.0,1.288868400035426,,,019,01,2024-11-27_16h08.48.217,Surprise recog test,2023.1.3,60.0056405172738,
185,0,185,0,,,,,,,,,,,,,,,,,,,,,,,,,,,,,,,,,,558.991708900081,560.011349300039,557.8514265000122,557.8514265000122,557.8514265000122,557.8514265000122,old_stationery_46.png,186,1.0,1.1441763000329956,,,019,01,2024-11-27_16h08.48.217,Surprise recog test,2023.1.3,60.0056405172738,
186,0,186,0,,,,,,,,,,,,,,,,,,,,,,,,,,,,,,,,,,561.8668416000437,562.8829369000159,560.011349300039,560.011349300039,560.011349300039,560.011349300039,old_fruit_14.png,187,4.0,1.8537006999831647,,,019,01,2024-11-27_16h08.48.217,Surprise recog test,2023.1.3,60.0056405172738,
187,0,187,0,,,,,,,,,,,,,,,,,,,,,,,,,,,,,,,,,,563.8553028000752,,562.8829369000159,562.8829369000159,562.8829369000159,562.8829369000159,new_sceneOut_47.png,188,5.0,0.971611600019969,,,019,01,2024-11-27_16h08.48.217,Surprise recog test,2023.1.3,60.0056405172738,
188,0,188,0,,,,,,,,,,,,,,,,,,,,,,,,,,,,,,,,,,565.7938574000727,566.821317300084,564.8734138000291,564.8734138000291,564.8734138000291,564.8734138000291,old_sceneOut_14.png,189,5.0,0.9160921000875533,,,019,01,2024-11-27_16h08.48.217,Surprise recog test,2023.1.3,60.0056405172738,
189,0,189,0,,,,,,,,,,,,,,,,,,,,,,,,,,,,,,,,,,567.9778093000641,568.9936765000457,566.821317300084,566.821317300084,566.821317300084,566.821317300084,new_fruit_50.png,190,2.0,1.1578276000218466,,,019,01,2024-11-27_16h08.48.217,Surprise recog test,2023.1.3,60.0056405172738,
190,0,190,0,,,,,,,,,,,,,,,,,,,,,,,,,,,,,,,,,,570.5745313999942,571.5979897000361,568.9936765000457,568.9936765000457,568.9936765000457,568.9936765000457,old_fruit_29.png,191,4.0,1.5751778999110684,,,019,01,2024-11-27_16h08.48.217,Surprise recog test,2023.1.3,60.0056405172738,
191,0,191,0,,,,,,,,,,,,,,,,,,,,,,,,,,,,,,,,,,572.7337031000061,573.7505760000786,571.5979897000361,571.5979897000361,571.5979897000361,571.5979897000361,new_sceneOut_50.png,192,5.0,1.138577300007455,,,019,01,2024-11-27_16h08.48.217,Surprise recog test,2023.1.3,60.0056405172738,
192,0,192,0,,,,,,,,,,,,,,,,,,,,,,,,,,,,,,,,,,574.650118199992,575.6783783000428,573.7505760000786,573.7505760000786,573.7505760000786,573.7505760000786,new_sceneOut_28.png,193,5.0,0.8927251000422984,,,019,01,2024-11-27_16h08.48.217,Surprise recog test,2023.1.3,60.0056405172738,
193,0,193,0,,,,,,,,,,,,,,,,,,,,,,,,,,,,,,,,,,577.6258841999806,578.6384135000408,575.6783783000428,575.6783783000428,575.6783783000428,575.6783783000428,new_stationery_15.png,194,4.0,1.946529799955897,,,019,01,2024-11-27_16h08.48.217,Surprise recog test,2023.1.3,60.0056405172738,
194,0,194,0,,,,,,,,,,,,,,,,,,,,,,,,,,,,,,,,,,579.5823824000545,580.5978080000496,578.6384135000408,578.6384135000408,578.6384135000408,578.6384135000408,old_sceneOut_1.png,195,5.0,0.9348907000385225,,,019,01,2024-11-27_16h08.48.217,Surprise recog test,2023.1.3,60.0056405172738,
195,0,195,0,,,,,,,,,,,,,,,,,,,,,,,,,,,,,,,,,,582.0764324000338,583.0930221000453,580.5978080000496,580.5978080000496,580.5978080000496,580.5978080000496,new_stationery_48.png,196,1.0,1.4781227000057697,,,019,01,2024-11-27_16h08.48.217,Surprise recog test,2023.1.3,60.0056405172738,
196,0,196,0,,,,,,,,,,,,,,,,,,,,,,,,,,,,,,,,,,584.6541198000778,585.6750084999949,583.0930221000453,583.0930221000453,583.0930221000453,583.0930221000453,new_sceneIn_50.png,197,4.0,1.5565935999620706,,,019,01,2024-11-27_16h08.48.217,Surprise recog test,2023.1.3,60.0056405172738,
197,0,197,0,,,,,,,,,,,,,,,,,,,,,,,,,,,,,,,,,,587.3053777000168,588.318080099998,585.6750084999949,585.6750084999949,585.6750084999949,585.6750084999949,new_fruit_18.png,198,2.0,1.6300613000057638,,,019,01,2024-11-27_16h08.48.217,Surprise recog test,2023.1.3,60.0056405172738,
198,0,198,0,,,,,,,,,,,,,,,,,,,,,,,,,,,,,,,,,,589.8301273999969,590.8606027000351,588.318080099998,588.318080099998,588.318080099998,588.318080099998,new_fruit_14.png,199,4.0,1.5102945000398904,,,019,01,2024-11-27_16h08.48.217,Surprise recog test,2023.1.3,60.0056405172738,
199,0,199,0,,,,,,,,,,,,,,,,,,,,,,,,,,,,,,,,,,591.9196870999876,592.9462598999962,590.8606027000351,590.8606027000351,590.8606027000351,590.8606027000351,old_sceneOut_38.png,200,5.0,1.0594682999653742,,,019,01,2024-11-27_16h08.48.217,Surprise recog test,2023.1.3,60.0056405172738,
200,0,200,0,,,,,,,,,,,,,,,,,,,,,,,,,,,,,,,,,,594.5597796000075,595.5697197000263,592.9462598999962,592.9462598999962,592.9462598999962,592.9462598999962,old_stationery_11.png,201,1.0,1.6161371999187395,,,019,01,2024-11-27_16h08.48.217,Surprise recog test,2023.1.3,60.0056405172738,
201,0,201,0,,,,,,,,,,,,,,,,,,,,,,,,,,,,,,,,,,597.0634442999726,598.0688615000108,595.5697197000263,595.5697197000263,595.5697197000263,595.5697197000263,new_sceneIn_43.png,202,5.0,1.488151800003834,,,019,01,2024-11-27_16h08.48.217,Surprise recog test,2023.1.3,60.0056405172738,
202,0,202,0,,,,,,,,,,,,,,,,,,,,,,,,,,,,,,,,,,599.4850335000083,,598.0688615000108,598.0688615000108,598.0688615000108,598.0688615000108,old_stationery_2.png,203,1.0,1.4109637999208644,,,019,01,2024-11-27_16h08.48.217,Surprise recog test,2023.1.3,60.0056405172738,
203,0,203,0,,,,,,,,,,,,,,,,,,,,,,,,,,,,,,,,,,601.7190463000443,,600.5063300000038,600.5063300000038,600.5063300000038,600.5063300000038,new_fruit_22.png,204,4.0,1.2074510999955237,,,019,01,2024-11-27_16h08.48.217,Surprise recog test,2023.1.3,60.0056405172738,
204,0,204,0,,,,,,,,,,,,,,,,,,,,,,,,,,,,,,,,,,603.7116009000456,604.7377360999817,602.7416531000054,602.7416531000054,602.7416531000054,602.7416531000054,old_sceneOut_34.png,205,5.0,0.967051999992691,,,019,01,2024-11-27_16h08.48.217,Surprise recog test,2023.1.3,60.0056405172738,
205,0,205,0,,,,,,,,,,,,,,,,,,,,,,,,,,,,,,,,,,605.9545407000696,606.9635045999894,604.7377360999817,604.7377360999817,604.7377360999817,604.7377360999817,old_sceneIn_42.png,206,5.0,1.2185012999689206,,,019,01,2024-11-27_16h08.48.217,Surprise recog test,2023.1.3,60.0056405172738,
206,0,206,0,,,,,,,,,,,,,,,,,,,,,,,,,,,,,,,,,,608.7010384000605,609.7259340999881,606.9635045999894,606.9635045999894,606.9635045999894,606.9635045999894,old_fruit_47.png,207,1.0,1.7313838999252766,,,019,01,2024-11-27_16h08.48.217,Surprise recog test,2023.1.3,60.0056405172738,
207,0,207,0,,,,,,,,,,,,,,,,,,,,,,,,,,,,,,,,,,611.3940813000081,,609.7259340999881,609.7259340999881,609.7259340999881,609.7259340999881,new_stationery_8.png,208,5.0,1.669161400059238,,,019,01,2024-11-27_16h08.48.217,Surprise recog test,2023.1.3,60.0056405172738,
208,0,208,0,,,,,,,,,,,,,,,,,,,,,,,,,,,,,,,,,,613.6857079999754,614.7082391000586,612.415778500028,612.415778500028,612.415778500028,612.415778500028,old_sceneIn_5.png,209,5.0,1.265571500058286,,,019,01,2024-11-27_16h08.48.217,Surprise recog test,2023.1.3,60.0056405172738,
209,0,209,0,,,,,,,,,,,,,,,,,,,,,,,,,,,,,,,,,,615.6704873000272,616.6943783999886,614.7082391000586,614.7082391000586,614.7082391000586,614.7082391000586,new_stationery_36.png,210,5.0,0.9613779000937939,,,019,01,2024-11-27_16h08.48.217,Surprise recog test,2023.1.3,60.0056405172738,
210,0,210,0,,,,,,,,,,,,,,,,,,,,,,,,,,,,,,,,,,617.5678792999825,,616.6943783999886,616.6943783999886,616.6943783999886,616.6943783999886,new_stationery_16.png,211,5.0,0.8704863999737427,,,019,01,2024-11-27_16h08.48.217,Surprise recog test,2023.1.3,60.0056405172738,
211,0,211,0,,,,,,,,,,,,,,,,,,,,,,,,,,,,,,,,,,619.3493806000333,620.3673037000699,618.5842803000705,618.5842803000705,618.5842803000705,618.5842803000705,old_fruit_13.png,212,5.0,0.7588500999845564,,,019,01,2024-11-27_16h08.48.217,Surprise recog test,2023.1.3,60.0056405172738,
212,0,212,0,,,,,,,,,,,,,,,,,,,,,,,,,,,,,,,,,,621.1839275000384,622.1905325000407,620.3673037000699,620.3673037000699,620.3673037000699,620.3673037000699,new_sceneOut_32.png,213,5.0,0.8181960000656545,,,019,01,2024-11-27_16h08.48.217,Surprise recog test,2023.1.3,60.0056405172738,
213,0,213,0,,,,,,,,,,,,,,,,,,,,,,,,,,,,,,,,,,624.0713616000721,,622.1905325000407,622.1905325000407,622.1905325000407,622.1905325000407,new_fruit_31.png,214,4.0,1.878567700041458,,,019,01,2024-11-27_16h08.48.217,Surprise recog test,2023.1.3,60.0056405172738,
214,0,214,0,,,,,,,,,,,,,,,,,,,,,,,,,,,,,,,,,,626.1176291999873,627.1327457000734,625.0950925999787,625.0950925999787,625.0950925999787,625.0950925999787,new_sceneOut_35.png,215,5.0,1.0183668999234214,,,019,01,2024-11-27_16h08.48.217,Surprise recog test,2023.1.3,60.0056405172738,
215,0,215,0,,,,,,,,,,,,,,,,,,,,,,,,,,,,,,,,,,628.7435903999722,,627.1327457000734,627.1327457000734,627.1327457000734,627.1327457000734,old_stationery_33.png,216,1.0,1.6089985000435263,,,019,01,2024-11-27_16h08.48.217,Surprise recog test,2023.1.3,60.0056405172738,
216,0,216,0,,,,,,,,,,,,,,,,,,,,,,,,,,,,,,,,,,632.1852867000271,633.2122156000696,629.7771286000498,629.7771286000498,629.7771286000498,629.7771286000498,old_stationery_17.png,217,4.0,2.4090549000538886,,,019,01,2024-11-27_16h08.48.217,Surprise recog test,2023.1.3,60.0056405172738,
217,0,217,0,,,,,,,,,,,,,,,,,,,,,,,,,,,,,,,,,,634.4810481000459,,633.2122156000696,633.2122156000696,633.2122156000696,633.2122156000696,new_stationery_27.png,218,5.0,1.2705741999670863,,,019,01,2024-11-27_16h08.48.217,Surprise recog test,2023.1.3,60.0056405172738,
218,0,218,0,,,,,,,,,,,,,,,,,,,,,,,,,,,,,,,,,,636.250531299971,,635.5010467000538,635.5010467000538,635.5010467000538,635.5010467000538,new_sceneIn_14.png,219,5.0,0.7423994999844581,,,019,01,2024-11-27_16h08.48.217,Surprise recog test,2023.1.3,60.0056405172738,
219,0,219,0,,,,,,,,,,,,,,,,,,,,,,,,,,,,,,,,,,638.5895548000699,639.6157664000057,637.2685881999787,637.2685881999787,637.2685881999787,637.2685881999787,new_fruit_35.png,220,4.0,1.3171460999874398,,,019,01,2024-11-27_16h08.48.217,Surprise recog test,2023.1.3,60.0056405172738,
220,0,220,0,,,,,,,,,,,,,,,,,,,,,,,,,,,,,,,,,,640.9936066999799,642.006519800052,639.6157664000057,639.6157664000057,639.6157664000057,639.6157664000057,old_stationery_16.png,221,1.0,1.380420200061053,,,019,01,2024-11-27_16h08.48.217,Surprise recog test,2023.1.3,60.0056405172738,
221,0,221,0,,,,,,,,,,,,,,,,,,,,,,,,,,,,,,,,,,643.4012823000085,644.4138385000406,642.006519800052,642.006519800052,642.006519800052,642.006519800052,new_fruit_20.png,222,4.0,1.3899013000773266,,,019,01,2024-11-27_16h08.48.217,Surprise recog test,2023.1.3,60.0056405172738,
222,0,222,0,,,,,,,,,,,,,,,,,,,,,,,,,,,,,,,,,,645.54049699998,,644.4138385000406,644.4138385000406,644.4138385000406,644.4138385000406,old_sceneIn_20.png,223,5.0,1.1274607999948785,,,019,01,2024-11-27_16h08.48.217,Surprise recog test,2023.1.3,60.0056405172738,
223,0,223,0,,,,,,,,,,,,,,,,,,,,,,,,,,,,,,,,,,647.7309596000705,648.7562465000665,646.561645800015,646.561645800015,646.561645800015,646.561645800015,old_sceneOut_37.png,224,5.0,1.1654986999928951,,,019,01,2024-11-27_16h08.48.217,Surprise recog test,2023.1.3,60.0056405172738,
224,0,224,0,,,,,,,,,,,,,,,,,,,,,,,,,,,,,,,,,,649.6083143000724,650.6159777999856,648.7562465000665,648.7562465000665,648.7562465000665,648.7562465000665,new_stationery_19.png,225,5.0,0.8486100999871269,,,019,01,2024-11-27_16h08.48.217,Surprise recog test,2023.1.3,60.0056405172738,
225,0,225,0,,,,,,,,,,,,,,,,,,,,,,,,,,,,,,,,,,651.4609068999998,,650.6159777999856,650.6159777999856,650.6159777999856,650.6159777999856,new_sceneOut_24.png,226,5.0,0.8366414000047371,,,019,01,2024-11-27_16h08.48.217,Surprise recog test,2023.1.3,60.0056405172738,
226,0,226,0,,,,,,,,,,,,,,,,,,,,,,,,,,,,,,,,,,653.3092764000176,654.3179457000224,652.4963452999946,652.4963452999946,652.4963452999946,652.4963452999946,old_sceneOut_20.png,227,5.0,0.8154079000232741,,,019,01,2024-11-27_16h08.48.217,Surprise recog test,2023.1.3,60.0056405172738,
227,0,227,0,,,,,,,,,,,,,,,,,,,,,,,,,,,,,,,,,,655.0283347000368,656.047633600072,654.3179457000224,654.3179457000224,654.3179457000224,654.3179457000224,new_sceneOut_21.png,228,5.0,0.7042456000344828,,,019,01,2024-11-27_16h08.48.217,Surprise recog test,2023.1.3,60.0056405172738,
228,0,228,0,,,,,,,,,,,,,,,,,,,,,,,,,,,,,,,,,,657.5479844000656,658.562159400084,656.047633600072,656.047633600072,656.047633600072,656.047633600072,old_stationery_5.png,229,1.0,1.5016391999088228,,,019,01,2024-11-27_16h08.48.217,Surprise recog test,2023.1.3,60.0056405172738,
229,0,229,0,,,,,,,,,,,,,,,,,,,,,,,,,,,,,,,,,,659.9128703000024,660.9412040000316,658.562159400084,658.562159400084,658.562159400084,658.562159400084,new_sceneIn_28.png,230,5.0,1.3511212999001145,,,019,01,2024-11-27_16h08.48.217,Surprise recog test,2023.1.3,60.0056405172738,
230,0,230,0,,,,,,,,,,,,,,,,,,,,,,,,,,,,,,,,,,661.9918706000317,663.0247702000197,660.9412040000316,660.9412040000316,660.9412040000316,660.9412040000316,new_stationery_45.png,231,5.0,1.053803400020115,,,019,01,2024-11-27_16h08.48.217,Surprise recog test,2023.1.3,60.0056405172738,
231,0,231,0,,,,,,,,,,,,,,,,,,,,,,,,,,,,,,,,,,663.7762631999794,664.8087746000383,663.0247702000197,663.0247702000197,663.0247702000197,663.0247702000197,new_sceneIn_3.png,232,5.0,0.7559051000280306,,,019,01,2024-11-27_16h08.48.217,Surprise recog test,2023.1.3,60.0056405172738,
232,0,232,0,,,,,,,,,,,,,,,,,,,,,,,,,,,,,,,,,,665.5762372000609,666.5992911000503,664.8087746000383,664.8087746000383,664.8087746000383,664.8087746000383,old_sceneOut_36.png,233,5.0,0.7689594000112265,,,019,01,2024-11-27_16h08.48.217,Surprise recog test,2023.1.3,60.0056405172738,
233,0,233,0,,,,,,,,,,,,,,,,,,,,,,,,,,,,,,,,,,667.7483863000525,668.7768340000184,666.5992911000503,666.5992911000503,666.5992911000503,666.5992911000503,old_sceneIn_30.png,234,5.0,1.1472250999649987,,,019,01,2024-11-27_16h08.48.217,Surprise recog test,2023.1.3,60.0056405172738,
234,0,234,0,,,,,,,,,,,,,,,,,,,,,,,,,,,,,,,,,,669.5967889999738,670.6134948000545,668.7768340000184,668.7768340000184,668.7768340000184,668.7768340000184,new_sceneOut_15.png,235,5.0,0.8211546000093222,,,019,01,2024-11-27_16h08.48.217,Surprise recog test,2023.1.3,60.0056405172738,
235,0,235,0,,,,,,,,,,,,,,,,,,,,,,,,,,,,,,,,,,671.6318291000789,672.6541348000756,670.6134948000545,670.6134948000545,670.6134948000545,670.6134948000545,new_fruit_34.png,236,5.0,1.0142125999554992,,,019,01,2024-11-27_16h08.48.217,Surprise recog test,2023.1.3,60.0056405172738,
236,0,236,0,,,,,,,,,,,,,,,,,,,,,,,,,,,,,,,,,,673.6569459000602,674.667186900042,672.6541348000756,672.6541348000756,672.6541348000756,672.6541348000756,old_sceneOut_13.png,237,5.0,1.0012656000908464,,,019,01,2024-11-27_16h08.48.217,Surprise recog test,2023.1.3,60.0056405172738,
237,0,237,0,,,,,,,,,,,,,,,,,,,,,,,,,,,,,,,,,,676.3228297000751,677.3475809000665,674.667186900042,674.667186900042,674.667186900042,674.667186900042,new_stationery_35.png,238,1.0,1.6494950999040157,,,019,01,2024-11-27_16h08.48.217,Surprise recog test,2023.1.3,60.0056405172738,
238,0,238,0,,,,,,,,,,,,,,,,,,,,,,,,,,,,,,,,,,678.8674265000736,,677.3475809000665,677.3475809000665,677.3475809000665,677.3475809000665,new_sceneOut_27.png,239,5.0,1.5194969000294805,,,019,01,2024-11-27_16h08.48.217,Surprise recog test,2023.1.3,60.0056405172738,
239,0,239,0,,,,,,,,,,,,,,,,,,,,,,,,,,,,,,,,,,680.8388311000308,681.8579315000679,679.9026957000606,679.9026957000606,679.9026957000606,679.9026957000606,new_sceneIn_6.png,240,5.0,0.9372436000267044,,,019,01,2024-11-27_16h08.48.217,Surprise recog test,2023.1.3,60.0056405172738,
240,0,240,0,,,,,,,,,,,,,,,,,,,,,,,,,,,,,,,,,,682.8933271999704,683.9079943000106,681.8579315000679,681.8579315000679,681.8579315000679,681.8579315000679,old_sceneIn_16.png,241,5.0,1.030958899995312,,,019,01,2024-11-27_16h08.48.217,Surprise recog test,2023.1.3,60.0056405172738,
241,0,241,0,,,,,,,,,,,,,,,,,,,,,,,,,,,,,,,,,,685.247140099993,686.273096500081,683.9079943000106,683.9079943000106,683.9079943000106,683.9079943000106,old_stationery_28.png,242,1.0,1.3348444999428466,,,019,01,2024-11-27_16h08.48.217,Surprise recog test,2023.1.3,60.0056405172738,
242,0,242,0,,,,,,,,,,,,,,,,,,,,,,,,,,,,,,,,,,687.7263005999848,,686.273096500081,686.273096500081,686.273096500081,686.273096500081,new_sceneOut_40.png,243,5.0,1.4528312999755144,,,019,01,2024-11-27_16h08.48.217,Surprise recog test,2023.1.3,60.0056405172738,
243,0,243,0,,,,,,,,,,,,,,,,,,,,,,,,,,,,,,,,,,690.0318420999683,691.0585263000103,688.7560560000129,688.7560560000129,688.7560560000129,688.7560560000129,old_stationery_21.png,244,1.0,1.2772360999369994,,,019,01,2024-11-27_16h08.48.217,Surprise recog test,2023.1.3,60.0056405172738,
244,0,244,0,,,,,,,,,,,,,,,,,,,,,,,,,,,,,,,,,,692.5495712000411,693.5718575000064,691.0585263000103,691.0585263000103,691.0585263000103,691.0585263000103,new_sceneIn_36.png,245,5.0,1.4904930000193417,,,019,01,2024-11-27_16h08.48.217,Surprise recog test,2023.1.3,60.0056405172738,
245,0,245,0,,,,,,,,,,,,,,,,,,,,,,,,,,,,,,,,,,695.3044767000247,696.3311528000049,693.5718575000064,693.5718575000064,693.5718575000064,693.5718575000064,new_stationery_43.png,246,5.0,1.7307589000556618,,,019,01,2024-11-27_16h08.48.217,Surprise recog test,2023.1.3,60.0056405172738,
246,0,246,0,,,,,,,,,,,,,,,,,,,,,,,,,,,,,,,,,,697.2981423999881,698.3178911000723,696.3311528000049,696.3311528000049,696.3311528000049,696.3311528000049,new_stationery_39.png,247,5.0,0.9660499000456184,,,019,01,2024-11-27_16h08.48.217,Surprise recog test,2023.1.3,60.0056405172738,
247,0,247,0,,,,,,,,,,,,,,,,,,,,,,,,,,,,,,,,,,699.9029670000309,,698.3178911000723,698.3178911000723,698.3178911000723,698.3178911000723,old_stationery_14.png,248,1.0,1.5871028000256047,,,019,01,2024-11-27_16h08.48.217,Surprise recog test,2023.1.3,60.0056405172738,
248,0,248,0,,,,,,,,,,,,,,,,,,,,,,,,,,,,,,,,,,702.3004535000073,703.3223613000009,700.9224477000535,700.9224477000535,700.9224477000535,700.9224477000535,old_sceneOut_24.png,249,5.0,1.3735360000282526,,,019,01,2024-11-27_16h08.48.217,Surprise recog test,2023.1.3,60.0056405172738,
249,0,249,0,,,,,,,,,,,,,,,,,,,,,,,,,,,,,,,,,,705.3801458000671,706.3946791000199,703.3223613000009,703.3223613000009,703.3223613000009,703.3223613000009,old_sceneIn_13.png,250,3.0,2.0579043000470847,,,019,01,2024-11-27_16h08.48.217,Surprise recog test,2023.1.3,60.0056405172738,
250,0,250,0,,,,,,,,,,,,,,,,,,,,,,,,,,,,,,,,,,707.7195634000236,708.74323370005,706.3946791000199,706.3946791000199,706.3946791000199,706.3946791000199,new_sceneIn_38.png,251,3.0,1.319726899964735,,,019,01,2024-11-27_16h08.48.217,Surprise recog test,2023.1.3,60.0056405172738,
251,0,251,0,,,,,,,,,,,,,,,,,,,,,,,,,,,,,,,,,,709.9737154999748,710.995326400036,708.74323370005,708.74323370005,708.74323370005,708.74323370005,new_stationery_12.png,252,1.0,1.2256712999660522,,,019,01,2024-11-27_16h08.48.217,Surprise recog test,2023.1.3,60.0056405172738,
252,0,252,0,,,,,,,,,,,,,,,,,,,,,,,,,,,,,,,,,,712.7594105000608,713.7777049000142,710.995326400036,710.995326400036,710.995326400036,710.995326400036,new_sceneIn_7.png,253,4.0,1.7659077999414876,,,019,01,2024-11-27_16h08.48.217,Surprise recog test,2023.1.3,60.0056405172738,
253,0,253,0,,,,,,,,,,,,,,,,,,,,,,,,,,,,,,,,,,715.2479309000773,,713.7777049000142,713.7777049000142,713.7777049000142,713.7777049000142,old_fruit_20.png,254,4.0,1.471856499905698,,,019,01,2024-11-27_16h08.48.217,Surprise recog test,2023.1.3,60.0056405172738,
254,0,254,0,,,,,,,,,,,,,,,,,,,,,,,,,,,,,,,,,,718.0730495000025,719.1010381000815,716.2854453000473,716.2854453000473,716.2854453000473,716.2854453000473,old_sceneOut_27.png,255,5.0,1.791228299960494,,,019,01,2024-11-27_16h08.48.217,Surprise recog test,2023.1.3,60.0056405172738,
255,0,255,0,,,,,,,,,,,,,,,,,,,,,,,,,,,,,,,,,,720.3222277000314,721.3517360000405,719.1010381000815,719.1010381000815,719.1010381000815,719.1010381000815,new_sceneOut_46.png,256,5.0,1.2219689000630751,,,019,01,2024-11-27_16h08.48.217,Surprise recog test,2023.1.3,60.0056405172738,
256,0,256,0,,,,,,,,,,,,,,,,,,,,,,,,,,,,,,,,,,722.2671033000806,723.2761637000367,721.3517360000405,721.3517360000405,721.3517360000405,721.3517360000405,new_sceneIn_16.png,257,5.0,0.9177521000383422,,,019,01,2024-11-27_16h08.48.217,Surprise recog test,2023.1.3,60.0056405172738,
257,0,257,0,,,,,,,,,,,,,,,,,,,,,,,,,,,,,,,,,,724.7927832000423,725.8223817000398,723.2761637000367,723.2761637000367,723.2761637000367,723.2761637000367,new_fruit_28.png,258,3.0,1.5120491000125185,,,019,01,2024-11-27_16h08.48.217,Surprise recog test,2023.1.3,60.0056405172738,
258,0,258,0,,,,,,,,,,,,,,,,,,,,,,,,,,,,,,,,,,727.1228428999893,728.1347171000671,725.8223817000398,725.8223817000398,725.8223817000398,725.8223817000398,new_fruit_24.png,259,4.0,1.3029714999720454,,,019,01,2024-11-27_16h08.48.217,Surprise recog test,2023.1.3,60.0056405172738,
259,0,259,0,,,,,,,,,,,,,,,,,,,,,,,,,,,,,,,,,,729.2727431000676,730.2939679999836,728.1347171000671,728.1347171000671,728.1347171000671,728.1347171000671,new_sceneIn_30.png,260,4.0,1.1308974000858143,,,019,01,2024-11-27_16h08.48.217,Surprise recog test,2023.1.3,60.0056405172738,
260,0,260,0,,,,,,,,,,,,,,,,,,,,,,,,,,,,,,,,,,731.1165009000106,732.131994000054,730.2939679999836,730.2939679999836,730.2939679999836,730.2939679999836,old_sceneIn_24.png,261,4.0,0.8238163000205532,,,019,01,2024-11-27_16h08.48.217,Surprise recog test,2023.1.3,60.0056405172738,
261,0,261,0,,,,,,,,,,,,,,,,,,,,,,,,,,,,,,,,,,733.8983230000595,734.9271446000785,732.131994000054,732.131994000054,732.131994000054,732.131994000054,new_stationery_28.png,262,1.0,1.7638034999836236,,,019,01,2024-11-27_16h08.48.217,Surprise recog test,2023.1.3,60.0056405172738,
262,0,262,0,,,,,,,,,,,,,,,,,,,,,,,,,,,,,,,,,,736.3062975000357,737.3265485999873,734.9271446000785,734.9271446000785,734.9271446000785,734.9271446000785,new_fruit_47.png,263,4.0,1.3806812000693753,,,019,01,2024-11-27_16h08.48.217,Surprise recog test,2023.1.3,60.0056405172738,
263,0,263,0,,,,,,,,,,,,,,,,,,,,,,,,,,,,,,,,,,738.991709300084,740.0035396000603,737.3265485999873,737.3265485999873,737.3265485999873,737.3265485999873,new_sceneIn_40.png,264,5.0,1.666090999962762,,,019,01,2024-11-27_16h08.48.217,Surprise recog test,2023.1.3,60.0056405172738,
264,0,264,0,,,,,,,,,,,,,,,,,,,,,,,,,,,,,,,,,,740.9303144000005,741.9532009999966,740.0035396000603,740.0035396000603,740.0035396000603,740.0035396000603,old_sceneIn_36.png,265,5.0,0.9231840000720695,,,019,01,2024-11-27_16h08.48.217,Surprise recog test,2023.1.3,60.0056405172738,
265,0,265,0,,,,,,,,,,,,,,,,,,,,,,,,,,,,,,,,,,742.8790832000086,743.9019666999811,741.9532009999966,741.9532009999966,741.9532009999966,741.9532009999966,old_sceneIn_1.png,266,5.0,0.927873499924317,,,019,01,2024-11-27_16h08.48.217,Surprise recog test,2023.1.3,60.0056405172738,
266,0,266,0,,,,,,,,,,,,,,,,,,,,,,,,,,,,,,,,,,745.4680556000676,746.4774847000372,743.9019666999811,743.9019666999811,743.9019666999811,743.9019666999811,old_fruit_24.png,267,1.0,1.567136700032279,,,019,01,2024-11-27_16h08.48.217,Surprise recog test,2023.1.3,60.0056405172738,
267,0,267,0,,,,,,,,,,,,,,,,,,,,,,,,,,,,,,,,,,747.8750869000796,,746.4774847000372,746.4774847000372,746.4774847000372,746.4774847000372,new_fruit_38.png,268,2.0,1.3927951999939978,,,019,01,2024-11-27_16h08.48.217,Surprise recog test,2023.1.3,60.0056405172738,
268,0,268,0,,,,,,,,,,,,,,,,,,,,,,,,,,,,,,,,,,750.1904624999734,751.2111432000529,748.8959042000351,748.8959042000351,748.8959042000351,748.8959042000351,old_sceneIn_49.png,269,5.0,1.2887793000554666,,,019,01,2024-11-27_16h08.48.217,Surprise recog test,2023.1.3,60.0056405172738,
269,0,269,0,,,,,,,,,,,,,,,,,,,,,,,,,,,,,,,,,,752.7641350000631,753.7842500000261,751.2111432000529,751.2111432000529,751.2111432000529,751.2111432000529,old_fruit_25.png,270,2.0,1.554113999940455,,,019,01,2024-11-27_16h08.48.217,Surprise recog test,2023.1.3,60.0056405172738,
270,0,270,0,,,,,,,,,,,,,,,,,,,,,,,,,,,,,,,,,,754.9994821000146,756.019307599985,753.7842500000261,753.7842500000261,753.7842500000261,753.7842500000261,new_sceneIn_37.png,271,5.0,1.2128098000539467,,,019,01,2024-11-27_16h08.48.217,Surprise recog test,2023.1.3,60.0056405172738,
271,0,271,0,,,,,,,,,,,,,,,,,,,,,,,,,,,,,,,,,,757.5552492999705,758.5826147000771,756.019307599985,756.019307599985,756.019307599985,756.019307599985,old_fruit_7.png,272,4.0,1.5313190000597388,,,019,01,2024-11-27_16h08.48.217,Surprise recog test,2023.1.3,60.0056405172738,
272,0,272,0,,,,,,,,,,,,,,,,,,,,,,,,,,,,,,,,,,760.756858900073,761.77193789999,758.5826147000771,758.5826147000771,758.5826147000771,758.5826147000771,old_sceneIn_50.png,273,3.0,2.174558800063096,,,019,01,2024-11-27_16h08.48.217,Surprise recog test,2023.1.3,60.0056405172738,
273,0,273,0,,,,,,,,,,,,,,,,,,,,,,,,,,,,,,,,,,762.9353699000785,763.947607500013,761.77193789999,761.77193789999,761.77193789999,761.77193789999,new_sceneOut_20.png,274,5.0,1.1576995000941679,,,019,01,2024-11-27_16h08.48.217,Surprise recog test,2023.1.3,60.0056405172738,
274,0,274,0,,,,,,,,,,,,,,,,,,,,,,,,,,,,,,,,,,764.9359393999912,765.9573354000458,763.947607500013,763.947607500013,763.947607500013,763.947607500013,old_sceneIn_47.png,275,5.0,0.9833101999247447,,,019,01,2024-11-27_16h08.48.217,Surprise recog test,2023.1.3,60.0056405172738,
275,0,275,0,,,,,,,,,,,,,,,,,,,,,,,,,,,,,,,,,,767.5616895999992,768.5800871000392,765.9573354000458,765.9573354000458,765.9573354000458,765.9573354000458,old_stationery_22.png,276,1.0,1.6060667999554425,,,019,01,2024-11-27_16h08.48.217,Surprise recog test,2023.1.3,60.0056405172738,
276,0,276,0,,,,,,,,,,,,,,,,,,,,,,,,,,,,,,,,,,770.0792635000544,771.1097586000105,768.5800871000392,768.5800871000392,768.5800871000392,768.5800871000392,new_sceneOut_23.png,277,5.0,1.4942517000017688,,,019,01,2024-11-27_16h08.48.217,Surprise recog test,2023.1.3,60.0056405172738,
277,0,277,0,,,,,,,,,,,,,,,,,,,,,,,,,,,,,,,,,,772.1726102000102,773.184516999987,771.1097586000105,771.1097586000105,771.1097586000105,771.1097586000105,old_sceneOut_18.png,278,5.0,1.0646094999974594,,,019,01,2024-11-27_16h08.48.217,Surprise recog test,2023.1.3,60.0056405172738,
278,0,278,0,,,,,,,,,,,,,,,,,,,,,,,,,,,,,,,,,,773.9174852999859,774.9398053999757,773.184516999987,773.184516999987,773.184516999987,773.184516999987,old_sceneOut_45.png,279,5.0,0.7293484000256285,,,019,01,2024-11-27_16h08.48.217,Surprise recog test,2023.1.3,60.0056405172738,
279,0,279,0,,,,,,,,,,,,,,,,,,,,,,,,,,,,,,,,,,776.3287289000582,777.341637799982,774.9398053999757,774.9398053999757,774.9398053999757,774.9398053999757,old_sceneIn_40.png,280,5.0,1.3824363000458106,,,019,01,2024-11-27_16h08.48.217,Surprise recog test,2023.1.3,60.0056405172738,
280,0,280,0,,,,,,,,,,,,,,,,,,,,,,,,,,,,,,,,,,778.1618218000513,779.1708319999743,777.341637799982,777.341637799982,777.341637799982,777.341637799982,new_fruit_10.png,281,5.0,0.8202816999983042,,,019,01,2024-11-27_16h08.48.217,Surprise recog test,2023.1.3,60.0056405172738,
281,0,281,0,,,,,,,,,,,,,,,,,,,,,,,,,,,,,,,,,,781.1700450000353,,779.1708319999743,779.1708319999743,779.1708319999743,779.1708319999743,new_fruit_25.png,282,4.0,1.9919018999207765,,,019,01,2024-11-27_16h08.48.217,Surprise recog test,2023.1.3,60.0056405172738,
282,0,282,0,,,,,,,,,,,,,,,,,,,,,,,,,,,,,,,,,,783.7014989000745,784.7260877999943,782.1979267999995,782.1979267999995,782.1979267999995,782.1979267999995,old_fruit_19.png,283,1.0,1.502608299953863,,,019,01,2024-11-27_16h08.48.217,Surprise recog test,2023.1.3,60.0056405172738,
283,0,283,0,,,,,,,,,,,,,,,,,,,,,,,,,,,,,,,,,,786.1746533000842,,784.7260877999943,784.7260877999943,784.7260877999943,784.7260877999943,old_sceneIn_25.png,284,5.0,1.4550442000618204,,,019,01,2024-11-27_16h08.48.217,Surprise recog test,2023.1.3,60.0056405172738,
284,0,284,0,,,,,,,,,,,,,,,,,,,,,,,,,,,,,,,,,,788.5759110000217,,787.2056946000084,787.2056946000084,787.2056946000084,787.2056946000084,old_stationery_44.png,285,1.0,1.3715687000658363,,,019,01,2024-11-27_16h08.48.217,Surprise recog test,2023.1.3,60.0056405172738,
285,0,285,0,,,,,,,,,,,,,,,,,,,,,,,,,,,,,,,,,,790.9953582000453,792.0164346999954,789.6103722000262,789.6103722000262,789.6103722000262,789.6103722000262,new_sceneIn_27.png,286,5.0,1.388241000007838,,,019,01,2024-11-27_16h08.48.217,Surprise recog test,2023.1.3,60.0056405172738,
286,0,286,0,,,,,,,,,,,,,,,,,,,,,,,,,,,,,,,,,,792.9245367000112,793.936094100005,792.0164346999954,792.0164346999954,792.0164346999954,792.0164346999954,old_sceneOut_12.png,287,5.0,0.9021358999889344,,,019,01,2024-11-27_16h08.48.217,Surprise recog test,2023.1.3,60.0056405172738,
287,0,287,0,,,,,,,,,,,,,,,,,,,,,,,,,,,,,,,,,,794.831382400007,,793.936094100005,793.936094100005,793.936094100005,793.936094100005,new_sceneOut_18.png,288,5.0,0.8940800999989733,,,019,01,2024-11-27_16h08.48.217,Surprise recog test,2023.1.3,60.0056405172738,
288,0,288,0,,,,,,,,,,,,,,,,,,,,,,,,,,,,,,,,,,797.1792689000722,798.1977962000528,795.8512015000451,795.8512015000451,795.8512015000451,795.8512015000451,old_stationery_47.png,289,1.0,1.3207287000259385,,,019,01,2024-11-27_16h08.48.217,Surprise recog test,2023.1.3,60.0056405172738,
289,0,289,0,,,,,,,,,,,,,,,,,,,,,,,,,,,,,,,,,,799.2811008000281,800.2902284000302,798.1977962000528,798.1977962000528,798.1977962000528,798.1977962000528,old_sceneOut_40.png,290,5.0,1.078786400030367,,,019,01,2024-11-27_16h08.48.217,Surprise recog test,2023.1.3,60.0056405172738,
290,0,290,0,,,,,,,,,,,,,,,,,,,,,,,,,,,,,,,,,,801.0324711999856,802.0407952000387,800.2902284000302,800.2902284000302,800.2902284000302,800.2902284000302,new_sceneIn_15.png,291,5.0,0.7333358000032604,,,019,01,2024-11-27_16h08.48.217,Surprise recog test,2023.1.3,60.0056405172738,
291,0,291,0,,,,,,,,,,,,,,,,,,,,,,,,,,,,,,,,,,803.9146742000012,804.9276592000388,802.0407952000387,802.0407952000387,802.0407952000387,802.0407952000387,old_stationery_30.png,292,3.0,1.8698203000240028,,,019,01,2024-11-27_16h08.48.217,Surprise recog test,2023.1.3,60.0056405172738,
292,0,292,0,,,,,,,,,,,,,,,,,,,,,,,,,,,,,,,,,,806.7494388000341,807.7672853000695,804.9276592000388,804.9276592000388,804.9276592000388,804.9276592000388,new_stationery_50.png,293,4.0,1.8182125000748783,,,019,01,2024-11-27_16h08.48.217,Surprise recog test,2023.1.3,60.0056405172738,
293,0,293,0,,,,,,,,,,,,,,,,,,,,,,,,,,,,,,,,,,808.6635828000726,809.6776913000504,807.7672853000695,807.7672853000695,807.7672853000695,807.7672853000695,old_sceneIn_12.png,294,4.0,0.8968150999862701,,,019,01,2024-11-27_16h08.48.217,Surprise recog test,2023.1.3,60.0056405172738,
294,0,294,0,,,,,,,,,,,,,,,,,,,,,,,,,,,,,,,,,,810.7057642000727,811.7127813000698,809.6776913000504,809.6776913000504,809.6776913000504,809.6776913000504,old_sceneOut_17.png,295,4.0,1.0228724000044167,,,019,01,2024-11-27_16h08.48.217,Surprise recog test,2023.1.3,60.0056405172738,
295,0,295,0,,,,,,,,,,,,,,,,,,,,,,,,,,,,,,,,,,813.1039074000437,814.1274266000837,811.7127813000698,811.7127813000698,811.7127813000698,811.7127813000698,old_sceneIn_2.png,296,5.0,1.3878506000619382,,,019,01,2024-11-27_16h08.48.217,Surprise recog test,2023.1.3,60.0056405172738,
296,0,296,0,,,,,,,,,,,,,,,,,,,,,,,,,,,,,,,,,,815.1783349000616,816.192686000024,814.1274266000837,814.1274266000837,814.1274266000837,814.1274266000837,old_sceneIn_15.png,297,5.0,1.0507111999904737,,,019,01,2024-11-27_16h08.48.217,Surprise recog test,2023.1.3,60.0056405172738,
297,0,297,0,,,,,,,,,,,,,,,,,,,,,,,,,,,,,,,,,,817.4625082999701,818.4811970000155,816.192686000024,816.192686000024,816.192686000024,816.192686000024,new_fruit_29.png,298,5.0,1.2692715000594035,,,019,01,2024-11-27_16h08.48.217,Surprise recog test,2023.1.3,60.0056405172738,
298,0,298,0,,,,,,,,,,,,,,,,,,,,,,,,,,,,,,,,,,819.2844622000121,,818.4811970000155,818.4811970000155,818.4811970000155,818.4811970000155,new_sceneOut_26.png,299,5.0,0.8039805999724194,,,019,01,2024-11-27_16h08.48.217,Surprise recog test,2023.1.3,60.0056405172738,
299,0,299,0,,,,,,,,,,,,,,,,,,,,,,,,,,,,,,,,,,821.3032754000742,,820.322154100053,820.322154100053,820.322154100053,820.322154100053,old_sceneIn_39.png,300,5.0,0.9845861999783665,,,019,01,2024-11-27_16h08.48.217,Surprise recog test,2023.1.3,60.0056405172738,
300,0,300,0,,,,,,,,,,,,,,,,,,,,,,,,,,,,,,,,,,823.4885967000155,,822.3298910000594,822.3298910000594,822.3298910000594,822.3298910000594,old_sceneIn_8.png,301,5.0,1.159745099954307,,,019,01,2024-11-27_16h08.48.217,Surprise recog test,2023.1.3,60.0056405172738,
301,0,301,0,,,,,,,,,,,,,,,,,,,,,,,,,,,,,,,,,,825.9463229000103,826.9732645000331,824.5262947999872,824.5262947999872,824.5262947999872,824.5262947999872,old_sceneOut_44.png,302,5.0,1.4194604000076652,,,019,01,2024-11-27_16h08.48.217,Surprise recog test,2023.1.3,60.0056405172738,
302,0,302,0,,,,,,,,,,,,,,,,,,,,,,,,,,,,,,,,,,827.9527659000596,828.9751706999959,826.9732645000331,826.9732645000331,826.9732645000331,826.9732645000331,old_sceneIn_27.png,303,5.0,0.978819000069052,,,019,01,2024-11-27_16h08.48.217,Surprise recog test,2023.1.3,60.0056405172738,
303,0,303,0,,,,,,,,,,,,,,,,,,,,,,,,,,,,,,,,,,830.7988446999807,831.8329033000628,828.9751706999959,828.9751706999959,828.9751706999959,828.9751706999959,new_fruit_3.png,304,3.0,1.825979599962011,,,019,01,2024-11-27_16h08.48.217,Surprise recog test,2023.1.3,60.0056405172738,
304,0,304,0,,,,,,,,,,,,,,,,,,,,,,,,,,,,,,,,,,833.0618559999857,,831.8329033000628,831.8329033000628,831.8329033000628,831.8329033000628,new_fruit_33.png,305,4.0,1.2317185999127105,,,019,01,2024-11-27_16h08.48.217,Surprise recog test,2023.1.3,60.0056405172738,
305,0,305,0,,,,,,,,,,,,,,,,,,,,,,,,,,,,,,,,,,835.4804693000624,,834.0903869000031,834.0903869000031,834.0903869000031,834.0903869000031,new_fruit_2.png,306,1.0,1.3918245999375358,,,019,01,2024-11-27_16h08.48.217,Surprise recog test,2023.1.3,60.0056405172738,
306,0,306,0,,,,,,,,,,,,,,,,,,,,,,,,,,,,,,,,,,837.7707556000678,838.8055080000777,836.5076994000701,836.5076994000701,836.5076994000701,836.5076994000701,new_sceneOut_30.png,307,5.0,1.261149499914609,,,019,01,2024-11-27_16h08.48.217,Surprise recog test,2023.1.3,60.0056405172738,
307,0,307,0,,,,,,,,,,,,,,,,,,,,,,,,,,,,,,,,,,839.5454916000599,840.5553675000556,838.8055080000777,838.8055080000777,838.8055080000777,838.8055080000777,old_sceneIn_48.png,308,5.0,0.7432190000545233,,,019,01,2024-11-27_16h08.48.217,Surprise recog test,2023.1.3,60.0056405172738,
308,0,308,0,,,,,,,,,,,,,,,,,,,,,,,,,,,,,,,,,,841.3215904000681,842.3397871999769,840.5553675000556,840.5553675000556,840.5553675000556,840.5553675000556,new_stationery_20.png,309,5.0,0.7598815000383183,,,019,01,2024-11-27_16h08.48.217,Surprise recog test,2023.1.3,60.0056405172738,
309,0,309,0,,,,,,,,,,,,,,,,,,,,,,,,,,,,,,,,,,843.1321221999824,844.1530425000237,842.3397871999769,842.3397871999769,842.3397871999769,842.3397871999769,old_sceneOut_11.png,310,5.0,0.7868202000390738,,,019,01,2024-11-27_16h08.48.217,Surprise recog test,2023.1.3,60.0056405172738,
310,0,310,0,,,,,,,,,,,,,,,,,,,,,,,,,,,,,,,,,,844.9794516999973,846.0063258999726,844.1530425000237,844.1530425000237,844.1530425000237,844.1530425000237,old_sceneOut_46.png,311,5.0,0.8279383999761194,,,019,01,2024-11-27_16h08.48.217,Surprise recog test,2023.1.3,60.0056405172738,
311,0,311,0,,,,,,,,,,,,,,,,,,,,,,,,,,,,,,,,,,848.002141600009,849.0220308999997,846.0063258999726,846.0063258999726,846.0063258999726,846.0063258999726,old_fruit_5.png,312,2.0,1.9977583000436425,,,019,01,2024-11-27_16h08.48.217,Surprise recog test,2023.1.3,60.0056405172738,
312,0,312,0,,,,,,,,,,,,,,,,,,,,,,,,,,,,,,,,,,850.1527022999944,851.1652906000381,849.0220308999997,849.0220308999997,849.0220308999997,849.0220308999997,new_sceneOut_38.png,313,5.0,1.1325565999140963,,,019,01,2024-11-27_16h08.48.217,Surprise recog test,2023.1.3,60.0056405172738,
313,0,313,0,,,,,,,,,,,,,,,,,,,,,,,,,,,,,,,,,,852.4191296000499,853.4492821000749,851.1652906000381,851.1652906000381,851.1652906000381,851.1652906000381,old_sceneIn_38.png,314,5.0,1.2502442999975756,,,019,01,2024-11-27_16h08.48.217,Surprise recog test,2023.1.3,60.0056405172738,
314,0,314,0,,,,,,,,,,,,,,,,,,,,,,,,,,,,,,,,,,854.9531158000464,855.9748247000389,853.4492821000749,853.4492821000749,853.4492821000749,853.4492821000749,old_fruit_1.png,315,1.0,1.5066264000488445,,,019,01,2024-11-27_16h08.48.217,Surprise recog test,2023.1.3,60.0056405172738,
315,0,315,0,,,,,,,,,,,,,,,,,,,,,,,,,,,,,,,,,,857.2595930000534,858.267932799994,855.9748247000389,855.9748247000389,855.9748247000389,855.9748247000389,new_sceneOut_44.png,316,5.0,1.282495899940841,,,019,01,2024-11-27_16h08.48.217,Surprise recog test,2023.1.3,60.0056405172738,
316,0,316,0,,,,,,,,,,,,,,,,,,,,,,,,,,,,,,,,,,859.397633900051,860.4016833000351,858.267932799994,858.267932799994,858.267932799994,858.267932799994,new_stationery_41.png,317,5.0,1.1247384001035243,,,019,01,2024-11-27_16h08.48.217,Surprise recog test,2023.1.3,60.0056405172738,
317,0,317,0,,,,,,,,,,,,,,,,,,,,,,,,,,,,,,,,,,862.0634411000647,863.0741981000174,860.4016833000351,860.4016833000351,860.4016833000351,860.4016833000351,old_fruit_36.png,318,3.0,1.6568920999998227,,,019,01,2024-11-27_16h08.48.217,Surprise recog test,2023.1.3,60.0056405172738,
318,0,318,0,,,,,,,,,,,,,,,,,,,,,,,,,,,,,,,,,,865.2421221999684,866.2632831999799,863.0741981000174,863.0741981000174,863.0741981000174,863.0741981000174,old_fruit_39.png,319,3.0,2.1626423000125214,,,019,01,2024-11-27_16h08.48.217,Surprise recog test,2023.1.3,60.0056405172738,
319,0,319,0,,,,,,,,,,,,,,,,,,,,,,,,,,,,,,,,,,867.4708368000574,868.4840347999707,866.2632831999799,866.2632831999799,866.2632831999799,866.2632831999799,old_stationery_27.png,320,5.0,1.1996754000429064,,,019,01,2024-11-27_16h08.48.217,Surprise recog test,2023.1.3,60.0056405172738,
320,0,320,0,,,,,,,,,,,,,,,,,,,,,,,,,,,,,,,,,,869.7763017000398,,868.4840347999707,868.4840347999707,868.4840347999707,868.4840347999707,old_stationery_40.png,321,1.0,1.2905180000234395,,,019,01,2024-11-27_16h08.48.217,Surprise recog test,2023.1.3,60.0056405172738,
321,0,321,0,,,,,,,,,,,,,,,,,,,,,,,,,,,,,,,,,,872.4759000000777,873.4989725999767,870.8090259999735,870.8090259999735,870.8090259999735,870.8090259999735,new_stationery_1.png,322,3.0,1.6686396999284625,,,019,01,2024-11-27_16h08.48.217,Surprise recog test,2023.1.3,60.0056405172738,
322,0,322,0,,,,,,,,,,,,,,,,,,,,,,,,,,,,,,,,,,875.0803027000511,,873.4989725999767,873.4989725999767,873.4989725999767,873.4989725999767,old_stationery_4.png,323,1.0,1.5873238999629393,,,019,01,2024-11-27_16h08.48.217,Surprise recog test,2023.1.3,60.0056405172738,
323,0,323,0,,,,,,,,,,,,,,,,,,,,,,,,,,,,,,,,,,877.8633887000615,878.880913299974,876.1081475000829,876.1081475000829,876.1081475000829,876.1081475000829,old_fruit_23.png,324,2.0,1.757569900015369,,,019,01,2024-11-27_16h08.48.217,Surprise recog test,2023.1.3,60.0056405172738,
324,0,324,0,,,,,,,,,,,,,,,,,,,,,,,,,,,,,,,,,,880.0209014000138,881.0499288999708,878.880913299974,878.880913299974,878.880913299974,878.880913299974,old_fruit_26.png,325,3.0,1.1416923999786377,,,019,01,2024-11-27_16h08.48.217,Surprise recog test,2023.1.3,60.0056405172738,
325,0,325,0,,,,,,,,,,,,,,,,,,,,,,,,,,,,,,,,,,882.7598875999684,883.7746442999924,881.0499288999708,881.0499288999708,881.0499288999708,881.0499288999708,new_stationery_29.png,326,5.0,1.7115483999950811,,,019,01,2024-11-27_16h08.48.217,Surprise recog test,2023.1.3,60.0056405172738,
326,0,326,0,,,,,,,,,,,,,,,,,,,,,,,,,,,,,,,,,,884.5994540000102,885.618066300056,883.7746442999924,883.7746442999924,883.7746442999924,883.7746442999924,new_sceneOut_16.png,327,5.0,0.8209229001076892,,,019,01,2024-11-27_16h08.48.217,Surprise recog test,2023.1.3,60.0056405172738,
327,0,327,0,,,,,,,,,,,,,,,,,,,,,,,,,,,,,,,,,,886.5009228000417,887.5250334000448,885.618066300056,885.618066300056,885.618066300056,885.618066300056,new_stationery_5.png,328,5.0,0.8820796998916194,,,019,01,2024-11-27_16h08.48.217,Surprise recog test,2023.1.3,60.0056405172738,
328,0,328,0,,,,,,,,,,,,,,,,,,,,,,,,,,,,,,,,,,888.2933146000141,889.3243066000286,887.5250334000448,887.5250334000448,887.5250334000448,887.5250334000448,new_fruit_1.png,329,5.0,0.769868899951689,,,019,01,2024-11-27_16h08.48.217,Surprise recog test,2023.1.3,60.0056405172738,
329,0,329,0,,,,,,,,,,,,,,,,,,,,,,,,,,,,,,,,,,890.1190859000199,891.1410987999989,889.3243066000286,889.3243066000286,889.3243066000286,889.3243066000286,new_fruit_40.png,330,5.0,0.7962196000153199,,,019,01,2024-11-27_16h08.48.217,Surprise recog test,2023.1.3,60.0056405172738,
330,0,330,0,,,,,,,,,,,,,,,,,,,,,,,,,,,,,,,,,,892.5583686999744,893.5681981000816,891.1410987999989,891.1410987999989,891.1410987999989,891.1410987999989,old_fruit_8.png,331,1.0,1.4136713000480086,,,019,01,2024-11-27_16h08.48.217,Surprise recog test,2023.1.3,60.0056405172738,
331,0,331,0,,,,,,,,,,,,,,,,,,,,,,,,,,,,,,,,,,894.8650742999744,895.895940800081,893.5681981000816,893.5681981000816,893.5681981000816,893.5681981000816,new_sceneIn_24.png,332,5.0,1.2957770000211895,,,019,01,2024-11-27_16h08.48.217,Surprise recog test,2023.1.3,60.0056405172738,
332,0,332,0,,,,,,,,,,,,,,,,,,,,,,,,,,,,,,,,,,896.73661240004,897.7627277000574,895.895940800081,895.895940800081,895.895940800081,895.895940800081,new_fruit_41.png,333,5.0,0.8408183999126777,,,019,01,2024-11-27_16h08.48.217,Surprise recog test,2023.1.3,60.0056405172738,
333,0,333,0,,,,,,,,,,,,,,,,,,,,,,,,,,,,,,,,,,899.1701130999718,900.1998207999859,897.7627277000574,897.7627277000574,897.7627277000574,897.7627277000574,new_stationery_34.png,334,5.0,1.4101518000243232,,,019,01,2024-11-27_16h08.48.217,Surprise recog test,2023.1.3,60.0056405172738,
334,0,334,0,,,,,,,,,,,,,,,,,,,,,,,,,,,,,,,,,,901.4482878000708,902.4707737000426,900.1998207999859,900.1998207999859,900.1998207999859,900.1998207999859,new_stationery_2.png,335,5.0,1.2482225999701768,,,019,01,2024-11-27_16h08.48.217,Surprise recog test,2023.1.3,60.0056405172738,
335,0,335,0,,,,,,,,,,,,,,,,,,,,,,,,,,,,,,,,,,903.4092186000198,904.425281999982,902.4707737000426,902.4707737000426,902.4707737000426,902.4707737000426,old_fruit_2.png,336,5.0,0.9417703000362962,,,019,01,2024-11-27_16h08.48.217,Surprise recog test,2023.1.3,60.0056405172738,
336,0,336,0,,,,,,,,,,,,,,,,,,,,,,,,,,,,,,,,,,905.1301607000642,906.1555694000563,904.425281999982,904.425281999982,904.425281999982,904.425281999982,old_sceneOut_48.png,337,5.0,0.6999009000137448,,,019,01,2024-11-27_16h08.48.217,Surprise recog test,2023.1.3,60.0056405172738,
337,0,337,0,,,,,,,,,,,,,,,,,,,,,,,,,,,,,,,,,,907.9132573000388,908.9482429000782,906.1555694000563,906.1555694000563,906.1555694000563,906.1555694000563,old_fruit_43.png,338,1.0,1.7593122000107542,,,019,01,2024-11-27_16h08.48.217,Surprise recog test,2023.1.3,60.0056405172738,
338,0,338,0,,,,,,,,,,,,,,,,,,,,,,,,,,,,,,,,,,910.5593456000788,,908.9482429000782,908.9482429000782,908.9482429000782,908.9482429000782,new_fruit_44.png,339,4.0,1.6155175999738276,,,019,01,2024-11-27_16h08.48.217,Surprise recog test,2023.1.3,60.0056405172738,
339,0,339,0,,,,,,,,,,,,,,,,,,,,,,,,,,,,,,,,,,912.9269323999761,913.9295493999962,911.5804588000756,911.5804588000756,911.5804588000756,911.5804588000756,new_stationery_40.png,340,5.0,1.3386607998982072,,,019,01,2024-11-27_16h08.48.217,Surprise recog test,2023.1.3,60.0056405172738,
340,0,340,0,,,,,,,,,,,,,,,,,,,,,,,,,,,,,,,,,,915.0628366000019,,913.9295493999962,913.9295493999962,913.9295493999962,913.9295493999962,old_stationery_13.png,341,5.0,1.1248516000341624,,,019,01,2024-11-27_16h08.48.217,Surprise recog test,2023.1.3,60.0056405172738,
341,0,341,0,,,,,,,,,,,,,,,,,,,,,,,,,,,,,,,,,,916.7282730999868,917.7450718000764,916.0974430000642,916.0974430000642,916.0974430000642,916.0974430000642,new_sceneOut_43.png,342,5.0,0.6275489999679849,,,019,01,2024-11-27_16h08.48.217,Surprise recog test,2023.1.3,60.0056405172738,
342,0,342,0,,,,,,,,,,,,,,,,,,,,,,,,,,,,,,,,,,918.6048839000287,919.6284647000721,917.7450718000764,917.7450718000764,917.7450718000764,917.7450718000764,new_fruit_6.png,343,5.0,0.8607445999514312,,,019,01,2024-11-27_16h08.48.217,Surprise recog test,2023.1.3,60.0056405172738,
343,0,343,0,,,,,,,,,,,,,,,,,,,,,,,,,,,,,,,,,,920.4912094000028,921.5184923000634,919.6284647000721,919.6284647000721,919.6284647000721,919.6284647000721,new_sceneIn_41.png,344,5.0,0.8613215000368655,,,019,01,2024-11-27_16h08.48.217,Surprise recog test,2023.1.3,60.0056405172738,
344,0,344,0,,,,,,,,,,,,,,,,,,,,,,,,,,,,,,,,,,922.62420630001,923.6409144999925,921.5184923000634,921.5184923000634,921.5184923000634,921.5184923000634,new_stationery_25.png,345,5.0,1.1057997000170872,,,019,01,2024-11-27_16h08.48.217,Surprise recog test,2023.1.3,60.0056405172738,
345,0,345,0,,,,,,,,,,,,,,,,,,,,,,,,,,,,,,,,,,924.3425985000795,925.3673645000672,923.6409144999925,923.6409144999925,923.6409144999925,923.6409144999925,old_fruit_41.png,346,5.0,0.695344700012356,,,019,01,2024-11-27_16h08.48.217,Surprise recog test,2023.1.3,60.0056405172738,
346,0,346,0,,,,,,,,,,,,,,,,,,,,,,,,,,,,,,,,,,926.4726307999808,,925.3673645000672,925.3673645000672,925.3673645000672,925.3673645000672,new_stationery_7.png,347,5.0,1.1042830999940634,,,019,01,2024-11-27_16h08.48.217,Surprise recog test,2023.1.3,60.0056405172738,
347,0,347,0,,,,,,,,,,,,,,,,,,,,,,,,,,,,,,,,,,928.2170862000203,929.2366800999735,927.5019637000514,927.5019637000514,927.5019637000514,927.5019637000514,old_sceneOut_29.png,348,5.0,0.7154241999378428,,,019,01,2024-11-27_16h08.48.217,Surprise recog test,2023.1.3,60.0056405172738,
348,0,348,0,,,,,,,,,,,,,,,,,,,,,,,,,,,,,,,,,,929.9505778000457,930.9787926999852,929.2366800999735,929.2366800999735,929.2366800999735,929.2366800999735,old_sceneOut_23.png,349,5.0,0.708422499941662,,,019,01,2024-11-27_16h08.48.217,Surprise recog test,2023.1.3,60.0056405172738,
349,0,349,0,,,,,,,,,,,,,,,,,,,,,,,,,,,,,,,,,,931.7787452000193,932.8071677000262,930.9787926999852,930.9787926999852,930.9787926999852,930.9787926999852,new_sceneIn_9.png,350,5.0,0.8023472999921069,,,019,01,2024-11-27_16h08.48.217,Surprise recog test,2023.1.3,60.0056405172738,
350,0,350,0,,,,,,,,,,,,,,,,,,,,,,,,,,,,,,,,,,934.521213100059,935.5351810000138,932.8071677000262,932.8071677000262,932.8071677000262,932.8071677000262,new_fruit_26.png,351,4.0,1.7062842000741512,,,019,01,2024-11-27_16h08.48.217,Surprise recog test,2023.1.3,60.0056405172738,
351,0,351,0,,,,,,,,,,,,,,,,,,,,,,,,,,,,,,,,,,936.9219953999855,937.934961299994,935.5351810000138,935.5351810000138,935.5351810000138,935.5351810000138,old_stationery_48.png,352,1.0,1.3822043999098241,,,019,01,2024-11-27_16h08.48.217,Surprise recog test,2023.1.3,60.0056405172738,
352,0,352,0,,,,,,,,,,,,,,,,,,,,,,,,,,,,,,,,,,940.1477003999753,941.1603610999882,937.934961299994,937.934961299994,937.934961299994,937.934961299994,old_fruit_22.png,353,3.0,2.2079580000136048,,,019,01,2024-11-27_16h08.48.217,Surprise recog test,2023.1.3,60.0056405172738,
353,0,353,0,,,,,,,,,,,,,,,,,,,,,,,,,,,,,,,,,,942.7647035999689,943.7795229000039,941.1603610999882,941.1603610999882,941.1603610999882,941.1603610999882,old_stationery_38.png,354,4.0,1.603017900022678,,,019,01,2024-11-27_16h08.48.217,Surprise recog test,2023.1.3,60.0056405172738,
354,0,354,0,,,,,,,,,,,,,,,,,,,,,,,,,,,,,,,,,,944.7851621999871,945.7989282000344,943.7795229000039,943.7795229000039,943.7795229000039,943.7795229000039,new_sceneOut_33.png,355,5.0,1.0068787999916822,,,019,01,2024-11-27_16h08.48.217,Surprise recog test,2023.1.3,60.0056405172738,
