trial_loop.thisRepN,trial_loop.thisTrialN,trial_loop.thisN,trial_loop.thisIndex,VAS_slider.started,VAS_text.started,VAS_notstressed_text.started,VAS_stressed_text.started,continue_input.started,continue_text.started,label0.started,label10.started,label20.started,label30.started,label40.started,label50.started,label60.started,label70.started,label80.started,label90.started,label100.started,VAS_slider.response,VAS_slider.rt,VAS_slider.history,Answer_VAS,continue_input.keys,continue_input.rt,continue_input.duration,instruction_text.started,continue_text_2.started,continue_input_2.started,continue_input_2.keys,continue_input_2.rt,continue_input_2.duration,example_text.started,example_slider_2.started,example_image.started,example_slider_2.response,example_slider_2.rt,fixcross.started,fixcross.stopped,front_square.started,stim_images.started,trial_inst_images.started,slider_images.started,thisImg,trial_count,slider_images.response,slider_images.rt,outro.started,participant,condition,date,expName,psychopyVersion,frameRate,
,,,,28.704647399950773,28.704647399950773,28.704647399950773,28.704647399950773,28.704647399950773,28.704647399950773,28.704647399950773,28.704647399950773,28.704647399950773,28.704647399950773,28.704647399950773,28.704647399950773,28.704647399950773,28.704647399950773,28.704647399950773,28.704647399950773,28.704647399950773,None,None,[],3.48,space,13.894348199944943,None,,,,,,,,,,,,,,,,,,,,,,,021,0,2024-11-20_16h22.09.320,Surprise recog test,2023.1.3,59.983864329359186,
,,,,,,,,,,,,,,,,,,,,,,,,,,,,42.67010769993067,42.67010769993067,42.67010769993067,space,9.640655199997127,None,,,,,,,,,,,,,,,,,021,0,2024-11-20_16h22.09.320,Surprise recog test,2023.1.3,59.983864329359186,
0,0,0,0,,,,,,,,,,,,,,,,,,,,,,,,,,,,,,,52.439840400009416,52.439840400009416,52.439840400009416,5.0,3.030646900064312,58.066093800007366,59.088401099899784,56.44465139997192,56.44465139997192,56.44465139997192,56.44465139997192,new_sceneOut_46.png,1,2.0,1.630725899944082,,021,0,2024-11-20_16h22.09.320,Surprise recog test,2023.1.3,59.983864329359186,
1,0,1,0,,,,,,,,,,,,,,,,,,,,,,,,,,,,,,,,,,,,60.39559589989949,61.40117420000024,59.088401099899784,59.088401099899784,59.088401099899784,59.088401099899784,new_stationery_38.png,2,5.0,1.303056100034155,,021,0,2024-11-20_16h22.09.320,Surprise recog test,2023.1.3,59.983864329359186,
2,0,2,0,,,,,,,,,,,,,,,,,,,,,,,,,,,,,,,,,,,,62.529620999936014,63.5499519999139,61.40117420000024,61.40117420000024,61.40117420000024,61.40117420000024,new_sceneOut_9.png,3,1.0,1.1248127999715507,,021,0,2024-11-20_16h22.09.320,Surprise recog test,2023.1.3,59.983864329359186,
3,0,3,0,,,,,,,,,,,,,,,,,,,,,,,,,,,,,,,,,,,,65.20379609998781,,63.5499519999139,63.5499519999139,63.5499519999139,63.5499519999139,new_stationery_1.png,4,3.0,1.6532929999521002,,021,0,2024-11-20_16h22.09.320,Surprise recog test,2023.1.3,59.983864329359186,
4,0,4,0,,,,,,,,,,,,,,,,,,,,,,,,,,,,,,,,,,,,68.08790049992967,,66.23726319998968,66.23726319998968,66.23726319998968,66.23726319998968,old_stationery_24.png,5,4.0,1.8542397000128403,,021,0,2024-11-20_16h22.09.320,Surprise recog test,2023.1.3,59.983864329359186,
5,0,5,0,,,,,,,,,,,,,,,,,,,,,,,,,,,,,,,,,,,,70.13988389994483,,69.12622289999854,69.12622289999854,69.12622289999854,69.12622289999854,new_sceneOut_17.png,6,2.0,1.0189588000066578,,021,0,2024-11-20_16h22.09.320,Surprise recog test,2023.1.3,59.983864329359186,
6,0,6,0,,,,,,,,,,,,,,,,,,,,,,,,,,,,,,,,,,,,72.00524729990866,73.0142249999335,71.16140499990433,71.16140499990433,71.16140499990433,71.16140499990433,new_sceneIn_22.png,7,2.0,0.8342610999243334,,021,0,2024-11-20_16h22.09.320,Surprise recog test,2023.1.3,59.983864329359186,
7,0,7,0,,,,,,,,,,,,,,,,,,,,,,,,,,,,,,,,,,,,73.82009679998737,74.84277119999751,73.0142249999335,73.0142249999335,73.0142249999335,73.0142249999335,new_sceneIn_34.png,8,1.0,0.7999733000760898,,021,0,2024-11-20_16h22.09.320,Surprise recog test,2023.1.3,59.983864329359186,
8,0,8,0,,,,,,,,,,,,,,,,,,,,,,,,,,,,,,,,,,,,75.70357989997137,76.72874859999865,74.84277119999751,74.84277119999751,74.84277119999751,74.84277119999751,old_fruit_12.png,9,1.0,0.8600480000022799,,021,0,2024-11-20_16h22.09.320,Surprise recog test,2023.1.3,59.983864329359186,
9,0,9,0,,,,,,,,,,,,,,,,,,,,,,,,,,,,,,,,,,,,78.4202607999323,79.44136349996552,76.72874859999865,76.72874859999865,76.72874859999865,76.72874859999865,new_sceneOut_1.png,10,3.0,1.6928343999898061,,021,0,2024-11-20_16h22.09.320,Surprise recog test,2023.1.3,59.983864329359186,
10,0,10,0,,,,,,,,,,,,,,,,,,,,,,,,,,,,,,,,,,,,80.60451259999536,81.62677289999556,79.44136349996552,79.44136349996552,79.44136349996552,79.44136349996552,new_sceneIn_36.png,11,4.0,1.158309599966742,,021,0,2024-11-20_16h22.09.320,Surprise recog test,2023.1.3,59.983864329359186,
11,0,11,0,,,,,,,,,,,,,,,,,,,,,,,,,,,,,,,,,,,,83.09075079998001,84.11783529992681,81.62677289999556,81.62677289999556,81.62677289999556,81.62677289999556,old_stationery_13.png,12,2.0,1.4644114000257105,,021,0,2024-11-20_16h22.09.320,Surprise recog test,2023.1.3,59.983864329359186,
12,0,12,0,,,,,,,,,,,,,,,,,,,,,,,,,,,,,,,,,,,,85.43069489998743,86.4480078999186,84.11783529992681,84.11783529992681,84.11783529992681,84.11783529992681,old_sceneOut_3.png,13,4.0,1.314773799967952,,021,0,2024-11-20_16h22.09.320,Surprise recog test,2023.1.3,59.983864329359186,
13,0,13,0,,,,,,,,,,,,,,,,,,,,,,,,,,,,,,,,,,,,87.4810932999244,88.50898439995944,86.4480078999186,86.4480078999186,86.4480078999186,86.4480078999186,new_sceneIn_15.png,14,4.0,1.0305301999906078,,021,0,2024-11-20_16h22.09.320,Surprise recog test,2023.1.3,59.983864329359186,
14,0,14,0,,,,,,,,,,,,,,,,,,,,,,,,,,,,,,,,,,,,89.39631380001083,90.41520369995851,88.50898439995944,88.50898439995944,88.50898439995944,88.50898439995944,new_sceneIn_42.png,15,4.0,0.8909779000096023,,021,0,2024-11-20_16h22.09.320,Surprise recog test,2023.1.3,59.983864329359186,
15,0,15,0,,,,,,,,,,,,,,,,,,,,,,,,,,,,,,,,,,,,91.91994759999216,92.93779060000088,90.41520369995851,90.41520369995851,90.41520369995851,90.41520369995851,old_stationery_23.png,16,3.0,1.5036346999695525,,021,0,2024-11-20_16h22.09.320,Surprise recog test,2023.1.3,59.983864329359186,
16,0,16,0,,,,,,,,,,,,,,,,,,,,,,,,,,,,,,,,,,,,94.09241559996735,95.10997919994406,92.93779060000088,92.93779060000088,92.93779060000088,92.93779060000088,new_stationery_33.png,17,2.0,1.155708899954334,,021,0,2024-11-20_16h22.09.320,Surprise recog test,2023.1.3,59.983864329359186,
17,0,17,0,,,,,,,,,,,,,,,,,,,,,,,,,,,,,,,,,,,,96.50068589998409,97.52204459998757,95.10997919994406,95.10997919994406,95.10997919994406,95.10997919994406,old_sceneIn_33.png,18,1.0,1.3922517000464723,,021,0,2024-11-20_16h22.09.320,Surprise recog test,2023.1.3,59.983864329359186,
18,0,18,0,,,,,,,,,,,,,,,,,,,,,,,,,,,,,,,,,,,,98.36361339990981,,97.52204459998757,97.52204459998757,97.52204459998757,97.52204459998757,new_fruit_14.png,19,1.0,0.8420216999948025,,021,0,2024-11-20_16h22.09.320,Surprise recog test,2023.1.3,59.983864329359186,
19,0,19,0,,,,,,,,,,,,,,,,,,,,,,,,,,,,,,,,,,,,100.26594469998963,,99.38489019998815,99.38489019998815,99.38489019998815,99.38489019998815,old_stationery_15.png,20,1.0,0.8758640999440104,,021,0,2024-11-20_16h22.09.320,Surprise recog test,2023.1.3,59.983864329359186,
20,0,20,0,,,,,,,,,,,,,,,,,,,,,,,,,,,,,,,,,,,,101.8240978999529,102.83723539998755,101.29827949998435,101.29827949998435,101.29827949998435,101.29827949998435,new_fruit_32.png,21,1.0,0.5261187000432983,,021,0,2024-11-20_16h22.09.320,Surprise recog test,2023.1.3,59.983864329359186,
21,0,21,0,,,,,,,,,,,,,,,,,,,,,,,,,,,,,,,,,,,,103.99636699992698,105.0070714999456,102.83723539998755,102.83723539998755,102.83723539998755,102.83723539998755,new_sceneIn_13.png,22,5.0,1.1546617000130937,,021,0,2024-11-20_16h22.09.320,Surprise recog test,2023.1.3,59.983864329359186,
22,0,22,0,,,,,,,,,,,,,,,,,,,,,,,,,,,,,,,,,,,,106.21653819992207,107.23422629991546,105.0070714999456,105.0070714999456,105.0070714999456,105.0070714999456,old_stationery_10.png,23,5.0,1.2028019999852404,,021,0,2024-11-20_16h22.09.320,Surprise recog test,2023.1.3,59.983864329359186,
23,0,23,0,,,,,,,,,,,,,,,,,,,,,,,,,,,,,,,,,,,,108.23713769996539,109.2575477999635,107.23422629991546,107.23422629991546,107.23422629991546,107.23422629991546,old_fruit_14.png,24,2.0,1.0045004000421613,,021,0,2024-11-20_16h22.09.320,Surprise recog test,2023.1.3,59.983864329359186,
24,0,24,0,,,,,,,,,,,,,,,,,,,,,,,,,,,,,,,,,,,,110.31243849999737,111.33979339990765,109.2575477999635,109.2575477999635,109.2575477999635,109.2575477999635,new_sceneOut_36.png,25,4.0,1.0567460999591276,,021,0,2024-11-20_16h22.09.320,Surprise recog test,2023.1.3,59.983864329359186,
25,0,25,0,,,,,,,,,,,,,,,,,,,,,,,,,,,,,,,,,,,,113.02491889998782,,111.33979339990765,111.33979339990765,111.33979339990765,111.33979339990765,new_sceneOut_50.png,26,4.0,1.6840473000193015,,021,0,2024-11-20_16h22.09.320,Surprise recog test,2023.1.3,59.983864329359186,
26,0,26,0,,,,,,,,,,,,,,,,,,,,,,,,,,,,,,,,,,,,115.40255160001107,116.42874739994295,114.05131569993682,114.05131569993682,114.05131569993682,114.05131569993682,new_sceneIn_25.png,27,5.0,1.3487932999851182,,021,0,2024-11-20_16h22.09.320,Surprise recog test,2023.1.3,59.983864329359186,
27,0,27,0,,,,,,,,,,,,,,,,,,,,,,,,,,,,,,,,,,,,117.80761639995035,118.83151889999863,116.42874739994295,116.42874739994295,116.42874739994295,116.42874739994295,new_sceneOut_40.png,28,2.0,1.3818636999931186,,021,0,2024-11-20_16h22.09.320,Surprise recog test,2023.1.3,59.983864329359186,
28,0,28,0,,,,,,,,,,,,,,,,,,,,,,,,,,,,,,,,,,,,119.80455030000303,120.8365591999609,118.83151889999863,118.83151889999863,118.83151889999863,118.83151889999863,old_fruit_2.png,29,1.0,0.9753148999297991,,021,0,2024-11-20_16h22.09.320,Surprise recog test,2023.1.3,59.983864329359186,
29,0,29,0,,,,,,,,,,,,,,,,,,,,,,,,,,,,,,,,,,,,122.1102085999446,123.13287769991439,120.8365591999609,120.8365591999609,120.8365591999609,120.8365591999609,old_sceneIn_17.png,30,5.0,1.2771303999470547,,021,0,2024-11-20_16h22.09.320,Surprise recog test,2023.1.3,59.983864329359186,
30,0,30,0,,,,,,,,,,,,,,,,,,,,,,,,,,,,,,,,,,,,124.12834249995649,125.1404311999213,123.13287769991439,123.13287769991439,123.13287769991439,123.13287769991439,old_sceneIn_39.png,31,1.0,0.9957173001021147,,021,0,2024-11-20_16h22.09.320,Surprise recog test,2023.1.3,59.983864329359186,
31,0,31,0,,,,,,,,,,,,,,,,,,,,,,,,,,,,,,,,,,,,126.85538429999724,127.88135289994534,125.1404311999213,125.1404311999213,125.1404311999213,125.1404311999213,new_sceneIn_30.png,32,5.0,1.7112770999083295,,021,0,2024-11-20_16h22.09.320,Surprise recog test,2023.1.3,59.983864329359186,
32,0,32,0,,,,,,,,,,,,,,,,,,,,,,,,,,,,,,,,,,,,129.92043529998045,130.93301969999447,127.88135289994534,127.88135289994534,127.88135289994534,127.88135289994534,new_sceneIn_23.png,33,1.0,2.039172100019641,,021,0,2024-11-20_16h22.09.320,Surprise recog test,2023.1.3,59.983864329359186,
33,0,33,0,,,,,,,,,,,,,,,,,,,,,,,,,,,,,,,,,,,,132.13213819998782,133.15459940000437,130.93301969999447,130.93301969999447,130.93301969999447,130.93301969999447,old_sceneOut_40.png,34,3.0,1.1947750999825075,,021,0,2024-11-20_16h22.09.320,Surprise recog test,2023.1.3,59.983864329359186,
34,0,34,0,,,,,,,,,,,,,,,,,,,,,,,,,,,,,,,,,,,,134.29860979993828,135.32571999996435,133.15459940000437,133.15459940000437,133.15459940000437,133.15459940000437,new_sceneOut_6.png,35,2.0,1.1454428000142798,,021,0,2024-11-20_16h22.09.320,Surprise recog test,2023.1.3,59.983864329359186,
35,0,35,0,,,,,,,,,,,,,,,,,,,,,,,,,,,,,,,,,,,,136.55987359990831,137.56696799991187,135.32571999996435,135.32571999996435,135.32571999996435,135.32571999996435,new_sceneIn_32.png,36,5.0,1.2363131999736652,,021,0,2024-11-20_16h22.09.320,Surprise recog test,2023.1.3,59.983864329359186,
36,0,36,0,,,,,,,,,,,,,,,,,,,,,,,,,,,,,,,,,,,,139.51259439997375,140.5265872000018,137.56696799991187,137.56696799991187,137.56696799991187,137.56696799991187,old_sceneOut_32.png,37,3.0,1.940795399947092,,021,0,2024-11-20_16h22.09.320,Surprise recog test,2023.1.3,59.983864329359186,
37,0,37,0,,,,,,,,,,,,,,,,,,,,,,,,,,,,,,,,,,,,142.11916479992215,143.1494178000139,140.5265872000018,140.5265872000018,140.5265872000018,140.5265872000018,old_fruit_15.png,38,1.0,1.5929390999954194,,021,0,2024-11-20_16h22.09.320,Surprise recog test,2023.1.3,59.983864329359186,
38,0,38,0,,,,,,,,,,,,,,,,,,,,,,,,,,,,,,,,,,,,144.32908499997575,145.35075119999237,143.1494178000139,143.1494178000139,143.1494178000139,143.1494178000139,new_sceneOut_34.png,39,4.0,1.1785790999419987,,021,0,2024-11-20_16h22.09.320,Surprise recog test,2023.1.3,59.983864329359186,
39,0,39,0,,,,,,,,,,,,,,,,,,,,,,,,,,,,,,,,,,,,146.3927418999374,147.405539499945,145.35075119999237,145.35075119999237,145.35075119999237,145.35075119999237,new_sceneIn_49.png,40,4.0,1.043684999924153,,021,0,2024-11-20_16h22.09.320,Surprise recog test,2023.1.3,59.983864329359186,
40,0,40,0,,,,,,,,,,,,,,,,,,,,,,,,,,,,,,,,,,,,148.88284899992868,149.90674100001343,147.405539499945,147.405539499945,147.405539499945,147.405539499945,new_sceneOut_5.png,41,2.0,1.472662200103514,,021,0,2024-11-20_16h22.09.320,Surprise recog test,2023.1.3,59.983864329359186,
41,0,41,0,,,,,,,,,,,,,,,,,,,,,,,,,,,,,,,,,,,,150.9789649999002,151.99265439994633,149.90674100001343,149.90674100001343,149.90674100001343,149.90674100001343,old_stationery_21.png,42,2.0,1.0744066999759525,,021,0,2024-11-20_16h22.09.320,Surprise recog test,2023.1.3,59.983864329359186,
42,0,42,0,,,,,,,,,,,,,,,,,,,,,,,,,,,,,,,,,,,,153.20611009991262,154.2138980999589,151.99265439994633,151.99265439994633,151.99265439994633,151.99265439994633,new_sceneIn_41.png,43,5.0,1.2069202000275254,,021,0,2024-11-20_16h22.09.320,Surprise recog test,2023.1.3,59.983864329359186,
43,0,43,0,,,,,,,,,,,,,,,,,,,,,,,,,,,,,,,,,,,,155.52831470000092,,154.2138980999589,154.2138980999589,154.2138980999589,154.2138980999589,new_fruit_29.png,44,3.0,1.310228200047277,,021,0,2024-11-20_16h22.09.320,Surprise recog test,2023.1.3,59.983864329359186,
44,0,44,0,,,,,,,,,,,,,,,,,,,,,,,,,,,,,,,,,,,,157.97385770000983,158.98669099994004,156.56307029991876,156.56307029991876,156.56307029991876,156.56307029991876,old_sceneIn_7.png,45,5.0,1.4128427000250667,,021,0,2024-11-20_16h22.09.320,Surprise recog test,2023.1.3,59.983864329359186,
45,0,45,0,,,,,,,,,,,,,,,,,,,,,,,,,,,,,,,,,,,,160.167525799945,161.20348779996857,158.98669099994004,158.98669099994004,158.98669099994004,158.98669099994004,old_sceneOut_25.png,46,3.0,1.177284299978055,,021,0,2024-11-20_16h22.09.320,Surprise recog test,2023.1.3,59.983864329359186,
46,0,46,0,,,,,,,,,,,,,,,,,,,,,,,,,,,,,,,,,,,,162.30667199997697,163.32250109990127,161.20348779996857,161.20348779996857,161.20348779996857,161.20348779996857,new_sceneIn_10.png,47,5.0,1.108806199976243,,021,0,2024-11-20_16h22.09.320,Surprise recog test,2023.1.3,59.983864329359186,
47,0,47,0,,,,,,,,,,,,,,,,,,,,,,,,,,,,,,,,,,,,164.92883969994728,165.94133469997905,163.32250109990127,163.32250109990127,163.32250109990127,163.32250109990127,old_sceneOut_4.png,48,2.0,1.6007185999769717,,021,0,2024-11-20_16h22.09.320,Surprise recog test,2023.1.3,59.983864329359186,
48,0,48,0,,,,,,,,,,,,,,,,,,,,,,,,,,,,,,,,,,,,167.01091159996577,168.03684809990227,165.94133469997905,165.94133469997905,165.94133469997905,165.94133469997905,old_sceneIn_27.png,49,5.0,1.0635935000609607,,021,0,2024-11-20_16h22.09.320,Surprise recog test,2023.1.3,59.983864329359186,
49,0,49,0,,,,,,,,,,,,,,,,,,,,,,,,,,,,,,,,,,,,168.92768660001457,169.95307289995253,168.03684809990227,168.03684809990227,168.03684809990227,168.03684809990227,new_sceneIn_17.png,50,5.0,0.8924510999349877,,021,0,2024-11-20_16h22.09.320,Surprise recog test,2023.1.3,59.983864329359186,
50,0,50,0,,,,,,,,,,,,,,,,,,,,,,,,,,,,,,,,,,,,171.14118579996284,,169.95307289995253,169.95307289995253,169.95307289995253,169.95307289995253,new_sceneOut_47.png,51,5.0,1.190847699996084,,021,0,2024-11-20_16h22.09.320,Surprise recog test,2023.1.3,59.983864329359186,
51,0,51,0,,,,,,,,,,,,,,,,,,,,,,,,,,,,,,,,,,,,173.2656704999972,174.2778391999891,172.1585396999726,172.1585396999726,172.1585396999726,172.1585396999726,old_fruit_47.png,52,1.0,1.1029881000285968,,021,0,2024-11-20_16h22.09.320,Surprise recog test,2023.1.3,59.983864329359186,
52,0,52,0,,,,,,,,,,,,,,,,,,,,,,,,,,,,,,,,,,,,175.50443879992235,176.51282439997885,174.2778391999891,174.2778391999891,174.2778391999891,174.2778391999891,old_sceneIn_26.png,53,5.0,1.22245500003919,,021,0,2024-11-20_16h22.09.320,Surprise recog test,2023.1.3,59.983864329359186,
53,0,53,0,,,,,,,,,,,,,,,,,,,,,,,,,,,,,,,,,,,,177.39429959992412,178.40229679993354,176.51282439997885,176.51282439997885,176.51282439997885,176.51282439997885,old_sceneIn_28.png,54,5.0,0.8765736999921501,,021,0,2024-11-20_16h22.09.320,Surprise recog test,2023.1.3,59.983864329359186,
54,0,54,0,,,,,,,,,,,,,,,,,,,,,,,,,,,,,,,,,,,,179.8405150999315,180.86663089995272,178.40229679993354,178.40229679993354,178.40229679993354,178.40229679993354,old_stationery_27.png,55,3.0,1.4333107999991626,,021,0,2024-11-20_16h22.09.320,Surprise recog test,2023.1.3,59.983864329359186,
55,0,55,0,,,,,,,,,,,,,,,,,,,,,,,,,,,,,,,,,,,,181.94298039993737,182.97191719990224,180.86663089995272,180.86663089995272,180.86663089995272,180.86663089995272,new_stationery_15.png,56,3.0,1.0769177000038326,,021,0,2024-11-20_16h22.09.320,Surprise recog test,2023.1.3,59.983864329359186,
56,0,56,0,,,,,,,,,,,,,,,,,,,,,,,,,,,,,,,,,,,,184.07769509998616,185.10107239999343,182.97191719990224,182.97191719990224,182.97191719990224,182.97191719990224,old_sceneIn_48.png,57,5.0,1.1092279999284074,,021,0,2024-11-20_16h22.09.320,Surprise recog test,2023.1.3,59.983864329359186,
57,0,57,0,,,,,,,,,,,,,,,,,,,,,,,,,,,,,,,,,,,,186.52678089996334,187.55509199993685,185.10107239999343,185.10107239999343,185.10107239999343,185.10107239999343,new_sceneOut_39.png,58,5.0,1.4245673000114039,,021,0,2024-11-20_16h22.09.320,Surprise recog test,2023.1.3,59.983864329359186,
58,0,58,0,,,,,,,,,,,,,,,,,,,,,,,,,,,,,,,,,,,,188.54292049992364,189.56677329994272,187.55509199993685,187.55509199993685,187.55509199993685,187.55509199993685,new_sceneIn_1.png,59,5.0,0.9893969000549987,,021,0,2024-11-20_16h22.09.320,Surprise recog test,2023.1.3,59.983864329359186,
59,0,59,0,,,,,,,,,,,,,,,,,,,,,,,,,,,,,,,,,,,,190.3869807999581,191.41285339999013,189.56677329994272,189.56677329994272,189.56677329994272,189.56677329994272,new_fruit_10.png,60,5.0,0.8213051999919116,,021,0,2024-11-20_16h22.09.320,Surprise recog test,2023.1.3,59.983864329359186,
60,0,60,0,,,,,,,,,,,,,,,,,,,,,,,,,,,,,,,,,,,,192.23571429995354,193.24633629992604,191.41285339999013,191.41285339999013,191.41285339999013,191.41285339999013,old_stationery_11.png,61,5.0,0.8242827999638394,,021,0,2024-11-20_16h22.09.320,Surprise recog test,2023.1.3,59.983864329359186,
61,0,61,0,,,,,,,,,,,,,,,,,,,,,,,,,,,,,,,,,,,,193.9216195999179,194.92766569997184,193.24633629992604,193.24633629992604,193.24633629992604,193.24633629992604,new_stationery_41.png,62,5.0,0.6701661000261083,,021,0,2024-11-20_16h22.09.320,Surprise recog test,2023.1.3,59.983864329359186,
62,0,62,0,,,,,,,,,,,,,,,,,,,,,,,,,,,,,,,,,,,,195.89159999997355,196.909399199998,194.92766569997184,194.92766569997184,194.92766569997184,194.92766569997184,old_sceneIn_32.png,63,5.0,0.9538323000306264,,021,0,2024-11-20_16h22.09.320,Surprise recog test,2023.1.3,59.983864329359186,
63,0,63,0,,,,,,,,,,,,,,,,,,,,,,,,,,,,,,,,,,,,198.64336959994398,199.653900199919,196.909399199998,196.909399199998,196.909399199998,196.909399199998,old_sceneOut_19.png,64,2.0,1.7348472999874502,,021,0,2024-11-20_16h22.09.320,Surprise recog test,2023.1.3,59.983864329359186,
64,0,64,0,,,,,,,,,,,,,,,,,,,,,,,,,,,,,,,,,,,,201.00541679991875,202.0180230999831,199.653900199919,199.653900199919,199.653900199919,199.653900199919,new_sceneIn_4.png,65,5.0,1.3489158999873325,,021,0,2024-11-20_16h22.09.320,Surprise recog test,2023.1.3,59.983864329359186,
65,0,65,0,,,,,,,,,,,,,,,,,,,,,,,,,,,,,,,,,,,,203.2192117999075,204.24690759996884,202.0180230999831,202.0180230999831,202.0180230999831,202.0180230999831,old_fruit_37.png,66,1.0,1.1973059000447392,,021,0,2024-11-20_16h22.09.320,Surprise recog test,2023.1.3,59.983864329359186,
66,0,66,0,,,,,,,,,,,,,,,,,,,,,,,,,,,,,,,,,,,,204.8600953000132,205.88977459992748,204.24690759996884,204.24690759996884,204.24690759996884,204.24690759996884,new_fruit_18.png,67,1.0,0.6154881999827921,,021,0,2024-11-20_16h22.09.320,Surprise recog test,2023.1.3,59.983864329359186,
67,0,67,0,,,,,,,,,,,,,,,,,,,,,,,,,,,,,,,,,,,,207.34161919995677,208.37409229995683,205.88977459992748,205.88977459992748,205.88977459992748,205.88977459992748,new_sceneIn_28.png,68,3.0,1.4523285999894142,,021,0,2024-11-20_16h22.09.320,Surprise recog test,2023.1.3,59.983864329359186,
68,0,68,0,,,,,,,,,,,,,,,,,,,,,,,,,,,,,,,,,,,,210.81801639997866,211.84288409992587,208.37409229995683,208.37409229995683,208.37409229995683,208.37409229995683,old_sceneOut_15.png,69,3.0,2.445791400037706,,021,0,2024-11-20_16h22.09.320,Surprise recog test,2023.1.3,59.983864329359186,
69,0,69,0,,,,,,,,,,,,,,,,,,,,,,,,,,,,,,,,,,,,213.4878121999791,214.51781649992336,211.84288409992587,211.84288409992587,211.84288409992587,211.84288409992587,new_stationery_46.png,70,3.0,1.6459338000277057,,021,0,2024-11-20_16h22.09.320,Surprise recog test,2023.1.3,59.983864329359186,
70,0,70,0,,,,,,,,,,,,,,,,,,,,,,,,,,,,,,,,,,,,215.94538839999586,,214.51781649992336,214.51781649992336,214.51781649992336,214.51781649992336,old_sceneOut_48.png,71,4.0,1.4320664999540895,,021,0,2024-11-20_16h22.09.320,Surprise recog test,2023.1.3,59.983864329359186,
71,0,71,0,,,,,,,,,,,,,,,,,,,,,,,,,,,,,,,,,,,,219.2746800999157,220.28216969990171,216.9660290000029,216.9660290000029,216.9660290000029,216.9660290000029,new_stationery_48.png,72,3.0,2.302673599915579,,021,0,2024-11-20_16h22.09.320,Surprise recog test,2023.1.3,59.983864329359186,
72,0,72,0,,,,,,,,,,,,,,,,,,,,,,,,,,,,,,,,,,,,221.43253059999552,,220.28216969990171,220.28216969990171,220.28216969990171,220.28216969990171,old_sceneIn_5.png,73,5.0,1.14526559994556,,021,0,2024-11-20_16h22.09.320,Surprise recog test,2023.1.3,59.983864329359186,
73,0,73,0,,,,,,,,,,,,,,,,,,,,,,,,,,,,,,,,,,,,223.5301754999673,224.54891959996894,222.46733689995017,222.46733689995017,222.46733689995017,222.46733689995017,new_fruit_19.png,74,1.0,1.0624208999797702,,021,0,2024-11-20_16h22.09.320,Surprise recog test,2023.1.3,59.983864329359186,
74,0,74,0,,,,,,,,,,,,,,,,,,,,,,,,,,,,,,,,,,,,225.5977369999746,226.6202851999551,224.54891959996894,224.54891959996894,224.54891959996894,224.54891959996894,new_sceneIn_46.png,75,4.0,1.046795399975963,,021,0,2024-11-20_16h22.09.320,Surprise recog test,2023.1.3,59.983864329359186,
75,0,75,0,,,,,,,,,,,,,,,,,,,,,,,,,,,,,,,,,,,,227.53783269994892,,226.6202851999551,226.6202851999551,226.6202851999551,226.6202851999551,new_stationery_28.png,76,2.0,0.9185183000518009,,021,0,2024-11-20_16h22.09.320,Surprise recog test,2023.1.3,59.983864329359186,
76,0,76,0,,,,,,,,,,,,,,,,,,,,,,,,,,,,,,,,,,,,229.6532727999147,230.6766743999906,228.55919969989918,228.55919969989918,228.55919969989918,228.55919969989918,old_fruit_34.png,77,1.0,1.0899701000889763,,021,0,2024-11-20_16h22.09.320,Surprise recog test,2023.1.3,59.983864329359186,
77,0,77,0,,,,,,,,,,,,,,,,,,,,,,,,,,,,,,,,,,,,231.82868789997883,232.85721579997335,230.6766743999906,230.6766743999906,230.6766743999906,230.6766743999906,new_sceneIn_20.png,78,5.0,1.1548935999162495,,021,0,2024-11-20_16h22.09.320,Surprise recog test,2023.1.3,59.983864329359186,
78,0,78,0,,,,,,,,,,,,,,,,,,,,,,,,,,,,,,,,,,,,234.28722870000638,235.2982064000098,232.85721579997335,232.85721579997335,232.85721579997335,232.85721579997335,new_sceneIn_16.png,79,4.0,1.4309901000233367,,021,0,2024-11-20_16h22.09.320,Surprise recog test,2023.1.3,59.983864329359186,
79,0,79,0,,,,,,,,,,,,,,,,,,,,,,,,,,,,,,,,,,,,236.4511580999242,237.48062919999938,235.2982064000098,235.2982064000098,235.2982064000098,235.2982064000098,new_stationery_11.png,80,3.0,1.1483401000732556,,021,0,2024-11-20_16h22.09.320,Surprise recog test,2023.1.3,59.983864329359186,
80,0,80,0,,,,,,,,,,,,,,,,,,,,,,,,,,,,,,,,,,,,238.66841229994316,239.6871184000047,237.48062919999938,237.48062919999938,237.48062919999938,237.48062919999938,new_sceneIn_44.png,81,5.0,1.1891985998954624,,021,0,2024-11-20_16h22.09.320,Surprise recog test,2023.1.3,59.983864329359186,
81,0,81,0,,,,,,,,,,,,,,,,,,,,,,,,,,,,,,,,,,,,240.75353260000702,241.78235869994387,239.6871184000047,239.6871184000047,239.6871184000047,239.6871184000047,new_stationery_7.png,82,5.0,1.0637762000551447,,021,0,2024-11-20_16h22.09.320,Surprise recog test,2023.1.3,59.983864329359186,
82,0,82,0,,,,,,,,,,,,,,,,,,,,,,,,,,,,,,,,,,,,242.93720980000217,243.97499289992265,241.78235869994387,241.78235869994387,241.78235869994387,241.78235869994387,old_sceneOut_2.png,83,3.0,1.1539159999229014,,021,0,2024-11-20_16h22.09.320,Surprise recog test,2023.1.3,59.983864329359186,
83,0,83,0,,,,,,,,,,,,,,,,,,,,,,,,,,,,,,,,,,,,245.21149159991182,246.22393889992964,243.97499289992265,243.97499289992265,243.97499289992265,243.97499289992265,old_sceneIn_49.png,84,5.0,1.2406018999172375,,021,0,2024-11-20_16h22.09.320,Surprise recog test,2023.1.3,59.983864329359186,
84,0,84,0,,,,,,,,,,,,,,,,,,,,,,,,,,,,,,,,,,,,247.87285469996277,248.90009549993556,246.22393889992964,246.22393889992964,246.22393889992964,246.22393889992964,new_sceneOut_45.png,85,3.0,1.6424188000382856,,021,0,2024-11-20_16h22.09.320,Surprise recog test,2023.1.3,59.983864329359186,
85,0,85,0,,,,,,,,,,,,,,,,,,,,,,,,,,,,,,,,,,,,250.6425107999239,251.6727106999606,248.90009549993556,248.90009549993556,248.90009549993556,248.90009549993556,new_fruit_24.png,86,4.0,1.744340299977921,,021,0,2024-11-20_16h22.09.320,Surprise recog test,2023.1.3,59.983864329359186,
86,0,86,0,,,,,,,,,,,,,,,,,,,,,,,,,,,,,,,,,,,,252.9307924999157,253.94733220001217,251.6727106999606,251.6727106999606,251.6727106999606,251.6727106999606,new_sceneIn_11.png,87,5.0,1.260070800082758,,021,0,2024-11-20_16h22.09.320,Surprise recog test,2023.1.3,59.983864329359186,
87,0,87,0,,,,,,,,,,,,,,,,,,,,,,,,,,,,,,,,,,,,256.02545279997867,257.02929979993496,253.94733220001217,253.94733220001217,253.94733220001217,253.94733220001217,new_stationery_49.png,88,3.0,2.0722330999560654,,021,0,2024-11-20_16h22.09.320,Surprise recog test,2023.1.3,59.983864329359186,
88,0,88,0,,,,,,,,,,,,,,,,,,,,,,,,,,,,,,,,,,,,258.52852549997624,259.54713329998776,257.02929979993496,257.02929979993496,257.02929979993496,257.02929979993496,new_fruit_37.png,89,5.0,1.494007800007239,,021,0,2024-11-20_16h22.09.320,Surprise recog test,2023.1.3,59.983864329359186,
89,0,89,0,,,,,,,,,,,,,,,,,,,,,,,,,,,,,,,,,,,,260.9505783999339,261.9816960999742,259.54713329998776,259.54713329998776,259.54713329998776,259.54713329998776,old_fruit_6.png,90,1.0,1.4035702999681234,,021,0,2024-11-20_16h22.09.320,Surprise recog test,2023.1.3,59.983864329359186,
90,0,90,0,,,,,,,,,,,,,,,,,,,,,,,,,,,,,,,,,,,,262.56969529995695,263.602059799945,261.9816960999742,261.9816960999742,261.9816960999742,261.9816960999742,new_fruit_31.png,91,1.0,0.5899837999604642,,021,0,2024-11-20_16h22.09.320,Surprise recog test,2023.1.3,59.983864329359186,
91,0,91,0,,,,,,,,,,,,,,,,,,,,,,,,,,,,,,,,,,,,265.1596442000009,266.1889192999806,263.602059799945,263.602059799945,263.602059799945,263.602059799945,new_stationery_34.png,92,4.0,1.5575581000884995,,021,0,2024-11-20_16h22.09.320,Surprise recog test,2023.1.3,59.983864329359186,
92,0,92,0,,,,,,,,,,,,,,,,,,,,,,,,,,,,,,,,,,,,267.45710249990225,268.4960688999854,266.1889192999806,266.1889192999806,266.1889192999806,266.1889192999806,old_fruit_40.png,93,1.0,1.2682906000409275,,021,0,2024-11-20_16h22.09.320,Surprise recog test,2023.1.3,59.983864329359186,
93,0,93,0,,,,,,,,,,,,,,,,,,,,,,,,,,,,,,,,,,,,269.8377521999646,270.8534876999911,268.4960688999854,268.4960688999854,268.4960688999854,268.4960688999854,new_sceneIn_8.png,94,5.0,1.3445577999809757,,021,0,2024-11-20_16h22.09.320,Surprise recog test,2023.1.3,59.983864329359186,
94,0,94,0,,,,,,,,,,,,,,,,,,,,,,,,,,,,,,,,,,,,272.1457903999835,273.17237549996935,270.8534876999911,270.8534876999911,270.8534876999911,270.8534876999911,old_stationery_49.png,95,1.0,1.2893788000801578,,021,0,2024-11-20_16h22.09.320,Surprise recog test,2023.1.3,59.983864329359186,
95,0,95,0,,,,,,,,,,,,,,,,,,,,,,,,,,,,,,,,,,,,274.54037669999525,275.5453264999669,273.17237549996935,273.17237549996935,273.17237549996935,273.17237549996935,new_sceneOut_27.png,96,3.0,1.3674822000321,,021,0,2024-11-20_16h22.09.320,Surprise recog test,2023.1.3,59.983864329359186,
96,0,96,0,,,,,,,,,,,,,,,,,,,,,,,,,,,,,,,,,,,,276.5106885000132,,275.5453264999669,275.5453264999669,275.5453264999669,275.5453264999669,old_fruit_23.png,97,1.0,0.9605511000845581,,021,0,2024-11-20_16h22.09.320,Surprise recog test,2023.1.3,59.983864329359186,
97,0,97,0,,,,,,,,,,,,,,,,,,,,,,,,,,,,,,,,,,,,279.13317479996476,280.16455779992975,277.5349253999302,277.5349253999302,277.5349253999302,277.5349253999302,old_sceneIn_4.png,98,3.0,1.5973367999540642,,021,0,2024-11-20_16h22.09.320,Surprise recog test,2023.1.3,59.983864329359186,
98,0,98,0,,,,,,,,,,,,,,,,,,,,,,,,,,,,,,,,,,,,281.4783095999155,282.49855819996446,280.16455779992975,280.16455779992975,280.16455779992975,280.16455779992975,old_sceneIn_10.png,99,4.0,1.3175297999987379,,021,0,2024-11-20_16h22.09.320,Surprise recog test,2023.1.3,59.983864329359186,
99,0,99,0,,,,,,,,,,,,,,,,,,,,,,,,,,,,,,,,,,,,283.8309326999588,284.83863819995895,282.49855819996446,282.49855819996446,282.49855819996446,282.49855819996446,old_stationery_19.png,100,1.0,1.3367420999566093,,021,0,2024-11-20_16h22.09.320,Surprise recog test,2023.1.3,59.983864329359186,
100,0,100,0,,,,,,,,,,,,,,,,,,,,,,,,,,,,,,,,,,,,285.44429189991206,286.4629063999746,284.83863819995895,284.83863819995895,284.83863819995895,284.83863819995895,old_fruit_21.png,101,1.0,0.5975251999916509,,021,0,2024-11-20_16h22.09.320,Surprise recog test,2023.1.3,59.983864329359186,
101,0,101,0,,,,,,,,,,,,,,,,,,,,,,,,,,,,,,,,,,,,288.5729550999822,,286.4629063999746,286.4629063999746,286.4629063999746,286.4629063999746,new_stationery_14.png,102,1.0,2.1096982000162825,,021,0,2024-11-20_16h22.09.320,Surprise recog test,2023.1.3,59.983864329359186,
102,0,102,0,,,,,,,,,,,,,,,,,,,,,,,,,,,,,,,,,,,,291.4676612999756,292.50185180001426,289.60617619997356,289.60617619997356,289.60617619997356,289.60617619997356,old_sceneOut_46.png,103,2.0,1.8627592999255285,,021,0,2024-11-20_16h22.09.320,Surprise recog test,2023.1.3,59.983864329359186,
103,0,103,0,,,,,,,,,,,,,,,,,,,,,,,,,,,,,,,,,,,,293.6862430999754,294.69337909994647,292.50185180001426,292.50185180001426,292.50185180001426,292.50185180001426,old_stationery_32.png,104,4.0,1.1905898000113666,,021,0,2024-11-20_16h22.09.320,Surprise recog test,2023.1.3,59.983864329359186,
104,0,104,0,,,,,,,,,,,,,,,,,,,,,,,,,,,,,,,,,,,,295.86450979998335,296.8788124999264,294.69337909994647,294.69337909994647,294.69337909994647,294.69337909994647,old_fruit_1.png,105,1.0,1.1671735000563785,,021,0,2024-11-20_16h22.09.320,Surprise recog test,2023.1.3,59.983864329359186,
105,0,105,0,,,,,,,,,,,,,,,,,,,,,,,,,,,,,,,,,,,,298.3705883999355,299.3820207999088,296.8788124999264,296.8788124999264,296.8788124999264,296.8788124999264,old_sceneIn_20.png,106,4.0,1.4867628999054432,,021,0,2024-11-20_16h22.09.320,Surprise recog test,2023.1.3,59.983864329359186,
106,0,106,0,,,,,,,,,,,,,,,,,,,,,,,,,,,,,,,,,,,,300.8339739999501,301.86660599999595,299.3820207999088,299.3820207999088,299.3820207999088,299.3820207999088,old_stationery_45.png,107,5.0,1.447440299903974,,021,0,2024-11-20_16h22.09.320,Surprise recog test,2023.1.3,59.983864329359186,
107,0,107,0,,,,,,,,,,,,,,,,,,,,,,,,,,,,,,,,,,,,303.2068743999116,304.23605369997676,301.86660599999595,301.86660599999595,301.86660599999595,301.86660599999595,new_sceneIn_29.png,108,5.0,1.3419479000149295,,021,0,2024-11-20_16h22.09.320,Surprise recog test,2023.1.3,59.983864329359186,
108,0,108,0,,,,,,,,,,,,,,,,,,,,,,,,,,,,,,,,,,,,305.47625369997695,306.49139459989965,304.23605369997676,304.23605369997676,304.23605369997676,304.23605369997676,old_fruit_19.png,109,1.0,1.2354114999761805,,021,0,2024-11-20_16h22.09.320,Surprise recog test,2023.1.3,59.983864329359186,
109,0,109,0,,,,,,,,,,,,,,,,,,,,,,,,,,,,,,,,,,,,307.4592220999766,308.47197199997026,306.49139459989965,306.49139459989965,306.49139459989965,306.49139459989965,old_sceneIn_18.png,110,4.0,0.964111200068146,,021,0,2024-11-20_16h22.09.320,Surprise recog test,2023.1.3,59.983864329359186,
110,0,110,0,,,,,,,,,,,,,,,,,,,,,,,,,,,,,,,,,,,,309.860453399946,310.8769765999168,308.47197199997026,308.47197199997026,308.47197199997026,308.47197199997026,old_sceneIn_12.png,111,2.0,1.3844394000479952,,021,0,2024-11-20_16h22.09.320,Surprise recog test,2023.1.3,59.983864329359186,
111,0,111,0,,,,,,,,,,,,,,,,,,,,,,,,,,,,,,,,,,,,311.93502069998067,312.9477941999212,310.8769765999168,310.8769765999168,310.8769765999168,310.8769765999168,new_stationery_27.png,112,4.0,1.0511793999467045,,021,0,2024-11-20_16h22.09.320,Surprise recog test,2023.1.3,59.983864329359186,
112,0,112,0,,,,,,,,,,,,,,,,,,,,,,,,,,,,,,,,,,,,314.3506511999294,315.3763091999572,312.9477941999212,312.9477941999212,312.9477941999212,312.9477941999212,old_sceneOut_1.png,113,4.0,1.4006925999419764,,021,0,2024-11-20_16h22.09.320,Surprise recog test,2023.1.3,59.983864329359186,
113,0,113,0,,,,,,,,,,,,,,,,,,,,,,,,,,,,,,,,,,,,317.064576499979,318.086128899944,315.3763091999572,315.3763091999572,315.3763091999572,315.3763091999572,old_stationery_25.png,114,3.0,1.6888749999925494,,021,0,2024-11-20_16h22.09.320,Surprise recog test,2023.1.3,59.983864329359186,
114,0,114,0,,,,,,,,,,,,,,,,,,,,,,,,,,,,,,,,,,,,319.008616099949,320.0367931999499,318.086128899944,318.086128899944,318.086128899944,318.086128899944,old_fruit_18.png,115,1.0,0.9210601000813767,,021,0,2024-11-20_16h22.09.320,Surprise recog test,2023.1.3,59.983864329359186,
115,0,115,0,,,,,,,,,,,,,,,,,,,,,,,,,,,,,,,,,,,,321.3276723999297,322.34844229999,320.0367931999499,320.0367931999499,320.0367931999499,320.0367931999499,new_stationery_47.png,116,1.0,1.2927684999303892,,021,0,2024-11-20_16h22.09.320,Surprise recog test,2023.1.3,59.983864329359186,
116,0,116,0,,,,,,,,,,,,,,,,,,,,,,,,,,,,,,,,,,,,323.3366668999661,324.363792499993,322.34844229999,322.34844229999,322.34844229999,322.34844229999,new_sceneOut_7.png,117,3.0,0.9848169999895617,,021,0,2024-11-20_16h22.09.320,Surprise recog test,2023.1.3,59.983864329359186,
117,0,117,0,,,,,,,,,,,,,,,,,,,,,,,,,,,,,,,,,,,,325.5475856999401,326.5686384999426,324.363792499993,324.363792499993,324.363792499993,324.363792499993,old_stationery_46.png,118,1.0,1.1826305999420583,,021,0,2024-11-20_16h22.09.320,Surprise recog test,2023.1.3,59.983864329359186,
118,0,118,0,,,,,,,,,,,,,,,,,,,,,,,,,,,,,,,,,,,,327.33744569995906,,326.5686384999426,326.5686384999426,326.5686384999426,326.5686384999426,new_fruit_12.png,119,1.0,0.7741362999659032,,021,0,2024-11-20_16h22.09.320,Surprise recog test,2023.1.3,59.983864329359186,
119,0,119,0,,,,,,,,,,,,,,,,,,,,,,,,,,,,,,,,,,,,329.14759619999677,330.172639299999,328.3609637999907,328.3609637999907,328.3609637999907,328.3609637999907,old_stationery_8.png,120,1.0,0.7850227999733761,,021,0,2024-11-20_16h22.09.320,Surprise recog test,2023.1.3,59.983864329359186,
120,0,120,0,,,,,,,,,,,,,,,,,,,,,,,,,,,,,,,,,,,,331.1877145000035,332.191427999991,330.172639299999,330.172639299999,330.172639299999,330.172639299999,new_sceneOut_48.png,121,3.0,1.016348399920389,,021,0,2024-11-20_16h22.09.320,Surprise recog test,2023.1.3,59.983864329359186,
121,0,121,0,,,,,,,,,,,,,,,,,,,,,,,,,,,,,,,,,,,,333.4159276999999,334.45042070001364,332.191427999991,332.191427999991,332.191427999991,332.191427999991,old_sceneIn_43.png,122,5.0,1.2199940999271348,,021,0,2024-11-20_16h22.09.320,Surprise recog test,2023.1.3,59.983864329359186,
122,0,122,0,,,,,,,,,,,,,,,,,,,,,,,,,,,,,,,,,,,,335.5327272999566,336.5573469999945,334.45042070001364,334.45042070001364,334.45042070001364,334.45042070001364,new_sceneIn_3.png,123,5.0,1.0868742000311613,,021,0,2024-11-20_16h22.09.320,Surprise recog test,2023.1.3,59.983864329359186,
123,0,123,0,,,,,,,,,,,,,,,,,,,,,,,,,,,,,,,,,,,,337.28739800001495,338.30744999996386,336.5573469999945,336.5573469999945,336.5573469999945,336.5573469999945,new_stationery_50.png,124,5.0,0.7287959998939186,,021,0,2024-11-20_16h22.09.320,Surprise recog test,2023.1.3,59.983864329359186,
124,0,124,0,,,,,,,,,,,,,,,,,,,,,,,,,,,,,,,,,,,,339.3270463999361,340.3351457999088,338.30744999996386,338.30744999996386,338.30744999996386,338.30744999996386,old_sceneOut_39.png,125,5.0,1.017193999956362,,021,0,2024-11-20_16h22.09.320,Surprise recog test,2023.1.3,59.983864329359186,
125,0,125,0,,,,,,,,,,,,,,,,,,,,,,,,,,,,,,,,,,,,341.7806365999859,342.8039335999638,340.3351457999088,340.3351457999088,340.3351457999088,340.3351457999088,new_sceneOut_31.png,126,3.0,1.4412559000775218,,021,0,2024-11-20_16h22.09.320,Surprise recog test,2023.1.3,59.983864329359186,
126,0,126,0,,,,,,,,,,,,,,,,,,,,,,,,,,,,,,,,,,,,344.14495230000466,345.1567177999532,342.8039335999638,342.8039335999638,342.8039335999638,342.8039335999638,old_sceneIn_45.png,127,4.0,1.3427012000465766,,021,0,2024-11-20_16h22.09.320,Surprise recog test,2023.1.3,59.983864329359186,
127,0,127,0,,,,,,,,,,,,,,,,,,,,,,,,,,,,,,,,,,,,346.42382949998137,347.4584601999959,345.1567177999532,345.1567177999532,345.1567177999532,345.1567177999532,old_fruit_26.png,128,2.0,1.2617365999612957,,021,0,2024-11-20_16h22.09.320,Surprise recog test,2023.1.3,59.983864329359186,
128,0,128,0,,,,,,,,,,,,,,,,,,,,,,,,,,,,,,,,,,,,349.0995930999052,350.11927839997225,347.4584601999959,347.4584601999959,347.4584601999959,347.4584601999959,new_sceneOut_26.png,129,5.0,1.6418860000558197,,021,0,2024-11-20_16h22.09.320,Surprise recog test,2023.1.3,59.983864329359186,
129,0,129,0,,,,,,,,,,,,,,,,,,,,,,,,,,,,,,,,,,,,351.5530843999004,352.5763072000118,350.11927839997225,350.11927839997225,350.11927839997225,350.11927839997225,old_fruit_16.png,130,5.0,1.4344994999701157,,021,0,2024-11-20_16h22.09.320,Surprise recog test,2023.1.3,59.983864329359186,
130,0,130,0,,,,,,,,,,,,,,,,,,,,,,,,,,,,,,,,,,,,353.7848513999488,354.8046877000015,352.5763072000118,352.5763072000118,352.5763072000118,352.5763072000118,new_sceneOut_28.png,131,3.0,1.209843200049363,,021,0,2024-11-20_16h22.09.320,Surprise recog test,2023.1.3,59.983864329359186,
131,0,131,0,,,,,,,,,,,,,,,,,,,,,,,,,,,,,,,,,,,,356.5584267999511,357.5790385999717,354.8046877000015,354.8046877000015,354.8046877000015,354.8046877000015,old_stationery_30.png,132,3.0,1.7551737999310717,,021,0,2024-11-20_16h22.09.320,Surprise recog test,2023.1.3,59.983864329359186,
132,0,132,0,,,,,,,,,,,,,,,,,,,,,,,,,,,,,,,,,,,,358.8316544999834,359.85731999995187,357.5790385999717,357.5790385999717,357.5790385999717,357.5790385999717,old_stationery_18.png,133,4.0,1.2548127999762073,,021,0,2024-11-20_16h22.09.320,Surprise recog test,2023.1.3,59.983864329359186,
133,0,133,0,,,,,,,,,,,,,,,,,,,,,,,,,,,,,,,,,,,,362.23470389994327,363.2664574999362,359.85731999995187,359.85731999995187,359.85731999995187,359.85731999995187,new_fruit_8.png,134,4.0,2.377014100085944,,021,0,2024-11-20_16h22.09.320,Surprise recog test,2023.1.3,59.983864329359186,
134,0,134,0,,,,,,,,,,,,,,,,,,,,,,,,,,,,,,,,,,,,364.19738219992723,365.2065289999591,363.2664574999362,363.2664574999362,363.2664574999362,363.2664574999362,old_fruit_36.png,135,1.0,0.9333030000561848,,021,0,2024-11-20_16h22.09.320,Surprise recog test,2023.1.3,59.983864329359186,
135,0,135,0,,,,,,,,,,,,,,,,,,,,,,,,,,,,,,,,,,,,366.9531769999303,,365.2065289999591,365.2065289999591,365.2065289999591,365.2065289999591,new_fruit_11.png,136,4.0,1.7422210000222549,,021,0,2024-11-20_16h22.09.320,Surprise recog test,2023.1.3,59.983864329359186,
136,0,136,0,,,,,,,,,,,,,,,,,,,,,,,,,,,,,,,,,,,,369.0327124999603,370.04318339994643,367.9805889999261,367.9805889999261,367.9805889999261,367.9805889999261,old_sceneIn_21.png,137,5.0,1.049989299965091,,021,0,2024-11-20_16h22.09.320,Surprise recog test,2023.1.3,59.983864329359186,
137,0,137,0,,,,,,,,,,,,,,,,,,,,,,,,,,,,,,,,,,,,371.0076238999609,,370.04318339994643,370.04318339994643,370.04318339994643,370.04318339994643,old_sceneIn_30.png,138,5.0,0.9600260999286547,,021,0,2024-11-20_16h22.09.320,Surprise recog test,2023.1.3,59.983864329359186,
138,0,138,0,,,,,,,,,,,,,,,,,,,,,,,,,,,,,,,,,,,,373.3227116999915,374.33118149999063,372.0322007999057,372.0322007999057,372.0322007999057,372.0322007999057,old_sceneOut_50.png,139,3.0,1.289824099978432,,021,0,2024-11-20_16h22.09.320,Surprise recog test,2023.1.3,59.983864329359186,
139,0,139,0,,,,,,,,,,,,,,,,,,,,,,,,,,,,,,,,,,,,375.37288689997513,376.3931095999433,374.33118149999063,374.33118149999063,374.33118149999063,374.33118149999063,new_stationery_42.png,140,5.0,1.0364852000493556,,021,0,2024-11-20_16h22.09.320,Surprise recog test,2023.1.3,59.983864329359186,
140,0,140,0,,,,,,,,,,,,,,,,,,,,,,,,,,,,,,,,,,,,377.60971949994564,378.6281944999937,376.3931095999433,376.3931095999433,376.3931095999433,376.3931095999433,old_sceneIn_31.png,141,2.0,1.2189275999553502,,021,0,2024-11-20_16h22.09.320,Surprise recog test,2023.1.3,59.983864329359186,
141,0,141,0,,,,,,,,,,,,,,,,,,,,,,,,,,,,,,,,,,,,379.9867228999501,,378.6281944999937,378.6281944999937,378.6281944999937,378.6281944999937,old_stationery_28.png,142,2.0,1.3542111000278965,,021,0,2024-11-20_16h22.09.320,Surprise recog test,2023.1.3,59.983864329359186,
142,0,142,0,,,,,,,,,,,,,,,,,,,,,,,,,,,,,,,,,,,,382.2372274999507,383.2618620999856,381.0139822999481,381.0139822999481,381.0139822999481,381.0139822999481,old_stationery_40.png,143,2.0,1.2253469999413937,,021,0,2024-11-20_16h22.09.320,Surprise recog test,2023.1.3,59.983864329359186,
143,0,143,0,,,,,,,,,,,,,,,,,,,,,,,,,,,,,,,,,,,,384.4338273999747,,383.2618620999856,383.2618620999856,383.2618620999856,383.2618620999856,old_sceneOut_8.png,144,3.0,1.1690250999527052,,021,0,2024-11-20_16h22.09.320,Surprise recog test,2023.1.3,59.983864329359186,
144,0,144,0,,,,,,,,,,,,,,,,,,,,,,,,,,,,,,,,,,,,386.46063749992754,387.4738038999494,385.4693589999806,385.4693589999806,385.4693589999806,385.4693589999806,old_fruit_49.png,145,1.0,0.9938493000809103,,021,0,2024-11-20_16h22.09.320,Surprise recog test,2023.1.3,59.983864329359186,
145,0,145,0,,,,,,,,,,,,,,,,,,,,,,,,,,,,,,,,,,,,388.8518032999709,389.8715744999936,387.4738038999494,387.4738038999494,387.4738038999494,387.4738038999494,old_stationery_17.png,146,4.0,1.3695000000298023,,021,0,2024-11-20_16h22.09.320,Surprise recog test,2023.1.3,59.983864329359186,
146,0,146,0,,,,,,,,,,,,,,,,,,,,,,,,,,,,,,,,,,,,391.0331093999557,392.04513909993693,389.8715744999936,389.8715744999936,389.8715744999936,389.8715744999936,new_fruit_50.png,147,1.0,1.162012799992226,,021,0,2024-11-20_16h22.09.320,Surprise recog test,2023.1.3,59.983864329359186,
147,0,147,0,,,,,,,,,,,,,,,,,,,,,,,,,,,,,,,,,,,,393.67581319995224,,392.04513909993693,392.04513909993693,392.04513909993693,392.04513909993693,new_fruit_22.png,148,5.0,1.6286691999994218,,021,0,2024-11-20_16h22.09.320,Surprise recog test,2023.1.3,59.983864329359186,
148,0,148,0,,,,,,,,,,,,,,,,,,,,,,,,,,,,,,,,,,,,395.6835947999498,396.69533119990956,394.69385389995296,394.69385389995296,394.69385389995296,394.69385389995296,old_sceneIn_38.png,149,5.0,0.9832917000167072,,021,0,2024-11-20_16h22.09.320,Surprise recog test,2023.1.3,59.983864329359186,
149,0,149,0,,,,,,,,,,,,,,,,,,,,,,,,,,,,,,,,,,,,398.1165649999166,399.14080599998124,396.69533119990956,396.69533119990956,396.69533119990956,396.69533119990956,old_sceneIn_36.png,150,4.0,1.4173622999805957,,021,0,2024-11-20_16h22.09.320,Surprise recog test,2023.1.3,59.983864329359186,
150,0,150,0,,,,,,,,,,,,,,,,,,,,,,,,,,,,,,,,,,,,400.33353559998795,401.35699709993787,399.14080599998124,399.14080599998124,399.14080599998124,399.14080599998124,new_sceneOut_29.png,151,4.0,1.1929787000408396,,021,0,2024-11-20_16h22.09.320,Surprise recog test,2023.1.3,59.983864329359186,
151,0,151,0,,,,,,,,,,,,,,,,,,,,,,,,,,,,,,,,,,,,402.7554473999189,403.7715365999611,401.35699709993787,401.35699709993787,401.35699709993787,401.35699709993787,old_fruit_46.png,152,1.0,1.398498099995777,,021,0,2024-11-20_16h22.09.320,Surprise recog test,2023.1.3,59.983864329359186,
152,0,152,0,,,,,,,,,,,,,,,,,,,,,,,,,,,,,,,,,,,,404.88294349994976,405.90073739993386,403.7715365999611,403.7715365999611,403.7715365999611,403.7715365999611,old_stationery_35.png,153,1.0,1.1072540000313893,,021,0,2024-11-20_16h22.09.320,Surprise recog test,2023.1.3,59.983864329359186,
153,0,153,0,,,,,,,,,,,,,,,,,,,,,,,,,,,,,,,,,,,,407.8806916999165,408.89887639996596,405.90073739993386,405.90073739993386,405.90073739993386,405.90073739993386,new_fruit_49.png,154,4.0,1.9797378999646753,,021,0,2024-11-20_16h22.09.320,Surprise recog test,2023.1.3,59.983864329359186,
154,0,154,0,,,,,,,,,,,,,,,,,,,,,,,,,,,,,,,,,,,,410.19437779998407,411.2084102999652,408.89887639996596,408.89887639996596,408.89887639996596,408.89887639996596,old_fruit_44.png,155,1.0,1.2954714000225067,,021,0,2024-11-20_16h22.09.320,Surprise recog test,2023.1.3,59.983864329359186,
155,0,155,0,,,,,,,,,,,,,,,,,,,,,,,,,,,,,,,,,,,,412.4261835999787,413.4486773000099,411.2084102999652,411.2084102999652,411.2084102999652,411.2084102999652,old_stationery_37.png,156,4.0,1.214454900007695,,021,0,2024-11-20_16h22.09.320,Surprise recog test,2023.1.3,59.983864329359186,
156,0,156,0,,,,,,,,,,,,,,,,,,,,,,,,,,,,,,,,,,,,414.43965559999924,415.44424149999395,413.4486773000099,413.4486773000099,413.4486773000099,413.4486773000099,old_fruit_11.png,157,1.0,0.9877722000237554,,021,0,2024-11-20_16h22.09.320,Surprise recog test,2023.1.3,59.983864329359186,
157,0,157,0,,,,,,,,,,,,,,,,,,,,,,,,,,,,,,,,,,,,416.5069527999731,417.5128190999385,415.44424149999395,415.44424149999395,415.44424149999395,415.44424149999395,old_fruit_4.png,158,1.0,1.0561709000030532,,021,0,2024-11-20_16h22.09.320,Surprise recog test,2023.1.3,59.983864329359186,
158,0,158,0,,,,,,,,,,,,,,,,,,,,,,,,,,,,,,,,,,,,418.77933319995645,,417.5128190999385,417.5128190999385,417.5128190999385,417.5128190999385,new_sceneOut_30.png,159,3.0,1.2624195999233052,,021,0,2024-11-20_16h22.09.320,Surprise recog test,2023.1.3,59.983864329359186,
159,0,159,0,,,,,,,,,,,,,,,,,,,,,,,,,,,,,,,,,,,,420.85938939999323,421.868815899943,419.80958449991886,419.80958449991886,419.80958449991886,419.80958449991886,old_fruit_27.png,160,1.0,1.0514908999903128,,021,0,2024-11-20_16h22.09.320,Surprise recog test,2023.1.3,59.983864329359186,
160,0,160,0,,,,,,,,,,,,,,,,,,,,,,,,,,,,,,,,,,,,422.6515162999276,423.66804829996545,421.868815899943,421.868815899943,421.868815899943,421.868815899943,new_fruit_30.png,161,1.0,0.780524899950251,,021,0,2024-11-20_16h22.09.320,Surprise recog test,2023.1.3,59.983864329359186,
161,0,161,0,,,,,,,,,,,,,,,,,,,,,,,,,,,,,,,,,,,,425.03395349998027,,423.66804829996545,423.66804829996545,423.66804829996545,423.66804829996545,new_fruit_40.png,162,4.0,1.3605961999855936,,021,0,2024-11-20_16h22.09.320,Surprise recog test,2023.1.3,59.983864329359186,
162,0,162,0,,,,,,,,,,,,,,,,,,,,,,,,,,,,,,,,,,,,427.9259764999151,428.94242829992436,426.05584179994185,426.05584179994185,426.05584179994185,426.05584179994185,new_fruit_42.png,163,4.0,1.865279100020416,,021,0,2024-11-20_16h22.09.320,Surprise recog test,2023.1.3,59.983864329359186,
163,0,163,0,,,,,,,,,,,,,,,,,,,,,,,,,,,,,,,,,,,,430.18614100001287,431.2070125999162,428.94242829992436,428.94242829992436,428.94242829992436,428.94242829992436,old_sceneOut_12.png,164,4.0,1.2355624999618158,,021,0,2024-11-20_16h22.09.320,Surprise recog test,2023.1.3,59.983864329359186,
164,0,164,0,,,,,,,,,,,,,,,,,,,,,,,,,,,,,,,,,,,,432.2891108999029,433.2971961000003,431.2070125999162,431.2070125999162,431.2070125999162,431.2070125999162,old_sceneIn_8.png,165,5.0,1.0836962000466883,,021,0,2024-11-20_16h22.09.320,Surprise recog test,2023.1.3,59.983864329359186,
165,0,165,0,,,,,,,,,,,,,,,,,,,,,,,,,,,,,,,,,,,,434.7313253999455,435.7486459999345,433.2971961000003,433.2971961000003,433.2971961000003,433.2971961000003,old_fruit_42.png,166,1.0,1.429707899922505,,021,0,2024-11-20_16h22.09.320,Surprise recog test,2023.1.3,59.983864329359186,
166,0,166,0,,,,,,,,,,,,,,,,,,,,,,,,,,,,,,,,,,,,436.8500403999351,437.867201999994,435.7486459999345,435.7486459999345,435.7486459999345,435.7486459999345,old_sceneOut_33.png,167,3.0,1.0970562000293285,,021,0,2024-11-20_16h22.09.320,Surprise recog test,2023.1.3,59.983864329359186,
167,0,167,0,,,,,,,,,,,,,,,,,,,,,,,,,,,,,,,,,,,,438.79186070000287,439.8159000999294,437.867201999994,437.867201999994,437.867201999994,437.867201999994,new_fruit_25.png,168,1.0,0.9202070999890566,,021,0,2024-11-20_16h22.09.320,Surprise recog test,2023.1.3,59.983864329359186,
168,0,168,0,,,,,,,,,,,,,,,,,,,,,,,,,,,,,,,,,,,,440.94747809995897,,439.8159000999294,439.8159000999294,439.8159000999294,439.8159000999294,new_sceneOut_42.png,169,3.0,1.1315835999557748,,021,0,2024-11-20_16h22.09.320,Surprise recog test,2023.1.3,59.983864329359186,
169,0,169,0,,,,,,,,,,,,,,,,,,,,,,,,,,,,,,,,,,,,443.3700450999895,444.4006698000012,441.9712800999405,441.9712800999405,441.9712800999405,441.9712800999405,old_sceneOut_24.png,170,4.0,1.3935348999220878,,021,0,2024-11-20_16h22.09.320,Surprise recog test,2023.1.3,59.983864329359186,
170,0,170,0,,,,,,,,,,,,,,,,,,,,,,,,,,,,,,,,,,,,446.05510829994455,447.0876042000018,444.4006698000012,444.4006698000012,444.4006698000012,444.4006698000012,old_stationery_33.png,171,3.0,1.6555564999580383,,021,0,2024-11-20_16h22.09.320,Surprise recog test,2023.1.3,59.983864329359186,
171,0,171,0,,,,,,,,,,,,,,,,,,,,,,,,,,,,,,,,,,,,448.1434334999649,449.15761230001226,447.0876042000018,447.0876042000018,447.0876042000018,447.0876042000018,new_sceneIn_33.png,172,5.0,1.0583906000247225,,021,0,2024-11-20_16h22.09.320,Surprise recog test,2023.1.3,59.983864329359186,
172,0,172,0,,,,,,,,,,,,,,,,,,,,,,,,,,,,,,,,,,,,450.48982359992806,,449.15761230001226,449.15761230001226,449.15761230001226,449.15761230001226,old_fruit_45.png,173,1.0,1.3286125999875367,,021,0,2024-11-20_16h22.09.320,Surprise recog test,2023.1.3,59.983864329359186,
173,0,173,0,,,,,,,,,,,,,,,,,,,,,,,,,,,,,,,,,,,,453.2668776999926,454.2774538999656,451.5110131999245,451.5110131999245,451.5110131999245,451.5110131999245,new_fruit_48.png,174,4.0,1.749433399992995,,021,0,2024-11-20_16h22.09.320,Surprise recog test,2023.1.3,59.983864329359186,
174,0,174,0,,,,,,,,,,,,,,,,,,,,,,,,,,,,,,,,,,,,455.3185634999536,456.3324977000011,454.2774538999656,454.2774538999656,454.2774538999656,454.2774538999656,new_fruit_17.png,175,1.0,1.0374445000197738,,021,0,2024-11-20_16h22.09.320,Surprise recog test,2023.1.3,59.983864329359186,
175,0,175,0,,,,,,,,,,,,,,,,,,,,,,,,,,,,,,,,,,,,457.60810909990687,458.6183524999069,456.3324977000011,456.3324977000011,456.3324977000011,456.3324977000011,new_sceneIn_26.png,176,5.0,1.2692480999976397,,021,0,2024-11-20_16h22.09.320,Surprise recog test,2023.1.3,59.983864329359186,
176,0,176,0,,,,,,,,,,,,,,,,,,,,,,,,,,,,,,,,,,,,459.97911319998093,460.9937695999397,458.6183524999069,458.6183524999069,458.6183524999069,458.6183524999069,old_sceneOut_47.png,177,1.0,1.3568177999695763,,021,0,2024-11-20_16h22.09.320,Surprise recog test,2023.1.3,59.983864329359186,
177,0,177,0,,,,,,,,,,,,,,,,,,,,,,,,,,,,,,,,,,,,462.8138735999819,463.8357881999109,460.9937695999397,460.9937695999397,460.9937695999397,460.9937695999397,old_stationery_14.png,178,3.0,1.821120799984783,,021,0,2024-11-20_16h22.09.320,Surprise recog test,2023.1.3,59.983864329359186,
178,0,178,0,,,,,,,,,,,,,,,,,,,,,,,,,,,,,,,,,,,,464.9984703999944,466.0160042999778,463.8357881999109,463.8357881999109,463.8357881999109,463.8357881999109,new_sceneIn_40.png,179,5.0,1.1617485000751913,,021,0,2024-11-20_16h22.09.320,Surprise recog test,2023.1.3,59.983864329359186,
179,0,179,0,,,,,,,,,,,,,,,,,,,,,,,,,,,,,,,,,,,,468.9606277999701,469.9771460999036,466.0160042999778,466.0160042999778,466.0160042999778,466.0160042999778,old_fruit_32.png,180,4.0,2.9458744999719784,,021,0,2024-11-20_16h22.09.320,Surprise recog test,2023.1.3,59.983864329359186,
180,0,180,0,,,,,,,,,,,,,,,,,,,,,,,,,,,,,,,,,,,,471.1681854999624,472.1890647999244,469.9771460999036,469.9771460999036,469.9771460999036,469.9771460999036,old_sceneIn_22.png,181,5.0,1.1859462999273092,,021,0,2024-11-20_16h22.09.320,Surprise recog test,2023.1.3,59.983864329359186,
181,0,181,0,,,,,,,,,,,,,,,,,,,,,,,,,,,,,,,,,,,,473.180249899975,474.2147800999228,472.1890647999244,472.1890647999244,472.1890647999244,472.1890647999244,old_fruit_22.png,182,1.0,0.9904725999804214,,021,0,2024-11-20_16h22.09.320,Surprise recog test,2023.1.3,59.983864329359186,
182,0,182,0,,,,,,,,,,,,,,,,,,,,,,,,,,,,,,,,,,,,475.63964690000284,476.6474685999565,474.2147800999228,474.2147800999228,474.2147800999228,474.2147800999228,old_sceneOut_17.png,183,2.0,1.4265502000926062,,021,0,2024-11-20_16h22.09.320,Surprise recog test,2023.1.3,59.983864329359186,
183,0,183,0,,,,,,,,,,,,,,,,,,,,,,,,,,,,,,,,,,,,477.83130739990156,478.8640330999624,476.6474685999565,476.6474685999565,476.6474685999565,476.6474685999565,new_sceneIn_12.png,184,5.0,1.1789380999980494,,021,0,2024-11-20_16h22.09.320,Surprise recog test,2023.1.3,59.983864329359186,
184,0,184,0,,,,,,,,,,,,,,,,,,,,,,,,,,,,,,,,,,,,480.22075629991014,481.2468869999284,478.8640330999624,478.8640330999624,478.8640330999624,478.8640330999624,new_sceneOut_24.png,185,3.0,1.3569842000724748,,021,0,2024-11-20_16h22.09.320,Surprise recog test,2023.1.3,59.983864329359186,
185,0,185,0,,,,,,,,,,,,,,,,,,,,,,,,,,,,,,,,,,,,482.61050419998355,483.6199862000067,481.2468869999284,481.2468869999284,481.2468869999284,481.2468869999284,old_fruit_25.png,186,4.0,1.364984199986793,,021,0,2024-11-20_16h22.09.320,Surprise recog test,2023.1.3,59.983864329359186,
186,0,186,0,,,,,,,,,,,,,,,,,,,,,,,,,,,,,,,,,,,,484.83163009991404,485.8581751999445,483.6199862000067,483.6199862000067,483.6199862000067,483.6199862000067,new_stationery_20.png,187,5.0,1.2017119999509305,,021,0,2024-11-20_16h22.09.320,Surprise recog test,2023.1.3,59.983864329359186,
187,0,187,0,,,,,,,,,,,,,,,,,,,,,,,,,,,,,,,,,,,,486.7319359999383,487.748108199914,485.8581751999445,485.8581751999445,485.8581751999445,485.8581751999445,old_stationery_26.png,188,5.0,0.8773114000214264,,021,0,2024-11-20_16h22.09.320,Surprise recog test,2023.1.3,59.983864329359186,
188,0,188,0,,,,,,,,,,,,,,,,,,,,,,,,,,,,,,,,,,,,488.86045659997035,489.87861609994434,487.748108199914,487.748108199914,487.748108199914,487.748108199914,new_stationery_39.png,189,5.0,1.1139389000600204,,021,0,2024-11-20_16h22.09.320,Surprise recog test,2023.1.3,59.983864329359186,
189,0,189,0,,,,,,,,,,,,,,,,,,,,,,,,,,,,,,,,,,,,490.9818474999629,491.99520569993183,489.87861609994434,489.87861609994434,489.87861609994434,489.87861609994434,old_sceneOut_45.png,190,3.0,1.0995685000671074,,021,0,2024-11-20_16h22.09.320,Surprise recog test,2023.1.3,59.983864329359186,
190,0,190,0,,,,,,,,,,,,,,,,,,,,,,,,,,,,,,,,,,,,493.1943442999618,494.212705599959,491.99520569993183,491.99520569993183,491.99520569993183,491.99520569993183,old_sceneIn_15.png,191,5.0,1.195006599999033,,021,0,2024-11-20_16h22.09.320,Surprise recog test,2023.1.3,59.983864329359186,
191,0,191,0,,,,,,,,,,,,,,,,,,,,,,,,,,,,,,,,,,,,495.6353750999551,496.64826839999296,494.212705599959,494.212705599959,494.212705599959,494.212705599959,old_sceneOut_14.png,192,5.0,1.4191434000385925,,021,0,2024-11-20_16h22.09.320,Surprise recog test,2023.1.3,59.983864329359186,
192,0,192,0,,,,,,,,,,,,,,,,,,,,,,,,,,,,,,,,,,,,498.00977759994566,499.031966199982,496.64826839999296,496.64826839999296,496.64826839999296,496.64826839999296,new_stationery_10.png,193,3.0,1.3580126999877393,,021,0,2024-11-20_16h22.09.320,Surprise recog test,2023.1.3,59.983864329359186,
193,0,193,0,,,,,,,,,,,,,,,,,,,,,,,,,,,,,,,,,,,,500.0886639999226,501.11148119997233,499.031966199982,499.031966199982,499.031966199982,499.031966199982,old_stationery_29.png,194,2.0,1.058495600009337,,021,0,2024-11-20_16h22.09.320,Surprise recog test,2023.1.3,59.983864329359186,
194,0,194,0,,,,,,,,,,,,,,,,,,,,,,,,,,,,,,,,,,,,502.0049778999528,503.03178099996876,501.11148119997233,501.11148119997233,501.11148119997233,501.11148119997233,old_stationery_47.png,195,2.0,0.8943255000049248,,021,0,2024-11-20_16h22.09.320,Surprise recog test,2023.1.3,59.983864329359186,
195,0,195,0,,,,,,,,,,,,,,,,,,,,,,,,,,,,,,,,,,,,503.76822689990513,,503.03178099996876,503.03178099996876,503.03178099996876,503.03178099996876,new_stationery_43.png,196,2.0,0.7377448999322951,,021,0,2024-11-20_16h22.09.320,Surprise recog test,2023.1.3,59.983864329359186,
196,0,196,0,,,,,,,,,,,,,,,,,,,,,,,,,,,,,,,,,,,,505.9159534999635,506.9237525999779,504.7969818999991,504.7969818999991,504.7969818999991,504.7969818999991,old_sceneOut_6.png,197,3.0,1.1152012000093237,,021,0,2024-11-20_16h22.09.320,Surprise recog test,2023.1.3,59.983864329359186,
197,0,197,0,,,,,,,,,,,,,,,,,,,,,,,,,,,,,,,,,,,,508.1255165999755,509.1547562999185,506.9237525999779,506.9237525999779,506.9237525999779,506.9237525999779,new_sceneIn_6.png,198,5.0,1.19507480005268,,021,0,2024-11-20_16h22.09.320,Surprise recog test,2023.1.3,59.983864329359186,
198,0,198,0,,,,,,,,,,,,,,,,,,,,,,,,,,,,,,,,,,,,510.5206854999997,511.53717599995434,509.1547562999185,509.1547562999185,509.1547562999185,509.1547562999185,new_fruit_39.png,199,5.0,1.3695284998975694,,021,0,2024-11-20_16h22.09.320,Surprise recog test,2023.1.3,59.983864329359186,
199,0,199,0,,,,,,,,,,,,,,,,,,,,,,,,,,,,,,,,,,,,513.1371087000007,514.14637699991,511.53717599995434,511.53717599995434,511.53717599995434,511.53717599995434,old_sceneOut_27.png,200,5.0,1.5999793999362737,,021,0,2024-11-20_16h22.09.320,Surprise recog test,2023.1.3,59.983864329359186,
200,0,200,0,,,,,,,,,,,,,,,,,,,,,,,,,,,,,,,,,,,,515.404762799968,516.4231621999061,514.14637699991,514.14637699991,514.14637699991,514.14637699991,new_stationery_23.png,201,3.0,1.2537261999677867,,021,0,2024-11-20_16h22.09.320,Surprise recog test,2023.1.3,59.983864329359186,
201,0,201,0,,,,,,,,,,,,,,,,,,,,,,,,,,,,,,,,,,,,517.5489131999202,518.5818451999221,516.4231621999061,516.4231621999061,516.4231621999061,516.4231621999061,new_sceneOut_2.png,202,5.0,1.1245735000120476,,021,0,2024-11-20_16h22.09.320,Surprise recog test,2023.1.3,59.983864329359186,
202,0,202,0,,,,,,,,,,,,,,,,,,,,,,,,,,,,,,,,,,,,519.535942699993,520.5504254999105,518.5818451999221,518.5818451999221,518.5818451999221,518.5818451999221,new_sceneIn_7.png,203,5.0,0.9570018000667915,,021,0,2024-11-20_16h22.09.320,Surprise recog test,2023.1.3,59.983864329359186,
203,0,203,0,,,,,,,,,,,,,,,,,,,,,,,,,,,,,,,,,,,,521.5960152999032,522.6148416999495,520.5504254999105,520.5504254999105,520.5504254999105,520.5504254999105,new_fruit_20.png,204,1.0,1.0416111999657005,,021,0,2024-11-20_16h22.09.320,Surprise recog test,2023.1.3,59.983864329359186,
204,0,204,0,,,,,,,,,,,,,,,,,,,,,,,,,,,,,,,,,,,,523.6141922000097,524.6335425999714,522.6148416999495,522.6148416999495,522.6148416999495,522.6148416999495,new_fruit_26.png,205,1.0,0.9997977999737486,,021,0,2024-11-20_16h22.09.320,Surprise recog test,2023.1.3,59.983864329359186,
205,0,205,0,,,,,,,,,,,,,,,,,,,,,,,,,,,,,,,,,,,,525.739259099937,526.7727206000127,524.6335425999714,524.6335425999714,524.6335425999714,524.6335425999714,new_stationery_3.png,206,4.0,1.105454200063832,,021,0,2024-11-20_16h22.09.320,Surprise recog test,2023.1.3,59.983864329359186,
206,0,206,0,,,,,,,,,,,,,,,,,,,,,,,,,,,,,,,,,,,,528.1873624,,526.7727206000127,526.7727206000127,526.7727206000127,526.7727206000127,new_fruit_21.png,207,3.0,1.4206642999779433,,021,0,2024-11-20_16h22.09.320,Surprise recog test,2023.1.3,59.983864329359186,
207,0,207,0,,,,,,,,,,,,,,,,,,,,,,,,,,,,,,,,,,,,530.2214333999436,531.2416717999149,529.2174692999106,529.2174692999106,529.2174692999106,529.2174692999106,new_sceneIn_50.png,208,5.0,1.001144399982877,,021,0,2024-11-20_16h22.09.320,Surprise recog test,2023.1.3,59.983864329359186,
208,0,208,0,,,,,,,,,,,,,,,,,,,,,,,,,,,,,,,,,,,,532.304550300003,533.3167757999618,531.2416717999149,531.2416717999149,531.2416717999149,531.2416717999149,new_sceneOut_35.png,209,5.0,1.0634247999405488,,021,0,2024-11-20_16h22.09.320,Surprise recog test,2023.1.3,59.983864329359186,
209,0,209,0,,,,,,,,,,,,,,,,,,,,,,,,,,,,,,,,,,,,534.3007290000096,535.3237689000089,533.3167757999618,533.3167757999618,533.3167757999618,533.3167757999618,new_stationery_29.png,210,5.0,0.9841575999744236,,021,0,2024-11-20_16h22.09.320,Surprise recog test,2023.1.3,59.983864329359186,
210,0,210,0,,,,,,,,,,,,,,,,,,,,,,,,,,,,,,,,,,,,537.2257079000119,538.2305157999508,535.3237689000089,535.3237689000089,535.3237689000089,535.3237689000089,old_fruit_29.png,211,4.0,1.9029612999875098,,021,0,2024-11-20_16h22.09.320,Surprise recog test,2023.1.3,59.983864329359186,
211,0,211,0,,,,,,,,,,,,,,,,,,,,,,,,,,,,,,,,,,,,539.4933561999351,540.5186542998999,538.2305157999508,538.2305157999508,538.2305157999508,538.2305157999508,old_stationery_34.png,212,3.0,1.259542700019665,,021,0,2024-11-20_16h22.09.320,Surprise recog test,2023.1.3,59.983864329359186,
212,0,212,0,,,,,,,,,,,,,,,,,,,,,,,,,,,,,,,,,,,,541.9088993999176,542.9217429999262,540.5186542998999,540.5186542998999,540.5186542998999,540.5186542998999,old_stationery_3.png,213,2.0,1.3941239999840036,,021,0,2024-11-20_16h22.09.320,Surprise recog test,2023.1.3,59.983864329359186,
213,0,213,0,,,,,,,,,,,,,,,,,,,,,,,,,,,,,,,,,,,,544.0142964000115,545.0313562999945,542.9217429999262,542.9217429999262,542.9217429999262,542.9217429999262,new_sceneOut_12.png,214,4.0,1.0819068000419065,,021,0,2024-11-20_16h22.09.320,Surprise recog test,2023.1.3,59.983864329359186,
214,0,214,0,,,,,,,,,,,,,,,,,,,,,,,,,,,,,,,,,,,,545.9769145000027,547.008172599948,545.0313562999945,545.0313562999945,545.0313562999945,545.0313562999945,new_sceneOut_18.png,215,4.0,0.9478402000386268,,021,0,2024-11-20_16h22.09.320,Surprise recog test,2023.1.3,59.983864329359186,
215,0,215,0,,,,,,,,,,,,,,,,,,,,,,,,,,,,,,,,,,,,548.0213640999282,,547.008172599948,547.008172599948,547.008172599948,547.008172599948,old_sceneOut_5.png,216,4.0,1.0150048000505194,,021,0,2024-11-20_16h22.09.320,Surprise recog test,2023.1.3,59.983864329359186,
216,0,216,0,,,,,,,,,,,,,,,,,,,,,,,,,,,,,,,,,,,,550.514257999952,551.5294954999117,549.0490415999666,549.0490415999666,549.0490415999666,549.0490415999666,new_stationery_9.png,217,3.0,1.467220799997449,,021,0,2024-11-20_16h22.09.320,Surprise recog test,2023.1.3,59.983864329359186,
217,0,217,0,,,,,,,,,,,,,,,,,,,,,,,,,,,,,,,,,,,,552.9969204999506,554.0300334999338,551.5294954999117,551.5294954999117,551.5294954999117,551.5294954999117,old_sceneOut_44.png,218,3.0,1.4642677999800071,,021,0,2024-11-20_16h22.09.320,Surprise recog test,2023.1.3,59.983864329359186,
218,0,218,0,,,,,,,,,,,,,,,,,,,,,,,,,,,,,,,,,,,,555.1910187999019,556.2069244999439,554.0300334999338,554.0300334999338,554.0300334999338,554.0300334999338,new_stationery_16.png,219,4.0,1.1640259999549016,,021,0,2024-11-20_16h22.09.320,Surprise recog test,2023.1.3,59.983864329359186,
219,0,219,0,,,,,,,,,,,,,,,,,,,,,,,,,,,,,,,,,,,,557.2180133999791,558.233401699923,556.2069244999439,556.2069244999439,556.2069244999439,556.2069244999439,new_stationery_44.png,220,4.0,1.0146133999805897,,021,0,2024-11-20_16h22.09.320,Surprise recog test,2023.1.3,59.983864329359186,
220,0,220,0,,,,,,,,,,,,,,,,,,,,,,,,,,,,,,,,,,,,559.2163192000007,560.2469292999012,558.233401699923,558.233401699923,558.233401699923,558.233401699923,new_stationery_21.png,221,4.0,0.9784842999652028,,021,0,2024-11-20_16h22.09.320,Surprise recog test,2023.1.3,59.983864329359186,
221,0,221,0,,,,,,,,,,,,,,,,,,,,,,,,,,,,,,,,,,,,561.1636825999012,,560.2469292999012,560.2469292999012,560.2469292999012,560.2469292999012,new_fruit_35.png,222,2.0,0.9174862999934703,,021,0,2024-11-20_16h22.09.320,Surprise recog test,2023.1.3,59.983864329359186,
222,0,222,0,,,,,,,,,,,,,,,,,,,,,,,,,,,,,,,,,,,,563.5803392999806,564.5991701999446,562.2022295999341,562.2022295999341,562.2022295999341,562.2022295999341,old_sceneOut_29.png,223,3.0,1.3820141000906006,,021,0,2024-11-20_16h22.09.320,Surprise recog test,2023.1.3,59.983864329359186,
223,0,223,0,,,,,,,,,,,,,,,,,,,,,,,,,,,,,,,,,,,,565.5620076999767,566.5806788000045,564.5991701999446,564.5991701999446,564.5991701999446,564.5991701999446,new_stationery_32.png,224,4.0,0.9617504000198096,,021,0,2024-11-20_16h22.09.320,Surprise recog test,2023.1.3,59.983864329359186,
224,0,224,0,,,,,,,,,,,,,,,,,,,,,,,,,,,,,,,,,,,,567.5444634999149,568.5713481999701,566.5806788000045,566.5806788000045,566.5806788000045,566.5806788000045,old_fruit_28.png,225,1.0,0.9637561999261379,,021,0,2024-11-20_16h22.09.320,Surprise recog test,2023.1.3,59.983864329359186,
225,0,225,0,,,,,,,,,,,,,,,,,,,,,,,,,,,,,,,,,,,,569.9857588999439,570.9938865000149,568.5713481999701,568.5713481999701,568.5713481999701,568.5713481999701,old_sceneIn_42.png,226,5.0,1.410361499991268,,021,0,2024-11-20_16h22.09.320,Surprise recog test,2023.1.3,59.983864329359186,
226,0,226,0,,,,,,,,,,,,,,,,,,,,,,,,,,,,,,,,,,,,572.4135387999704,573.4454734999454,570.9938865000149,570.9938865000149,570.9938865000149,570.9938865000149,new_sceneOut_4.png,227,4.0,1.4157257000915706,,021,0,2024-11-20_16h22.09.320,Surprise recog test,2023.1.3,59.983864329359186,
227,0,227,0,,,,,,,,,,,,,,,,,,,,,,,,,,,,,,,,,,,,574.6496498999186,575.6787874000147,573.4454734999454,573.4454734999454,573.4454734999454,573.4454734999454,new_stationery_18.png,228,4.0,1.2078423000639305,,021,0,2024-11-20_16h22.09.320,Surprise recog test,2023.1.3,59.983864329359186,
228,0,228,0,,,,,,,,,,,,,,,,,,,,,,,,,,,,,,,,,,,,576.675336599932,577.6804573999252,575.6787874000147,575.6787874000147,575.6787874000147,575.6787874000147,old_sceneOut_41.png,229,4.0,0.9978310000151396,,021,0,2024-11-20_16h22.09.320,Surprise recog test,2023.1.3,59.983864329359186,
229,0,229,0,,,,,,,,,,,,,,,,,,,,,,,,,,,,,,,,,,,,578.6842691999627,579.7109399999026,577.6804573999252,577.6804573999252,577.6804573999252,577.6804573999252,new_sceneIn_19.png,230,4.0,0.9995007999241352,,021,0,2024-11-20_16h22.09.320,Surprise recog test,2023.1.3,59.983864329359186,
230,0,230,0,,,,,,,,,,,,,,,,,,,,,,,,,,,,,,,,,,,,580.9754548999481,581.988932600012,579.7109399999026,579.7109399999026,579.7109399999026,579.7109399999026,new_fruit_5.png,231,4.0,1.2653560999315232,,021,0,2024-11-20_16h22.09.320,Surprise recog test,2023.1.3,59.983864329359186,
231,0,231,0,,,,,,,,,,,,,,,,,,,,,,,,,,,,,,,,,,,,583.7287220999133,584.7381121999351,581.988932600012,581.988932600012,581.988932600012,581.988932600012,new_sceneOut_15.png,232,4.0,1.7373434000182897,,021,0,2024-11-20_16h22.09.320,Surprise recog test,2023.1.3,59.983864329359186,
232,0,232,0,,,,,,,,,,,,,,,,,,,,,,,,,,,,,,,,,,,,585.8873748999322,586.9033309000079,584.7381121999351,584.7381121999351,584.7381121999351,584.7381121999351,new_stationery_5.png,233,4.0,1.1411094999639317,,021,0,2024-11-20_16h22.09.320,Surprise recog test,2023.1.3,59.983864329359186,
233,0,233,0,,,,,,,,,,,,,,,,,,,,,,,,,,,,,,,,,,,,588.2240376999835,589.2421664999565,586.9033309000079,586.9033309000079,586.9033309000079,586.9033309000079,old_sceneOut_49.png,234,4.0,1.3167176001006737,,021,0,2024-11-20_16h22.09.320,Surprise recog test,2023.1.3,59.983864329359186,
234,0,234,0,,,,,,,,,,,,,,,,,,,,,,,,,,,,,,,,,,,,590.5263003999135,591.5560276999604,589.2421664999565,589.2421664999565,589.2421664999565,589.2421664999565,old_stationery_43.png,235,3.0,1.2817264000186697,,021,0,2024-11-20_16h22.09.320,Surprise recog test,2023.1.3,59.983864329359186,
235,0,235,0,,,,,,,,,,,,,,,,,,,,,,,,,,,,,,,,,,,,592.6504324999405,593.675302599906,591.5560276999604,591.5560276999604,591.5560276999604,591.5560276999604,old_sceneIn_19.png,236,5.0,1.0906048000324517,,021,0,2024-11-20_16h22.09.320,Surprise recog test,2023.1.3,59.983864329359186,
236,0,236,0,,,,,,,,,,,,,,,,,,,,,,,,,,,,,,,,,,,,595.2406946999254,596.2578619999113,593.675302599906,593.675302599906,593.675302599906,593.675302599906,old_sceneOut_31.png,237,3.0,1.5678484999807552,,021,0,2024-11-20_16h22.09.320,Surprise recog test,2023.1.3,59.983864329359186,
237,0,237,0,,,,,,,,,,,,,,,,,,,,,,,,,,,,,,,,,,,,597.5587602999294,598.5819323000032,596.2578619999113,596.2578619999113,596.2578619999113,596.2578619999113,old_sceneOut_38.png,238,4.0,1.298105000052601,,021,0,2024-11-20_16h22.09.320,Surprise recog test,2023.1.3,59.983864329359186,
238,0,238,0,,,,,,,,,,,,,,,,,,,,,,,,,,,,,,,,,,,,599.9300395000027,,598.5819323000032,598.5819323000032,598.5819323000032,598.5819323000032,new_fruit_3.png,239,1.0,1.3504068999318406,,021,0,2024-11-20_16h22.09.320,Surprise recog test,2023.1.3,59.983864329359186,
239,0,239,0,,,,,,,,,,,,,,,,,,,,,,,,,,,,,,,,,,,,602.4523463000078,603.4708686999511,600.963584400015,600.963584400015,600.963584400015,600.963584400015,old_sceneIn_11.png,240,4.0,1.4886504999594763,,021,0,2024-11-20_16h22.09.320,Surprise recog test,2023.1.3,59.983864329359186,
240,0,240,0,,,,,,,,,,,,,,,,,,,,,,,,,,,,,,,,,,,,605.0148914000019,606.0227980999043,603.4708686999511,603.4708686999511,603.4708686999511,603.4708686999511,old_fruit_33.png,241,2.0,1.5360368000110611,,021,0,2024-11-20_16h22.09.320,Surprise recog test,2023.1.3,59.983864329359186,
241,0,241,0,,,,,,,,,,,,,,,,,,,,,,,,,,,,,,,,,,,,607.4010497999843,608.4121686000144,606.0227980999043,606.0227980999043,606.0227980999043,606.0227980999043,old_sceneIn_16.png,242,5.0,1.37447279994376,,021,0,2024-11-20_16h22.09.320,Surprise recog test,2023.1.3,59.983864329359186,
242,0,242,0,,,,,,,,,,,,,,,,,,,,,,,,,,,,,,,,,,,,609.5771401999518,610.6068500999827,608.4121686000144,608.4121686000144,608.4121686000144,608.4121686000144,new_stationery_8.png,243,5.0,1.1598244999768212,,021,0,2024-11-20_16h22.09.320,Surprise recog test,2023.1.3,59.983864329359186,
243,0,243,0,,,,,,,,,,,,,,,,,,,,,,,,,,,,,,,,,,,,611.8299322999083,612.8582942999201,610.6068500999827,610.6068500999827,610.6068500999827,610.6068500999827,old_sceneOut_34.png,244,3.0,1.2244658999843523,,021,0,2024-11-20_16h22.09.320,Surprise recog test,2023.1.3,59.983864329359186,
244,0,244,0,,,,,,,,,,,,,,,,,,,,,,,,,,,,,,,,,,,,614.5671283999691,615.5894908999326,612.8582942999201,612.8582942999201,612.8582942999201,612.8582942999201,new_stationery_12.png,245,2.0,1.7101172999246046,,021,0,2024-11-20_16h22.09.320,Surprise recog test,2023.1.3,59.983864329359186,
245,0,245,0,,,,,,,,,,,,,,,,,,,,,,,,,,,,,,,,,,,,616.4343293999555,617.460131199914,615.5894908999326,615.5894908999326,615.5894908999326,615.5894908999326,old_fruit_48.png,246,1.0,0.8459555000299588,,021,0,2024-11-20_16h22.09.320,Surprise recog test,2023.1.3,59.983864329359186,
246,0,246,0,,,,,,,,,,,,,,,,,,,,,,,,,,,,,,,,,,,,618.5064486999763,619.5322799999267,617.460131199914,617.460131199914,617.460131199914,617.460131199914,old_fruit_38.png,247,1.0,1.0486533999210224,,021,0,2024-11-20_16h22.09.320,Surprise recog test,2023.1.3,59.983864329359186,
247,0,247,0,,,,,,,,,,,,,,,,,,,,,,,,,,,,,,,,,,,,620.5057653000113,621.5186129999347,619.5322799999267,619.5322799999267,619.5322799999267,619.5322799999267,old_stationery_36.png,248,1.0,0.9739895999664441,,021,0,2024-11-20_16h22.09.320,Surprise recog test,2023.1.3,59.983864329359186,
248,0,248,0,,,,,,,,,,,,,,,,,,,,,,,,,,,,,,,,,,,,622.6250545999501,623.6372054999229,621.5186129999347,621.5186129999347,621.5186129999347,621.5186129999347,new_sceneIn_14.png,249,5.0,1.102033199975267,,021,0,2024-11-20_16h22.09.320,Surprise recog test,2023.1.3,59.983864329359186,
249,0,249,0,,,,,,,,,,,,,,,,,,,,,,,,,,,,,,,,,,,,624.7717293999158,625.8029360999353,623.6372054999229,623.6372054999229,623.6372054999229,623.6372054999229,old_sceneIn_13.png,250,4.0,1.1318814000114799,,021,0,2024-11-20_16h22.09.320,Surprise recog test,2023.1.3,59.983864329359186,
250,0,250,0,,,,,,,,,,,,,,,,,,,,,,,,,,,,,,,,,,,,626.8961098999716,627.918880400015,625.8029360999353,625.8029360999353,625.8029360999353,625.8029360999353,new_stationery_19.png,251,4.0,1.09309530002065,,021,0,2024-11-20_16h22.09.320,Surprise recog test,2023.1.3,59.983864329359186,
251,0,251,0,,,,,,,,,,,,,,,,,,,,,,,,,,,,,,,,,,,,628.9433074999833,629.9594413999002,627.918880400015,627.918880400015,627.918880400015,627.918880400015,new_sceneIn_35.png,252,5.0,1.0257858999539167,,021,0,2024-11-20_16h22.09.320,Surprise recog test,2023.1.3,59.983864329359186,
252,0,252,0,,,,,,,,,,,,,,,,,,,,,,,,,,,,,,,,,,,,631.4948641000083,632.5239919999149,629.9594413999002,629.9594413999002,629.9594413999002,629.9594413999002,new_fruit_45.png,253,2.0,1.5287338000489399,,021,0,2024-11-20_16h22.09.320,Surprise recog test,2023.1.3,59.983864329359186,
253,0,253,0,,,,,,,,,,,,,,,,,,,,,,,,,,,,,,,,,,,,633.9155725999735,634.9317233999027,632.5239919999149,632.5239919999149,632.5239919999149,632.5239919999149,new_sceneOut_44.png,254,3.0,1.3933012000052258,,021,0,2024-11-20_16h22.09.320,Surprise recog test,2023.1.3,59.983864329359186,
254,0,254,0,,,,,,,,,,,,,,,,,,,,,,,,,,,,,,,,,,,,635.961634599953,636.9895351999439,634.9317233999027,634.9317233999027,634.9317233999027,634.9317233999027,new_stationery_24.png,255,4.0,1.024920100113377,,021,0,2024-11-20_16h22.09.320,Surprise recog test,2023.1.3,59.983864329359186,
255,0,255,0,,,,,,,,,,,,,,,,,,,,,,,,,,,,,,,,,,,,638.6835944999475,639.7118448999245,636.9895351999439,636.9895351999439,636.9895351999439,636.9895351999439,old_fruit_39.png,256,2.0,1.6948189999675378,,021,0,2024-11-20_16h22.09.320,Surprise recog test,2023.1.3,59.983864329359186,
256,0,256,0,,,,,,,,,,,,,,,,,,,,,,,,,,,,,,,,,,,,641.0270147999981,642.0482670000056,639.7118448999245,639.7118448999245,639.7118448999245,639.7118448999245,new_fruit_1.png,257,4.0,1.3175423999782652,,021,0,2024-11-20_16h22.09.320,Surprise recog test,2023.1.3,59.983864329359186,
257,0,257,0,,,,,,,,,,,,,,,,,,,,,,,,,,,,,,,,,,,,643.2558143999195,644.2686515999958,642.0482670000056,642.0482670000056,642.0482670000056,642.0482670000056,old_sceneOut_9.png,258,4.0,1.208315100055188,,021,0,2024-11-20_16h22.09.320,Surprise recog test,2023.1.3,59.983864329359186,
258,0,258,0,,,,,,,,,,,,,,,,,,,,,,,,,,,,,,,,,,,,645.3188295,,644.2686515999958,644.2686515999958,644.2686515999958,644.2686515999958,old_stationery_1.png,259,5.0,1.0453656000318006,,021,0,2024-11-20_16h22.09.320,Surprise recog test,2023.1.3,59.983864329359186,
259,0,259,0,,,,,,,,,,,,,,,,,,,,,,,,,,,,,,,,,,,,647.7927172000054,648.8266452999087,646.339062999934,646.339062999934,646.339062999934,646.339062999934,old_stationery_12.png,260,3.0,1.4477294000098482,,021,0,2024-11-20_16h22.09.320,Surprise recog test,2023.1.3,59.983864329359186,
260,0,260,0,,,,,,,,,,,,,,,,,,,,,,,,,,,,,,,,,,,,650.2190139999148,651.2402501999168,648.8266452999087,648.8266452999087,648.8266452999087,648.8266452999087,new_stationery_37.png,261,5.0,1.389131399919279,,021,0,2024-11-20_16h22.09.320,Surprise recog test,2023.1.3,59.983864329359186,
261,0,261,0,,,,,,,,,,,,,,,,,,,,,,,,,,,,,,,,,,,,652.2736449999502,,651.2402501999168,651.2402501999168,651.2402501999168,651.2402501999168,old_fruit_7.png,262,1.0,1.0361224000807852,,021,0,2024-11-20_16h22.09.320,Surprise recog test,2023.1.3,59.983864329359186,
262,0,262,0,,,,,,,,,,,,,,,,,,,,,,,,,,,,,,,,,,,,654.3208654999034,655.3319369999226,653.2920130999992,653.2920130999992,653.2920130999992,653.2920130999992,new_stationery_35.png,263,1.0,1.0248965000500903,,021,0,2024-11-20_16h22.09.320,Surprise recog test,2023.1.3,59.983864329359186,
263,0,263,0,,,,,,,,,,,,,,,,,,,,,,,,,,,,,,,,,,,,656.0010104000103,657.0251628999831,655.3319369999226,655.3319369999226,655.3319369999226,655.3319369999226,old_fruit_8.png,264,1.0,0.6646529999561608,,021,0,2024-11-20_16h22.09.320,Surprise recog test,2023.1.3,59.983864329359186,
264,0,264,0,,,,,,,,,,,,,,,,,,,,,,,,,,,,,,,,,,,,658.3892012999859,659.4008997000055,657.0251628999831,657.0251628999831,657.0251628999831,657.0251628999831,old_stationery_50.png,265,3.0,1.3660076000960544,,021,0,2024-11-20_16h22.09.320,Surprise recog test,2023.1.3,59.983864329359186,
265,0,265,0,,,,,,,,,,,,,,,,,,,,,,,,,,,,,,,,,,,,660.7611652999185,661.770872599911,659.4008997000055,659.4008997000055,659.4008997000055,659.4008997000055,new_fruit_16.png,266,4.0,1.3507405000273138,,021,0,2024-11-20_16h22.09.320,Surprise recog test,2023.1.3,59.983864329359186,
266,0,266,0,,,,,,,,,,,,,,,,,,,,,,,,,,,,,,,,,,,,663.1966863999842,664.2111885999329,661.770872599911,661.770872599911,661.770872599911,661.770872599911,old_sceneOut_43.png,267,4.0,1.4206272000446916,,021,0,2024-11-20_16h22.09.320,Surprise recog test,2023.1.3,59.983864329359186,
267,0,267,0,,,,,,,,,,,,,,,,,,,,,,,,,,,,,,,,,,,,665.2266424999107,666.2401953999652,664.2111885999329,664.2111885999329,664.2111885999329,664.2111885999329,old_fruit_43.png,268,1.0,1.0166325999889523,,021,0,2024-11-20_16h22.09.320,Surprise recog test,2023.1.3,59.983864329359186,
268,0,268,0,,,,,,,,,,,,,,,,,,,,,,,,,,,,,,,,,,,,667.4034653999843,,666.2401953999652,666.2401953999652,666.2401953999652,666.2401953999652,new_sceneOut_13.png,269,4.0,1.1593087000073865,,021,0,2024-11-20_16h22.09.320,Surprise recog test,2023.1.3,59.983864329359186,
269,0,269,0,,,,,,,,,,,,,,,,,,,,,,,,,,,,,,,,,,,,669.6101510999724,670.6385295999935,668.4307294999016,668.4307294999016,668.4307294999016,668.4307294999016,old_sceneIn_46.png,270,5.0,1.1797645000042394,,021,0,2024-11-20_16h22.09.320,Surprise recog test,2023.1.3,59.983864329359186,
270,0,270,0,,,,,,,,,,,,,,,,,,,,,,,,,,,,,,,,,,,,671.8399630999193,,670.6385295999935,670.6385295999935,670.6385295999935,670.6385295999935,new_fruit_47.png,271,5.0,1.2035347000928596,,021,0,2024-11-20_16h22.09.320,Surprise recog test,2023.1.3,59.983864329359186,
271,0,271,0,,,,,,,,,,,,,,,,,,,,,,,,,,,,,,,,,,,,673.9551132000051,674.9738796999445,672.8673697999911,672.8673697999911,672.8673697999911,672.8673697999911,new_sceneOut_20.png,272,5.0,1.0880543999373913,,021,0,2024-11-20_16h22.09.320,Surprise recog test,2023.1.3,59.983864329359186,
272,0,272,0,,,,,,,,,,,,,,,,,,,,,,,,,,,,,,,,,,,,676.0048381999368,677.0143506999593,674.9738796999445,674.9738796999445,674.9738796999445,674.9738796999445,new_sceneOut_38.png,273,3.0,1.0338653000071645,,021,0,2024-11-20_16h22.09.320,Surprise recog test,2023.1.3,59.983864329359186,
273,0,273,0,,,,,,,,,,,,,,,,,,,,,,,,,,,,,,,,,,,,678.576190099935,679.5856328000082,677.0143506999593,677.0143506999593,677.0143506999593,677.0143506999593,new_stationery_45.png,274,2.0,1.5569124999456108,,021,0,2024-11-20_16h22.09.320,Surprise recog test,2023.1.3,59.983864329359186,
274,0,274,0,,,,,,,,,,,,,,,,,,,,,,,,,,,,,,,,,,,,680.7024659999879,681.7303371999878,679.5856328000082,679.5856328000082,679.5856328000082,679.5856328000082,new_sceneIn_27.png,275,5.0,1.1160702999914065,,021,0,2024-11-20_16h22.09.320,Surprise recog test,2023.1.3,59.983864329359186,
275,0,275,0,,,,,,,,,,,,,,,,,,,,,,,,,,,,,,,,,,,,683.1059925999725,684.1209339000052,681.7303371999878,681.7303371999878,681.7303371999878,681.7303371999878,old_stationery_9.png,276,2.0,1.3754965999396518,,021,0,2024-11-20_16h22.09.320,Surprise recog test,2023.1.3,59.983864329359186,
276,0,276,0,,,,,,,,,,,,,,,,,,,,,,,,,,,,,,,,,,,,685.0672344999621,,684.1209339000052,684.1209339000052,684.1209339000052,684.1209339000052,old_stationery_41.png,277,4.0,0.9395237000426278,,021,0,2024-11-20_16h22.09.320,Surprise recog test,2023.1.3,59.983864329359186,
277,0,277,0,,,,,,,,,,,,,,,,,,,,,,,,,,,,,,,,,,,,687.5638516999315,688.5749229999492,686.085658099968,686.085658099968,686.085658099968,686.085658099968,old_stationery_22.png,278,5.0,1.4733071000082418,,021,0,2024-11-20_16h22.09.320,Surprise recog test,2023.1.3,59.983864329359186,
278,0,278,0,,,,,,,,,,,,,,,,,,,,,,,,,,,,,,,,,,,,689.836143399938,690.8411178999813,688.5749229999492,688.5749229999492,688.5749229999492,688.5749229999492,old_stationery_6.png,279,5.0,1.2588390000164509,,021,0,2024-11-20_16h22.09.320,Surprise recog test,2023.1.3,59.983864329359186,
279,0,279,0,,,,,,,,,,,,,,,,,,,,,,,,,,,,,,,,,,,,692.4387555000139,693.4570733999135,690.8411178999813,690.8411178999813,690.8411178999813,690.8411178999813,new_stationery_17.png,280,3.0,1.5952108999481425,,021,0,2024-11-20_16h22.09.320,Surprise recog test,2023.1.3,59.983864329359186,
280,0,280,0,,,,,,,,,,,,,,,,,,,,,,,,,,,,,,,,,,,,694.4391452999553,695.4588073999621,693.4570733999135,693.4570733999135,693.4570733999135,693.4570733999135,old_stationery_38.png,281,2.0,0.985551799996756,,021,0,2024-11-20_16h22.09.320,Surprise recog test,2023.1.3,59.983864329359186,
281,0,281,0,,,,,,,,,,,,,,,,,,,,,,,,,,,,,,,,,,,,696.3827252999181,697.4108099999139,695.4588073999621,695.4588073999621,695.4588073999621,695.4588073999621,old_fruit_5.png,282,1.0,0.9243355999933556,,021,0,2024-11-20_16h22.09.320,Surprise recog test,2023.1.3,59.983864329359186,
282,0,282,0,,,,,,,,,,,,,,,,,,,,,,,,,,,,,,,,,,,,698.183327900013,699.2135449999478,697.4108099999139,697.4108099999139,697.4108099999139,697.4108099999139,new_fruit_27.png,283,1.0,0.773904399946332,,021,0,2024-11-20_16h22.09.320,Surprise recog test,2023.1.3,59.983864329359186,
283,0,283,0,,,,,,,,,,,,,,,,,,,,,,,,,,,,,,,,,,,,700.3896908999886,701.4150174999377,699.2135449999478,699.2135449999478,699.2135449999478,699.2135449999478,old_sceneIn_35.png,284,5.0,1.178421700024046,,021,0,2024-11-20_16h22.09.320,Surprise recog test,2023.1.3,59.983864329359186,
284,0,284,0,,,,,,,,,,,,,,,,,,,,,,,,,,,,,,,,,,,,702.6704928999534,703.6918275000062,701.4150174999377,701.4150174999377,701.4150174999377,701.4150174999377,old_sceneOut_42.png,285,4.0,1.2573552000103518,,021,0,2024-11-20_16h22.09.320,Surprise recog test,2023.1.3,59.983864329359186,
285,0,285,0,,,,,,,,,,,,,,,,,,,,,,,,,,,,,,,,,,,,704.6409841999412,705.6709180999314,703.6918275000062,703.6918275000062,703.6918275000062,703.6918275000062,new_sceneIn_47.png,286,5.0,0.9479555999860168,,021,0,2024-11-20_16h22.09.320,Surprise recog test,2023.1.3,59.983864329359186,
286,0,286,0,,,,,,,,,,,,,,,,,,,,,,,,,,,,,,,,,,,,706.8523330999305,,705.6709180999314,705.6709180999314,705.6709180999314,705.6709180999314,new_stationery_6.png,287,4.0,1.1788270000834018,,021,0,2024-11-20_16h22.09.320,Surprise recog test,2023.1.3,59.983864329359186,
287,0,287,0,,,,,,,,,,,,,,,,,,,,,,,,,,,,,,,,,,,,708.827479599975,709.8512110000011,707.8842335999943,707.8842335999943,707.8842335999943,707.8842335999943,old_sceneIn_44.png,288,5.0,0.9444836999755353,,021,0,2024-11-20_16h22.09.320,Surprise recog test,2023.1.3,59.983864329359186,
288,0,288,0,,,,,,,,,,,,,,,,,,,,,,,,,,,,,,,,,,,,710.7870774999028,711.8085604999214,709.8512110000011,709.8512110000011,709.8512110000011,709.8512110000011,old_sceneOut_7.png,289,3.0,0.9366732999915257,,021,0,2024-11-20_16h22.09.320,Surprise recog test,2023.1.3,59.983864329359186,
289,0,289,0,,,,,,,,,,,,,,,,,,,,,,,,,,,,,,,,,,,,712.8279398999875,713.8522272999398,711.8085604999214,711.8085604999214,711.8085604999214,711.8085604999214,old_sceneOut_26.png,290,3.0,1.0181608999846503,,021,0,2024-11-20_16h22.09.320,Surprise recog test,2023.1.3,59.983864329359186,
290,0,290,0,,,,,,,,,,,,,,,,,,,,,,,,,,,,,,,,,,,,715.2796025999123,716.302177799982,713.8522272999398,713.8522272999398,713.8522272999398,713.8522272999398,old_sceneIn_1.png,291,2.0,1.4275307999923825,,021,0,2024-11-20_16h22.09.320,Surprise recog test,2023.1.3,59.983864329359186,
291,0,291,0,,,,,,,,,,,,,,,,,,,,,,,,,,,,,,,,,,,,717.5491098999046,718.5743463999825,716.302177799982,716.302177799982,716.302177799982,716.302177799982,old_sceneIn_9.png,292,4.0,1.2434252999955788,,021,0,2024-11-20_16h22.09.320,Surprise recog test,2023.1.3,59.983864329359186,
292,0,292,0,,,,,,,,,,,,,,,,,,,,,,,,,,,,,,,,,,,,719.4923305999255,720.5161466000136,718.5743463999825,718.5743463999825,718.5743463999825,718.5743463999825,old_sceneIn_41.png,293,5.0,0.9155476000159979,,021,0,2024-11-20_16h22.09.320,Surprise recog test,2023.1.3,59.983864329359186,
293,0,293,0,,,,,,,,,,,,,,,,,,,,,,,,,,,,,,,,,,,,721.3045610999689,722.3312382999575,720.5161466000136,720.5161466000136,720.5161466000136,720.5161466000136,new_sceneIn_9.png,294,5.0,0.7881898999912664,,021,0,2024-11-20_16h22.09.320,Surprise recog test,2023.1.3,59.983864329359186,
294,0,294,0,,,,,,,,,,,,,,,,,,,,,,,,,,,,,,,,,,,,723.3673011999344,,722.3312382999575,722.3312382999575,722.3312382999575,722.3312382999575,new_fruit_41.png,295,5.0,1.0384974000044167,,021,0,2024-11-20_16h22.09.320,Surprise recog test,2023.1.3,59.983864329359186,
295,0,295,0,,,,,,,,,,,,,,,,,,,,,,,,,,,,,,,,,,,,725.7959913999075,726.817656799918,724.3946435999824,724.3946435999824,724.3946435999824,724.3946435999824,new_stationery_30.png,296,1.0,1.399640899966471,,021,0,2024-11-20_16h22.09.320,Surprise recog test,2023.1.3,59.983864329359186,
296,0,296,0,,,,,,,,,,,,,,,,,,,,,,,,,,,,,,,,,,,,727.6796885000076,728.696104099974,726.817656799918,726.817656799918,726.817656799918,726.817656799918,new_sceneIn_39.png,297,5.0,0.8661993000423536,,021,0,2024-11-20_16h22.09.320,Surprise recog test,2023.1.3,59.983864329359186,
297,0,297,0,,,,,,,,,,,,,,,,,,,,,,,,,,,,,,,,,,,,729.8813518999377,730.8941231999779,728.696104099974,728.696104099974,728.696104099974,728.696104099974,old_sceneOut_30.png,298,3.0,1.184676600038074,,021,0,2024-11-20_16h22.09.320,Surprise recog test,2023.1.3,59.983864329359186,
298,0,298,0,,,,,,,,,,,,,,,,,,,,,,,,,,,,,,,,,,,,731.7891489999602,,730.8941231999779,730.8941231999779,730.8941231999779,730.8941231999779,old_fruit_20.png,299,2.0,0.8905375000322238,,021,0,2024-11-20_16h22.09.320,Surprise recog test,2023.1.3,59.983864329359186,
299,0,299,0,,,,,,,,,,,,,,,,,,,,,,,,,,,,,,,,,,,,733.9130615999456,734.9414856999647,732.8115965999896,732.8115965999896,732.8115965999896,732.8115965999896,new_sceneOut_21.png,300,4.0,1.0964624000480399,,021,0,2024-11-20_16h22.09.320,Surprise recog test,2023.1.3,59.983864329359186,
300,0,300,0,,,,,,,,,,,,,,,,,,,,,,,,,,,,,,,,,,,,735.9556383999297,736.9616300999187,734.9414856999647,734.9414856999647,734.9414856999647,734.9414856999647,new_stationery_25.png,301,4.0,1.0162032999796793,,021,0,2024-11-20_16h22.09.320,Surprise recog test,2023.1.3,59.983864329359186,
301,0,301,0,,,,,,,,,,,,,,,,,,,,,,,,,,,,,,,,,,,,738.1375254999148,739.1510113999248,736.9616300999187,736.9616300999187,736.9616300999187,736.9616300999187,new_sceneIn_37.png,302,5.0,1.1686519000213593,,021,0,2024-11-20_16h22.09.320,Surprise recog test,2023.1.3,59.983864329359186,
302,0,302,0,,,,,,,,,,,,,,,,,,,,,,,,,,,,,,,,,,,,740.734455699916,741.761879800004,739.1510113999248,739.1510113999248,739.1510113999248,739.1510113999248,old_stationery_44.png,303,4.0,1.5804054000182077,,021,0,2024-11-20_16h22.09.320,Surprise recog test,2023.1.3,59.983864329359186,
303,0,303,0,,,,,,,,,,,,,,,,,,,,,,,,,,,,,,,,,,,,742.8803049999988,743.8992246999405,741.761879800004,741.761879800004,741.761879800004,741.761879800004,old_sceneOut_22.png,304,4.0,1.1205755000701174,,021,0,2024-11-20_16h22.09.320,Surprise recog test,2023.1.3,59.983864329359186,
304,0,304,0,,,,,,,,,,,,,,,,,,,,,,,,,,,,,,,,,,,,744.9381792999338,745.9711146999616,743.8992246999405,743.8992246999405,743.8992246999405,743.8992246999405,old_sceneOut_16.png,305,4.0,1.0399032999994233,,021,0,2024-11-20_16h22.09.320,Surprise recog test,2023.1.3,59.983864329359186,
305,0,305,0,,,,,,,,,,,,,,,,,,,,,,,,,,,,,,,,,,,,747.1319476999342,748.1526829999639,745.9711146999616,745.9711146999616,745.9711146999616,745.9711146999616,new_fruit_36.png,306,3.0,1.1640277999686077,,021,0,2024-11-20_16h22.09.320,Surprise recog test,2023.1.3,59.983864329359186,
306,0,306,0,,,,,,,,,,,,,,,,,,,,,,,,,,,,,,,,,,,,749.531404600013,750.5545552999247,748.1526829999639,748.1526829999639,748.1526829999639,748.1526829999639,old_fruit_50.png,307,1.0,1.3815571999875829,,021,0,2024-11-20_16h22.09.320,Surprise recog test,2023.1.3,59.983864329359186,
307,0,307,0,,,,,,,,,,,,,,,,,,,,,,,,,,,,,,,,,,,,751.5536907999776,752.5725012999028,750.5545552999247,750.5545552999247,750.5545552999247,750.5545552999247,new_sceneIn_31.png,308,5.0,0.9991850999649614,,021,0,2024-11-20_16h22.09.320,Surprise recog test,2023.1.3,59.983864329359186,
308,0,308,0,,,,,,,,,,,,,,,,,,,,,,,,,,,,,,,,,,,,753.5529959999258,754.5788109999849,752.5725012999028,752.5725012999028,752.5725012999028,752.5725012999028,new_sceneOut_32.png,309,5.0,0.9811956000048667,,021,0,2024-11-20_16h22.09.320,Surprise recog test,2023.1.3,59.983864329359186,
309,0,309,0,,,,,,,,,,,,,,,,,,,,,,,,,,,,,,,,,,,,755.993926599971,,754.5788109999849,754.5788109999849,754.5788109999849,754.5788109999849,old_fruit_3.png,310,2.0,1.4173823000164703,,021,0,2024-11-20_16h22.09.320,Surprise recog test,2023.1.3,59.983864329359186,
310,0,310,0,,,,,,,,,,,,,,,,,,,,,,,,,,,,,,,,,,,,757.9223547999281,758.9458998999326,757.0148389999522,757.0148389999522,757.0148389999522,757.0148389999522,old_fruit_35.png,311,1.0,0.9036665000021458,,021,0,2024-11-20_16h22.09.320,Surprise recog test,2023.1.3,59.983864329359186,
311,0,311,0,,,,,,,,,,,,,,,,,,,,,,,,,,,,,,,,,,,,759.9524013999617,760.9774586999556,758.9458998999326,758.9458998999326,758.9458998999326,758.9458998999326,old_stationery_2.png,312,5.0,1.006138600059785,,021,0,2024-11-20_16h22.09.320,Surprise recog test,2023.1.3,59.983864329359186,
312,0,312,0,,,,,,,,,,,,,,,,,,,,,,,,,,,,,,,,,,,,761.9656727999682,,760.9774586999556,760.9774586999556,760.9774586999556,760.9774586999556,new_sceneOut_11.png,313,5.0,0.9904035999206826,,021,0,2024-11-20_16h22.09.320,Surprise recog test,2023.1.3,59.983864329359186,
313,0,313,0,,,,,,,,,,,,,,,,,,,,,,,,,,,,,,,,,,,,763.7245238999603,764.7382766999071,762.9869822999462,762.9869822999462,762.9869822999462,762.9869822999462,old_sceneIn_2.png,314,5.0,0.7324589999625459,,021,0,2024-11-20_16h22.09.320,Surprise recog test,2023.1.3,59.983864329359186,
314,0,314,0,,,,,,,,,,,,,,,,,,,,,,,,,,,,,,,,,,,,766.1569038999733,767.173369999975,764.7382766999071,764.7382766999071,764.7382766999071,764.7382766999071,new_stationery_13.png,315,2.0,1.4138488000025973,,021,0,2024-11-20_16h22.09.320,Surprise recog test,2023.1.3,59.983864329359186,
315,0,315,0,,,,,,,,,,,,,,,,,,,,,,,,,,,,,,,,,,,,768.526087999926,769.5518066999502,767.173369999975,767.173369999975,767.173369999975,767.173369999975,old_sceneIn_6.png,316,3.0,1.3488063999684528,,021,0,2024-11-20_16h22.09.320,Surprise recog test,2023.1.3,59.983864329359186,
316,0,316,0,,,,,,,,,,,,,,,,,,,,,,,,,,,,,,,,,,,,770.7514320999617,771.7722912000027,769.5518066999502,769.5518066999502,769.5518066999502,769.5518066999502,old_sceneOut_35.png,317,4.0,1.2002528000157326,,021,0,2024-11-20_16h22.09.320,Surprise recog test,2023.1.3,59.983864329359186,
317,0,317,0,,,,,,,,,,,,,,,,,,,,,,,,,,,,,,,,,,,,772.5979971999768,773.625185300014,771.7722912000027,771.7722912000027,771.7722912000027,771.7722912000027,old_sceneOut_13.png,318,4.0,0.8255116000073031,,021,0,2024-11-20_16h22.09.320,Surprise recog test,2023.1.3,59.983864329359186,
318,0,318,0,,,,,,,,,,,,,,,,,,,,,,,,,,,,,,,,,,,,774.4925477999495,,773.625185300014,773.625185300014,773.625185300014,773.625185300014,old_stationery_7.png,319,5.0,0.8670222000218928,,021,0,2024-11-20_16h22.09.320,Surprise recog test,2023.1.3,59.983864329359186,
319,0,319,0,,,,,,,,,,,,,,,,,,,,,,,,,,,,,,,,,,,,776.3739730999805,777.3959622000111,775.5270146999974,775.5270146999974,775.5270146999974,775.5270146999974,old_sceneOut_23.png,320,4.0,0.8490162999369204,,021,0,2024-11-20_16h22.09.320,Surprise recog test,2023.1.3,59.983864329359186,
320,0,320,0,,,,,,,,,,,,,,,,,,,,,,,,,,,,,,,,,,,,778.0907519999892,779.0964139999123,777.3959622000111,777.3959622000111,777.3959622000111,777.3959622000111,old_sceneOut_10.png,321,4.0,0.694986000075005,,021,0,2024-11-20_16h22.09.320,Surprise recog test,2023.1.3,59.983864329359186,
321,0,321,0,,,,,,,,,,,,,,,,,,,,,,,,,,,,,,,,,,,,780.4789483000059,781.4857884999365,779.0964139999123,779.0964139999123,779.0964139999123,779.0964139999123,old_stationery_42.png,322,2.0,1.378581800032407,,021,0,2024-11-20_16h22.09.320,Surprise recog test,2023.1.3,59.983864329359186,
322,0,322,0,,,,,,,,,,,,,,,,,,,,,,,,,,,,,,,,,,,,782.3599210999673,783.3914393999148,781.4857884999365,781.4857884999365,781.4857884999365,781.4857884999365,new_fruit_9.png,323,2.0,0.8690099000232294,,021,0,2024-11-20_16h22.09.320,Surprise recog test,2023.1.3,59.983864329359186,
323,0,323,0,,,,,,,,,,,,,,,,,,,,,,,,,,,,,,,,,,,,784.8862536000088,785.9066299999831,783.3914393999148,783.3914393999148,783.3914393999148,783.3914393999148,old_sceneIn_14.png,324,1.0,1.4986475000623614,,021,0,2024-11-20_16h22.09.320,Surprise recog test,2023.1.3,59.983864329359186,
324,0,324,0,,,,,,,,,,,,,,,,,,,,,,,,,,,,,,,,,,,,787.0226761999074,788.0436639999971,785.9066299999831,785.9066299999831,785.9066299999831,785.9066299999831,new_sceneIn_2.png,325,5.0,1.1137960999039933,,021,0,2024-11-20_16h22.09.320,Surprise recog test,2023.1.3,59.983864329359186,
325,0,325,0,,,,,,,,,,,,,,,,,,,,,,,,,,,,,,,,,,,,788.9844198999926,789.9926167000085,788.0436639999971,788.0436639999971,788.0436639999971,788.0436639999971,new_sceneIn_43.png,326,5.0,0.9360022000037134,,021,0,2024-11-20_16h22.09.320,Surprise recog test,2023.1.3,59.983864329359186,
326,0,326,0,,,,,,,,,,,,,,,,,,,,,,,,,,,,,,,,,,,,791.3279372999677,792.3564672999782,789.9926167000085,789.9926167000085,789.9926167000085,789.9926167000085,new_stationery_22.png,327,3.0,1.328482500044629,,021,0,2024-11-20_16h22.09.320,Surprise recog test,2023.1.3,59.983864329359186,
327,0,327,0,,,,,,,,,,,,,,,,,,,,,,,,,,,,,,,,,,,,793.3496685000136,794.375909699942,792.3564672999782,792.3564672999782,792.3564672999782,792.3564672999782,new_sceneIn_18.png,328,5.0,0.995105899986811,,021,0,2024-11-20_16h22.09.320,Surprise recog test,2023.1.3,59.983864329359186,
328,0,328,0,,,,,,,,,,,,,,,,,,,,,,,,,,,,,,,,,,,,795.4981649999972,796.5145467999391,794.375909699942,794.375909699942,794.375909699942,794.375909699942,old_sceneOut_28.png,329,3.0,1.1210858999984339,,021,0,2024-11-20_16h22.09.320,Surprise recog test,2023.1.3,59.983864329359186,
329,0,329,0,,,,,,,,,,,,,,,,,,,,,,,,,,,,,,,,,,,,797.4263908999274,798.4460433999775,796.5145467999391,796.5145467999391,796.5145467999391,796.5145467999391,new_sceneOut_22.png,330,5.0,0.9078564998926595,,021,0,2024-11-20_16h22.09.320,Surprise recog test,2023.1.3,59.983864329359186,
330,0,330,0,,,,,,,,,,,,,,,,,,,,,,,,,,,,,,,,,,,,799.5098463000031,800.5178276000079,798.4460433999775,798.4460433999775,798.4460433999775,798.4460433999775,new_fruit_43.png,331,5.0,1.0617007000837475,,021,0,2024-11-20_16h22.09.320,Surprise recog test,2023.1.3,59.983864329359186,
331,0,331,0,,,,,,,,,,,,,,,,,,,,,,,,,,,,,,,,,,,,802.1190502999816,803.157490799902,800.5178276000079,800.5178276000079,800.5178276000079,800.5178276000079,old_fruit_31.png,332,3.0,1.5969164000125602,,021,0,2024-11-20_16h22.09.320,Surprise recog test,2023.1.3,59.983864329359186,
332,0,332,0,,,,,,,,,,,,,,,,,,,,,,,,,,,,,,,,,,,,804.4527989999624,805.4863201999106,803.157490799902,803.157490799902,803.157490799902,803.157490799902,old_fruit_41.png,333,4.0,1.2968369000591338,,021,0,2024-11-20_16h22.09.320,Surprise recog test,2023.1.3,59.983864329359186,
333,0,333,0,,,,,,,,,,,,,,,,,,,,,,,,,,,,,,,,,,,,806.4243372000055,807.4556130999699,805.4863201999106,805.4863201999106,805.4863201999106,805.4863201999106,new_sceneOut_23.png,334,4.0,0.939738400047645,,021,0,2024-11-20_16h22.09.320,Surprise recog test,2023.1.3,59.983864329359186,
334,0,334,0,,,,,,,,,,,,,,,,,,,,,,,,,,,,,,,,,,,,808.491172799957,809.5086729999166,807.4556130999699,807.4556130999699,807.4556130999699,807.4556130999699,new_fruit_38.png,335,4.0,1.0371412000386044,,021,0,2024-11-20_16h22.09.320,Surprise recog test,2023.1.3,59.983864329359186,
335,0,335,0,,,,,,,,,,,,,,,,,,,,,,,,,,,,,,,,,,,,810.291603099904,811.3212790999096,809.5086729999166,809.5086729999166,809.5086729999166,809.5086729999166,new_sceneOut_25.png,336,4.0,0.7756489000748843,,021,0,2024-11-20_16h22.09.320,Surprise recog test,2023.1.3,59.983864329359186,
336,0,336,0,,,,,,,,,,,,,,,,,,,,,,,,,,,,,,,,,,,,812.3604096999625,813.3787097999593,811.3212790999096,811.3212790999096,811.3212790999096,811.3212790999096,old_sceneIn_25.png,337,5.0,1.040803899988532,,021,0,2024-11-20_16h22.09.320,Surprise recog test,2023.1.3,59.983864329359186,
337,0,337,0,,,,,,,,,,,,,,,,,,,,,,,,,,,,,,,,,,,,814.7690083999187,815.780979199917,813.3787097999593,813.3787097999593,813.3787097999593,813.3787097999593,new_sceneOut_16.png,338,2.0,1.3847978999838233,,021,0,2024-11-20_16h22.09.320,Surprise recog test,2023.1.3,59.983864329359186,
338,0,338,0,,,,,,,,,,,,,,,,,,,,,,,,,,,,,,,,,,,,816.7318724999204,817.7519012999255,815.780979199917,815.780979199917,815.780979199917,815.780979199917,old_sceneOut_36.png,339,4.0,0.9461505999788642,,021,0,2024-11-20_16h22.09.320,Surprise recog test,2023.1.3,59.983864329359186,
339,0,339,0,,,,,,,,,,,,,,,,,,,,,,,,,,,,,,,,,,,,818.5133231999353,,817.7519012999255,817.7519012999255,817.7519012999255,817.7519012999255,old_sceneOut_18.png,340,4.0,0.7574545999523252,,021,0,2024-11-20_16h22.09.320,Surprise recog test,2023.1.3,59.983864329359186,
340,0,340,0,,,,,,,,,,,,,,,,,,,,,,,,,,,,,,,,,,,,820.7855278999778,821.8025411999552,819.5414326000027,819.5414326000027,819.5414326000027,819.5414326000027,new_fruit_13.png,341,2.0,1.2458886000094935,,021,0,2024-11-20_16h22.09.320,Surprise recog test,2023.1.3,59.983864329359186,
341,0,341,0,,,,,,,,,,,,,,,,,,,,,,,,,,,,,,,,,,,,823.0474486999447,824.0651404999662,821.8025411999552,821.8025411999552,821.8025411999552,821.8025411999552,new_fruit_34.png,342,5.0,1.2388155000517145,,021,0,2024-11-20_16h22.09.320,Surprise recog test,2023.1.3,59.983864329359186,
342,0,342,0,,,,,,,,,,,,,,,,,,,,,,,,,,,,,,,,,,,,825.2980153999524,826.3103891999926,824.0651404999662,824.0651404999662,824.0651404999662,824.0651404999662,new_sceneOut_43.png,343,4.0,1.230080800014548,,021,0,2024-11-20_16h22.09.320,Surprise recog test,2023.1.3,59.983864329359186,
343,0,343,0,,,,,,,,,,,,,,,,,,,,,,,,,,,,,,,,,,,,827.1161489000078,828.1353071999038,826.3103891999926,826.3103891999926,826.3103891999926,826.3103891999926,old_stationery_16.png,344,4.0,0.7990513999247923,,021,0,2024-11-20_16h22.09.320,Surprise recog test,2023.1.3,59.983864329359186,
344,0,344,0,,,,,,,,,,,,,,,,,,,,,,,,,,,,,,,,,,,,829.1394356999081,830.1682208999991,828.1353071999038,828.1353071999038,828.1353071999038,828.1353071999038,new_stationery_4.png,345,5.0,1.0070762999821454,,021,0,2024-11-20_16h22.09.320,Surprise recog test,2023.1.3,59.983864329359186,
345,0,345,0,,,,,,,,,,,,,,,,,,,,,,,,,,,,,,,,,,,,830.8021615999751,831.8220747999148,830.1682208999991,830.1682208999991,830.1682208999991,830.1682208999991,old_sceneIn_23.png,346,5.0,0.633384499931708,,021,0,2024-11-20_16h22.09.320,Surprise recog test,2023.1.3,59.983864329359186,
346,0,346,0,,,,,,,,,,,,,,,,,,,,,,,,,,,,,,,,,,,,833.0974547999213,834.1126412999583,831.8220747999148,831.8220747999148,831.8220747999148,831.8220747999148,old_sceneOut_11.png,347,3.0,1.2755613999906927,,021,0,2024-11-20_16h22.09.320,Surprise recog test,2023.1.3,59.983864329359186,
347,0,347,0,,,,,,,,,,,,,,,,,,,,,,,,,,,,,,,,,,,,835.1584937999723,,834.1126412999583,834.1126412999583,834.1126412999583,834.1126412999583,old_fruit_13.png,348,1.0,1.0417188999708742,,021,0,2024-11-20_16h22.09.320,Surprise recog test,2023.1.3,59.983864329359186,
348,0,348,0,,,,,,,,,,,,,,,,,,,,,,,,,,,,,,,,,,,,836.8445268999785,,836.1803424999816,836.1803424999816,836.1803424999816,836.1803424999816,new_fruit_6.png,349,1.0,0.6614353999029845,,021,0,2024-11-20_16h22.09.320,Surprise recog test,2023.1.3,59.983864329359186,
349,0,349,0,,,,,,,,,,,,,,,,,,,,,,,,,,,,,,,,,,,,838.9033137999941,839.9295161999762,837.878171899938,837.878171899938,837.878171899938,837.878171899938,old_sceneIn_40.png,350,5.0,1.0271000999491662,,021,0,2024-11-20_16h22.09.320,Surprise recog test,2023.1.3,59.983864329359186,
350,0,350,0,,,,,,,,,,,,,,,,,,,,,,,,,,,,,,,,,,,,840.791884199949,841.8073270999594,839.9295161999762,839.9295161999762,839.9295161999762,839.9295161999762,new_stationery_36.png,351,4.0,0.8639622000046074,,021,0,2024-11-20_16h22.09.320,Surprise recog test,2023.1.3,59.983864329359186,
