trial_loop.thisRepN,trial_loop.thisTrialN,trial_loop.thisN,trial_loop.thisIndex,VAS_slider.started,VAS_text.started,VAS_notstressed_text.started,VAS_stressed_text.started,continue_input.started,continue_text.started,label0.started,label10.started,label20.started,label30.started,label40.started,label50.started,label60.started,label70.started,label80.started,label90.started,label100.started,VAS_slider.response,VAS_slider.rt,VAS_slider.history,Answer_VAS,continue_input.keys,instruction_text.started,continue_text_2.started,continue_input_2.started,continue_input_2.keys,continue_input_2.rt,continue_input_2.duration,example_text.started,example_slider_2.started,example_image.started,example_slider_2.response,example_slider_2.rt,fixcross.started,fixcross.stopped,front_square.started,stim_images.started,trial_inst_images.started,slider_images.started,thisImg,trial_count,slider_images.response,slider_images.rt,outro.started,participant,condition,date,expName,psychopyVersion,frameRate,
,,,,251.64065290000872,251.64065290000872,251.64065290000872,251.64065290000872,251.64065290000872,251.64065290000872,251.64065290000872,251.64065290000872,251.64065290000872,251.64065290000872,251.64065290000872,251.64065290000872,251.64065290000872,251.64065290000872,251.64065290000872,251.64065290000872,251.64065290000872,0.4944444444444446,21.072980600001756,"[(0.4944444444444446, 21.072980600001756)]",0.4944444444444446,None,,,,,,,,,,,,,,,,,,,,,,,024,00,2024-12-05_14h13.27.905,Surprise recog test,2023.1.3,59.86891103436907,
,,,,,,,,,,,,,,,,,,,,,,,,,,272.74582999999984,272.74582999999984,272.74582999999984,space,44.504401799989864,None,,,,,,,,,,,,,,,,,024,00,2024-12-05_14h13.27.905,Surprise recog test,2023.1.3,59.86891103436907,
0,0,0,0,,,,,,,,,,,,,,,,,,,,,,,,,,,,,317.38339870001073,317.38339870001073,317.38339870001073,5.0,31.08618569999817,351.4761524000205,352.49249990002136,349.4253564000246,349.4253564000246,349.4253564000246,349.4253564000246,new_fruit_6.png,1,4.0,2.055641299986746,,024,00,2024-12-05_14h13.27.905,Surprise recog test,2023.1.3,59.86891103436907,
1,0,1,0,,,,,,,,,,,,,,,,,,,,,,,,,,,,,,,,,,353.9529864000215,354.97017600000254,352.49249990002136,352.49249990002136,352.49249990002136,352.49249990002136,old_sceneIn_30.png,2,5.0,1.4602010999806225,,024,00,2024-12-05_14h13.27.905,Surprise recog test,2023.1.3,59.86891103436907,
2,0,2,0,,,,,,,,,,,,,,,,,,,,,,,,,,,,,,,,,,355.89809770000284,356.9110209000064,354.97017600000254,354.97017600000254,354.97017600000254,354.97017600000254,old_sceneOut_31.png,3,5.0,0.9237433000234887,,024,00,2024-12-05_14h13.27.905,Surprise recog test,2023.1.3,59.86891103436907,
3,0,3,0,,,,,,,,,,,,,,,,,,,,,,,,,,,,,,,,,,358.78111660000286,359.8058562000224,356.9110209000064,356.9110209000064,356.9110209000064,356.9110209000064,old_sceneIn_12.png,4,4.0,1.8725188999960665,,024,00,2024-12-05_14h13.27.905,Surprise recog test,2023.1.3,59.86891103436907,
4,0,4,0,,,,,,,,,,,,,,,,,,,,,,,,,,,,,,,,,,361.7209313000203,362.7436799000134,359.8058562000224,359.8058562000224,359.8058562000224,359.8058562000224,new_sceneOut_6.png,5,3.0,1.9109038000169676,,024,00,2024-12-05_14h13.27.905,Surprise recog test,2023.1.3,59.86891103436907,
5,0,5,0,,,,,,,,,,,,,,,,,,,,,,,,,,,,,,,,,,364.5633360000211,365.58895150001626,362.7436799000134,362.7436799000134,362.7436799000134,362.7436799000134,new_fruit_30.png,6,4.0,1.8217127000098117,,024,00,2024-12-05_14h13.27.905,Surprise recog test,2023.1.3,59.86891103436907,
6,0,6,0,,,,,,,,,,,,,,,,,,,,,,,,,,,,,,,,,,367.2091508000158,368.2292540000053,365.58895150001626,365.58895150001626,365.58895150001626,365.58895150001626,new_stationery_42.png,7,5.0,1.6153251999930944,,024,00,2024-12-05_14h13.27.905,Surprise recog test,2023.1.3,59.86891103436907,
7,0,7,0,,,,,,,,,,,,,,,,,,,,,,,,,,,,,,,,,,369.2922427000012,370.31502090001595,368.2292540000053,368.2292540000053,368.2292540000053,368.2292540000053,old_sceneIn_22.png,8,5.0,1.065576199995121,,024,00,2024-12-05_14h13.27.905,Surprise recog test,2023.1.3,59.86891103436907,
8,0,8,0,,,,,,,,,,,,,,,,,,,,,,,,,,,,,,,,,,371.8737587000069,372.8864054000005,370.31502090001595,370.31502090001595,370.31502090001595,370.31502090001595,old_sceneIn_41.png,9,5.0,1.5609145000053104,,024,00,2024-12-05_14h13.27.905,Surprise recog test,2023.1.3,59.86891103436907,
9,0,9,0,,,,,,,,,,,,,,,,,,,,,,,,,,,,,,,,,,374.1753779000137,375.20046570000704,372.8864054000005,372.8864054000005,372.8864054000005,372.8864054000005,new_fruit_22.png,10,5.0,1.286464499979047,,024,00,2024-12-05_14h13.27.905,Surprise recog test,2023.1.3,59.86891103436907,
10,0,10,0,,,,,,,,,,,,,,,,,,,,,,,,,,,,,,,,,,376.94109750000644,377.96847070002696,375.20046570000704,375.20046570000704,375.20046570000704,375.20046570000704,old_fruit_47.png,11,1.0,1.7436927999951877,,024,00,2024-12-05_14h13.27.905,Surprise recog test,2023.1.3,59.86891103436907,
11,0,11,0,,,,,,,,,,,,,,,,,,,,,,,,,,,,,,,,,,379.90272730001016,380.9151706000266,377.96847070002696,377.96847070002696,377.96847070002696,377.96847070002696,new_sceneOut_19.png,12,4.0,1.9323987000097986,,024,00,2024-12-05_14h13.27.905,Surprise recog test,2023.1.3,59.86891103436907,
12,0,12,0,,,,,,,,,,,,,,,,,,,,,,,,,,,,,,,,,,383.24349470000016,384.2649759000051,380.9151706000266,380.9151706000266,380.9151706000266,380.9151706000266,old_stationery_11.png,13,3.0,2.32609320001211,,024,00,2024-12-05_14h13.27.905,Surprise recog test,2023.1.3,59.86891103436907,
13,0,13,0,,,,,,,,,,,,,,,,,,,,,,,,,,,,,,,,,,385.79644020000705,386.8287858000258,384.2649759000051,384.2649759000051,384.2649759000051,384.2649759000051,old_fruit_30.png,14,1.0,1.5273296000086702,,024,00,2024-12-05_14h13.27.905,Surprise recog test,2023.1.3,59.86891103436907,
14,0,14,0,,,,,,,,,,,,,,,,,,,,,,,,,,,,,,,,,,388.95712250002543,389.9660409000062,386.8287858000258,386.8287858000258,386.8287858000258,386.8287858000258,new_sceneOut_44.png,15,3.0,2.129874899983406,,024,00,2024-12-05_14h13.27.905,Surprise recog test,2023.1.3,59.86891103436907,
15,0,15,0,,,,,,,,,,,,,,,,,,,,,,,,,,,,,,,,,,391.62949320001644,392.6534832000034,389.9660409000062,389.9660409000062,389.9660409000062,389.9660409000062,old_sceneOut_8.png,16,4.0,1.6591592000040691,,024,00,2024-12-05_14h13.27.905,Surprise recog test,2023.1.3,59.86891103436907,
16,0,16,0,,,,,,,,,,,,,,,,,,,,,,,,,,,,,,,,,,394.03210000001127,395.0525246000034,392.6534832000034,392.6534832000034,392.6534832000034,392.6534832000034,new_stationery_33.png,17,5.0,1.3821577999915462,,024,00,2024-12-05_14h13.27.905,Surprise recog test,2023.1.3,59.86891103436907,
17,0,17,0,,,,,,,,,,,,,,,,,,,,,,,,,,,,,,,,,,396.37354070000583,397.3910642999981,395.0525246000034,395.0525246000034,395.0525246000034,395.0525246000034,old_sceneIn_39.png,18,1.0,1.3216650999966078,,024,00,2024-12-05_14h13.27.905,Surprise recog test,2023.1.3,59.86891103436907,
18,0,18,0,,,,,,,,,,,,,,,,,,,,,,,,,,,,,,,,,,399.157821700006,400.185753800004,397.3910642999981,397.3910642999981,397.3910642999981,397.3910642999981,new_fruit_28.png,19,4.0,1.7596711999794934,,024,00,2024-12-05_14h13.27.905,Surprise recog test,2023.1.3,59.86891103436907,
19,0,19,0,,,,,,,,,,,,,,,,,,,,,,,,,,,,,,,,,,401.52506350001204,,400.185753800004,400.185753800004,400.185753800004,400.185753800004,old_stationery_21.png,20,4.0,1.3382709999859799,,024,00,2024-12-05_14h13.27.905,Surprise recog test,2023.1.3,59.86891103436907,
20,0,20,0,,,,,,,,,,,,,,,,,,,,,,,,,,,,,,,,,,403.9883374000201,404.99780800001463,402.5643737000064,402.5643737000064,402.5643737000064,402.5643737000064,new_stationery_10.png,21,5.0,1.4308378999994602,,024,00,2024-12-05_14h13.27.905,Surprise recog test,2023.1.3,59.86891103436907,
21,0,21,0,,,,,,,,,,,,,,,,,,,,,,,,,,,,,,,,,,406.5581832000171,407.5672898000048,404.99780800001463,404.99780800001463,404.99780800001463,404.99780800001463,old_sceneOut_35.png,22,5.0,1.54939299999387,,024,00,2024-12-05_14h13.27.905,Surprise recog test,2023.1.3,59.86891103436907,
22,0,22,0,,,,,,,,,,,,,,,,,,,,,,,,,,,,,,,,,,409.0527064000198,410.07593790002284,407.5672898000048,407.5672898000048,407.5672898000048,407.5672898000048,old_fruit_11.png,23,1.0,1.4827359000046272,,024,00,2024-12-05_14h13.27.905,Surprise recog test,2023.1.3,59.86891103436907,
23,0,23,0,,,,,,,,,,,,,,,,,,,,,,,,,,,,,,,,,,411.68958470001235,412.7015511000063,410.07593790002284,410.07593790002284,410.07593790002284,410.07593790002284,old_stationery_28.png,24,4.0,1.615039299998898,,024,00,2024-12-05_14h13.27.905,Surprise recog test,2023.1.3,59.86891103436907,
24,0,24,0,,,,,,,,,,,,,,,,,,,,,,,,,,,,,,,,,,414.236283700011,415.2660834999988,412.7015511000063,412.7015511000063,412.7015511000063,412.7015511000063,old_stationery_27.png,25,5.0,1.5325510000111535,,024,00,2024-12-05_14h13.27.905,Surprise recog test,2023.1.3,59.86891103436907,
25,0,25,0,,,,,,,,,,,,,,,,,,,,,,,,,,,,,,,,,,416.73634740000125,,415.2660834999988,415.2660834999988,415.2660834999988,415.2660834999988,new_fruit_14.png,26,5.0,1.4699936999822967,,024,00,2024-12-05_14h13.27.905,Surprise recog test,2023.1.3,59.86891103436907,
26,0,26,0,,,,,,,,,,,,,,,,,,,,,,,,,,,,,,,,,,419.2520981999987,420.26628800001345,417.76971350001986,417.76971350001986,417.76971350001986,417.76971350001986,new_fruit_36.png,27,5.0,1.4838928999961354,,024,00,2024-12-05_14h13.27.905,Surprise recog test,2023.1.3,59.86891103436907,
27,0,27,0,,,,,,,,,,,,,,,,,,,,,,,,,,,,,,,,,,421.7571776000259,,420.26628800001345,420.26628800001345,420.26628800001345,420.26628800001345,old_stationery_41.png,28,4.0,1.489994100003969,,024,00,2024-12-05_14h13.27.905,Surprise recog test,2023.1.3,59.86891103436907,
28,0,28,0,,,,,,,,,,,,,,,,,,,,,,,,,,,,,,,,,,424.4974867000128,425.5241441000253,422.79684230001294,422.79684230001294,422.79684230001294,422.79684230001294,new_sceneOut_46.png,29,3.0,1.7033577999973204,,024,00,2024-12-05_14h13.27.905,Surprise recog test,2023.1.3,59.86891103436907,
29,0,29,0,,,,,,,,,,,,,,,,,,,,,,,,,,,,,,,,,,426.8136094000074,427.8424279000028,425.5241441000253,425.5241441000253,425.5241441000253,425.5241441000253,new_sceneOut_30.png,30,4.0,1.290673199982848,,024,00,2024-12-05_14h13.27.905,Surprise recog test,2023.1.3,59.86891103436907,
30,0,30,0,,,,,,,,,,,,,,,,,,,,,,,,,,,,,,,,,,430.13382190000266,431.16713010001695,427.8424279000028,427.8424279000028,427.8424279000028,427.8424279000028,old_sceneIn_32.png,31,5.0,2.2897695999999996,,024,00,2024-12-05_14h13.27.905,Surprise recog test,2023.1.3,59.86891103436907,
31,0,31,0,,,,,,,,,,,,,,,,,,,,,,,,,,,,,,,,,,432.53443170001265,433.5668754000217,431.16713010001695,431.16713010001695,431.16713010001695,431.16713010001695,old_sceneIn_15.png,32,5.0,1.3697121000150219,,024,00,2024-12-05_14h13.27.905,Surprise recog test,2023.1.3,59.86891103436907,
32,0,32,0,,,,,,,,,,,,,,,,,,,,,,,,,,,,,,,,,,435.2948971000151,436.3067353000224,433.5668754000217,433.5668754000217,433.5668754000217,433.5668754000217,old_fruit_33.png,33,1.0,1.7298349000047892,,024,00,2024-12-05_14h13.27.905,Surprise recog test,2023.1.3,59.86891103436907,
33,0,33,0,,,,,,,,,,,,,,,,,,,,,,,,,,,,,,,,,,438.1052709000069,,436.3067353000224,436.3067353000224,436.3067353000224,436.3067353000224,old_fruit_38.png,34,1.0,1.7916426000010688,,024,00,2024-12-05_14h13.27.905,Surprise recog test,2023.1.3,59.86891103436907,
34,0,34,0,,,,,,,,,,,,,,,,,,,,,,,,,,,,,,,,,,440.6426280000014,441.65781180001795,439.14016360000824,439.14016360000824,439.14016360000824,439.14016360000824,old_sceneOut_14.png,35,5.0,1.5042598999862093,,024,00,2024-12-05_14h13.27.905,Surprise recog test,2023.1.3,59.86891103436907,
35,0,35,0,,,,,,,,,,,,,,,,,,,,,,,,,,,,,,,,,,443.2780469999998,444.3069069000194,441.65781180001795,441.65781180001795,441.65781180001795,441.65781180001795,old_stationery_33.png,36,4.0,1.616561200004071,,024,00,2024-12-05_14h13.27.905,Surprise recog test,2023.1.3,59.86891103436907,
36,0,36,0,,,,,,,,,,,,,,,,,,,,,,,,,,,,,,,,,,446.22496790002333,447.2459527000028,444.3069069000194,444.3069069000194,444.3069069000194,444.3069069000194,new_sceneOut_12.png,37,4.0,1.9184669999813195,,024,00,2024-12-05_14h13.27.905,Surprise recog test,2023.1.3,59.86891103436907,
37,0,37,0,,,,,,,,,,,,,,,,,,,,,,,,,,,,,,,,,,449.1313090000185,,447.2459527000028,447.2459527000028,447.2459527000028,447.2459527000028,old_fruit_48.png,38,1.0,1.8874703999899793,,024,00,2024-12-05_14h13.27.905,Surprise recog test,2023.1.3,59.86891103436907,
38,0,38,0,,,,,,,,,,,,,,,,,,,,,,,,,,,,,,,,,,451.5992392000044,,450.1629071000207,450.1629071000207,450.1629071000207,450.1629071000207,old_stationery_39.png,39,5.0,1.4371480999980122,,024,00,2024-12-05_14h13.27.905,Surprise recog test,2023.1.3,59.86891103436907,
39,0,39,0,,,,,,,,,,,,,,,,,,,,,,,,,,,,,,,,,,454.21334710001247,455.2227760000096,452.6193973000045,452.6193973000045,452.6193973000045,452.6193973000045,new_sceneOut_32.png,40,4.0,1.5879259000066668,,024,00,2024-12-05_14h13.27.905,Surprise recog test,2023.1.3,59.86891103436907,
40,0,40,0,,,,,,,,,,,,,,,,,,,,,,,,,,,,,,,,,,457.4992458000197,458.50912820000667,455.2227760000096,455.2227760000096,455.2227760000096,455.2227760000096,new_fruit_46.png,41,5.0,2.2720764000259805,,024,00,2024-12-05_14h13.27.905,Surprise recog test,2023.1.3,59.86891103436907,
41,0,41,0,,,,,,,,,,,,,,,,,,,,,,,,,,,,,,,,,,459.95793020000565,460.99671120001585,458.50912820000667,458.50912820000667,458.50912820000667,458.50912820000667,new_stationery_44.png,42,5.0,1.4444351000129245,,024,00,2024-12-05_14h13.27.905,Surprise recog test,2023.1.3,59.86891103436907,
42,0,42,0,,,,,,,,,,,,,,,,,,,,,,,,,,,,,,,,,,461.9655286000052,462.97857160001877,460.99671120001585,460.99671120001585,460.99671120001585,460.99671120001585,old_sceneOut_36.png,43,5.0,0.9719336999987718,,024,00,2024-12-05_14h13.27.905,Surprise recog test,2023.1.3,59.86891103436907,
43,0,43,0,,,,,,,,,,,,,,,,,,,,,,,,,,,,,,,,,,463.9056906000187,464.91012559999945,462.97857160001877,462.97857160001877,462.97857160001877,462.97857160001877,new_stationery_13.png,44,5.0,0.9158485000079963,,024,00,2024-12-05_14h13.27.905,Surprise recog test,2023.1.3,59.86891103436907,
44,0,44,0,,,,,,,,,,,,,,,,,,,,,,,,,,,,,,,,,,465.7127740000142,466.73348300001817,464.91012559999945,464.91012559999945,464.91012559999945,464.91012559999945,new_stationery_20.png,45,5.0,0.7974236999871209,,024,00,2024-12-05_14h13.27.905,Surprise recog test,2023.1.3,59.86891103436907,
45,0,45,0,,,,,,,,,,,,,,,,,,,,,,,,,,,,,,,,,,468.2692076000094,469.2838474000164,466.73348300001817,466.73348300001817,466.73348300001817,466.73348300001817,old_sceneIn_19.png,46,4.0,1.5306030999927316,,024,00,2024-12-05_14h13.27.905,Surprise recog test,2023.1.3,59.86891103436907,
46,0,46,0,,,,,,,,,,,,,,,,,,,,,,,,,,,,,,,,,,470.7451399000129,471.76655160001246,469.2838474000164,469.2838474000164,469.2838474000164,469.2838474000164,old_stationery_34.png,47,4.0,1.4536091999907512,,024,00,2024-12-05_14h13.27.905,Surprise recog test,2023.1.3,59.86891103436907,
47,0,47,0,,,,,,,,,,,,,,,,,,,,,,,,,,,,,,,,,,472.8933165000053,473.91695780001464,471.76655160001246,471.76655160001246,471.76655160001246,471.76655160001246,new_stationery_2.png,48,4.0,1.1268978999869432,,024,00,2024-12-05_14h13.27.905,Surprise recog test,2023.1.3,59.86891103436907,
48,0,48,0,,,,,,,,,,,,,,,,,,,,,,,,,,,,,,,,,,475.475173600018,476.4952003000071,473.91695780001464,473.91695780001464,473.91695780001464,473.91695780001464,old_stationery_4.png,49,4.0,1.5596476000209805,,024,00,2024-12-05_14h13.27.905,Surprise recog test,2023.1.3,59.86891103436907,
49,0,49,0,,,,,,,,,,,,,,,,,,,,,,,,,,,,,,,,,,477.9006546000019,478.9195261000132,476.4952003000071,476.4952003000071,476.4952003000071,476.4952003000071,old_fruit_4.png,50,1.0,1.400162400008412,,024,00,2024-12-05_14h13.27.905,Surprise recog test,2023.1.3,59.86891103436907,
50,0,50,0,,,,,,,,,,,,,,,,,,,,,,,,,,,,,,,,,,480.1576192000066,481.18856249999953,478.9195261000132,478.9195261000132,478.9195261000132,478.9195261000132,old_stationery_45.png,51,5.0,1.2414661000075284,,024,00,2024-12-05_14h13.27.905,Surprise recog test,2023.1.3,59.86891103436907,
51,0,51,0,,,,,,,,,,,,,,,,,,,,,,,,,,,,,,,,,,482.7617120000068,483.7873260000197,481.18856249999953,481.18856249999953,481.18856249999953,481.18856249999953,old_fruit_40.png,52,1.0,1.577056200010702,,024,00,2024-12-05_14h13.27.905,Surprise recog test,2023.1.3,59.86891103436907,
52,0,52,0,,,,,,,,,,,,,,,,,,,,,,,,,,,,,,,,,,485.50561600000947,486.52368630000274,483.7873260000197,483.7873260000197,483.7873260000197,483.7873260000197,new_sceneOut_31.png,53,2.0,1.720524000003934,,024,00,2024-12-05_14h13.27.905,Surprise recog test,2023.1.3,59.86891103436907,
53,0,53,0,,,,,,,,,,,,,,,,,,,,,,,,,,,,,,,,,,487.81946400000015,488.84564140002476,486.52368630000274,486.52368630000274,486.52368630000274,486.52368630000274,new_stationery_39.png,54,5.0,1.2914191000163555,,024,00,2024-12-05_14h13.27.905,Surprise recog test,2023.1.3,59.86891103436907,
54,0,54,0,,,,,,,,,,,,,,,,,,,,,,,,,,,,,,,,,,489.76062110002385,490.78279730002396,488.84564140002476,488.84564140002476,488.84564140002476,488.84564140002476,old_sceneIn_33.png,55,5.0,0.9155081999779213,,024,00,2024-12-05_14h13.27.905,Surprise recog test,2023.1.3,59.86891103436907,
55,0,55,0,,,,,,,,,,,,,,,,,,,,,,,,,,,,,,,,,,492.37690460000886,493.40119880001293,490.78279730002396,490.78279730002396,490.78279730002396,490.78279730002396,new_fruit_23.png,56,4.0,1.5958883999846876,,024,00,2024-12-05_14h13.27.905,Surprise recog test,2023.1.3,59.86891103436907,
56,0,56,0,,,,,,,,,,,,,,,,,,,,,,,,,,,,,,,,,,495.0061378000246,496.03326100000413,493.40119880001293,493.40119880001293,493.40119880001293,493.40119880001293,old_fruit_23.png,57,2.0,1.6065656999999192,,024,00,2024-12-05_14h13.27.905,Surprise recog test,2023.1.3,59.86891103436907,
57,0,57,0,,,,,,,,,,,,,,,,,,,,,,,,,,,,,,,,,,497.42034550002427,,496.03326100000413,496.03326100000413,496.03326100000413,496.03326100000413,old_stationery_38.png,58,5.0,1.3890936000098009,,024,00,2024-12-05_14h13.27.905,Surprise recog test,2023.1.3,59.86891103436907,
58,0,58,0,,,,,,,,,,,,,,,,,,,,,,,,,,,,,,,,,,499.73407940001925,500.74415270000463,498.4409139000054,498.4409139000054,498.4409139000054,498.4409139000054,old_sceneIn_50.png,59,5.0,1.2870264000084717,,024,00,2024-12-05_14h13.27.905,Surprise recog test,2023.1.3,59.86891103436907,
59,0,59,0,,,,,,,,,,,,,,,,,,,,,,,,,,,,,,,,,,501.7374660000205,502.7452214000223,500.74415270000463,500.74415270000463,500.74415270000463,500.74415270000463,old_sceneIn_37.png,60,5.0,0.9851876000175253,,024,00,2024-12-05_14h13.27.905,Surprise recog test,2023.1.3,59.86891103436907,
60,0,60,0,,,,,,,,,,,,,,,,,,,,,,,,,,,,,,,,,,504.6989551000006,505.7137304000207,502.7452214000223,502.7452214000223,502.7452214000223,502.7452214000223,new_stationery_7.png,61,5.0,1.9474556999921333,,024,00,2024-12-05_14h13.27.905,Surprise recog test,2023.1.3,59.86891103436907,
61,0,61,0,,,,,,,,,,,,,,,,,,,,,,,,,,,,,,,,,,506.58255380002083,507.6071233000257,505.7137304000207,505.7137304000207,505.7137304000207,505.7137304000207,new_sceneIn_14.png,62,5.0,0.8666636999987531,,024,00,2024-12-05_14h13.27.905,Surprise recog test,2023.1.3,59.86891103436907,
62,0,62,0,,,,,,,,,,,,,,,,,,,,,,,,,,,,,,,,,,508.55121160001727,509.5794342000154,507.6071233000257,507.6071233000257,507.6071233000257,507.6071233000257,old_sceneIn_46.png,63,5.0,0.9432748999970499,,024,00,2024-12-05_14h13.27.905,Surprise recog test,2023.1.3,59.86891103436907,
63,0,63,0,,,,,,,,,,,,,,,,,,,,,,,,,,,,,,,,,,510.2816952000139,,509.5794342000154,509.5794342000154,509.5794342000154,509.5794342000154,old_stationery_12.png,64,5.0,0.7042214999964926,,024,00,2024-12-05_14h13.27.905,Surprise recog test,2023.1.3,59.86891103436907,
64,0,64,0,,,,,,,,,,,,,,,,,,,,,,,,,,,,,,,,,,512.8150013000122,,511.3017065000022,511.3017065000022,511.3017065000022,511.3017065000022,old_stationery_49.png,65,4.0,1.5086255999922287,,024,00,2024-12-05_14h13.27.905,Surprise recog test,2023.1.3,59.86891103436907,
65,0,65,0,,,,,,,,,,,,,,,,,,,,,,,,,,,,,,,,,,515.9911118000164,517.0032756,513.8341259000008,513.8341259000008,513.8341259000008,513.8341259000008,new_sceneOut_10.png,66,3.0,2.1511521999782417,,024,00,2024-12-05_14h13.27.905,Surprise recog test,2023.1.3,59.86891103436907,
66,0,66,0,,,,,,,,,,,,,,,,,,,,,,,,,,,,,,,,,,518.605962200003,519.6347374000179,517.0032756,517.0032756,517.0032756,517.0032756,new_fruit_35.png,67,4.0,1.5978360000008252,,024,00,2024-12-05_14h13.27.905,Surprise recog test,2023.1.3,59.86891103436907,
67,0,67,0,,,,,,,,,,,,,,,,,,,,,,,,,,,,,,,,,,520.9140262000146,521.9290962000086,519.6347374000179,519.6347374000179,519.6347374000179,519.6347374000179,new_stationery_46.png,68,5.0,1.2809464000165462,,024,00,2024-12-05_14h13.27.905,Surprise recog test,2023.1.3,59.86891103436907,
68,0,68,0,,,,,,,,,,,,,,,,,,,,,,,,,,,,,,,,,,523.0662016000133,524.0882685000252,521.9290962000086,521.9290962000086,521.9290962000086,521.9290962000086,old_sceneOut_7.png,69,5.0,1.1344146000046749,,024,00,2024-12-05_14h13.27.905,Surprise recog test,2023.1.3,59.86891103436907,
69,0,69,0,,,,,,,,,,,,,,,,,,,,,,,,,,,,,,,,,,525.4339424000063,526.4473311000038,524.0882685000252,524.0882685000252,524.0882685000252,524.0882685000252,old_fruit_45.png,70,1.0,1.3442893000028562,,024,00,2024-12-05_14h13.27.905,Surprise recog test,2023.1.3,59.86891103436907,
70,0,70,0,,,,,,,,,,,,,,,,,,,,,,,,,,,,,,,,,,527.6690075000224,528.6890591999982,526.4473311000038,526.4473311000038,526.4473311000038,526.4473311000038,old_sceneIn_9.png,71,4.0,1.2152493000030518,,024,00,2024-12-05_14h13.27.905,Surprise recog test,2023.1.3,59.86891103436907,
71,0,71,0,,,,,,,,,,,,,,,,,,,,,,,,,,,,,,,,,,529.9880318000214,531.009976100002,528.6890591999982,528.6890591999982,528.6890591999982,528.6890591999982,new_fruit_40.png,72,4.0,1.3001933999767061,,024,00,2024-12-05_14h13.27.905,Surprise recog test,2023.1.3,59.86891103436907,
72,0,72,0,,,,,,,,,,,,,,,,,,,,,,,,,,,,,,,,,,532.2018851000175,533.2326362000022,531.009976100002,531.009976100002,531.009976100002,531.009976100002,old_sceneOut_27.png,73,5.0,1.191288000001805,,024,00,2024-12-05_14h13.27.905,Surprise recog test,2023.1.3,59.86891103436907,
73,0,73,0,,,,,,,,,,,,,,,,,,,,,,,,,,,,,,,,,,534.7260504000005,535.7522885000217,533.2326362000022,533.2326362000022,533.2326362000022,533.2326362000022,old_fruit_35.png,74,2.0,1.4954068000079133,,024,00,2024-12-05_14h13.27.905,Surprise recog test,2023.1.3,59.86891103436907,
74,0,74,0,,,,,,,,,,,,,,,,,,,,,,,,,,,,,,,,,,537.2166595000017,538.2379757000017,535.7522885000217,535.7522885000217,535.7522885000217,535.7522885000217,new_fruit_10.png,75,4.0,1.4663600999920163,,024,00,2024-12-05_14h13.27.905,Surprise recog test,2023.1.3,59.86891103436907,
75,0,75,0,,,,,,,,,,,,,,,,,,,,,,,,,,,,,,,,,,539.4995248000196,540.5269982000173,538.2379757000017,538.2379757000017,538.2379757000017,538.2379757000017,old_sceneIn_35.png,76,4.0,1.2648737000126857,,024,00,2024-12-05_14h13.27.905,Surprise recog test,2023.1.3,59.86891103436907,
76,0,76,0,,,,,,,,,,,,,,,,,,,,,,,,,,,,,,,,,,541.9763240000175,543.0036352000025,540.5269982000173,540.5269982000173,540.5269982000173,540.5269982000173,new_stationery_18.png,77,2.0,1.4565895999839995,,024,00,2024-12-05_14h13.27.905,Surprise recog test,2023.1.3,59.86891103436907,
77,0,77,0,,,,,,,,,,,,,,,,,,,,,,,,,,,,,,,,,,544.2963596000045,545.3257073000132,543.0036352000025,543.0036352000025,543.0036352000025,543.0036352000025,old_stationery_15.png,78,5.0,1.2946733999997377,,024,00,2024-12-05_14h13.27.905,Surprise recog test,2023.1.3,59.86891103436907,
78,0,78,0,,,,,,,,,,,,,,,,,,,,,,,,,,,,,,,,,,546.7665793000197,547.7931440000248,545.3257073000132,545.3257073000132,545.3257073000132,545.3257073000132,new_fruit_45.png,79,5.0,1.442889500001911,,024,00,2024-12-05_14h13.27.905,Surprise recog test,2023.1.3,59.86891103436907,
79,0,79,0,,,,,,,,,,,,,,,,,,,,,,,,,,,,,,,,,,548.9967883000209,,547.7931440000248,547.7931440000248,547.7931440000248,547.7931440000248,new_stationery_40.png,80,5.0,1.2021984999882989,,024,00,2024-12-05_14h13.27.905,Surprise recog test,2023.1.3,59.86891103436907,
80,0,80,0,,,,,,,,,,,,,,,,,,,,,,,,,,,,,,,,,,550.9489114000171,,550.0285279000236,550.0285279000236,550.0285279000236,550.0285279000236,new_stationery_26.png,81,5.0,0.9199436999915633,,024,00,2024-12-05_14h13.27.905,Surprise recog test,2023.1.3,59.86891103436907,
81,0,81,0,,,,,,,,,,,,,,,,,,,,,,,,,,,,,,,,,,553.3968561000074,554.414915900008,551.9689170000202,551.9689170000202,551.9689170000202,551.9689170000202,new_sceneIn_5.png,82,3.0,1.4208589000045322,,024,00,2024-12-05_14h13.27.905,Surprise recog test,2023.1.3,59.86891103436907,
82,0,82,0,,,,,,,,,,,,,,,,,,,,,,,,,,,,,,,,,,555.7985597000225,556.8048736000201,554.414915900008,554.414915900008,554.414915900008,554.414915900008,new_fruit_20.png,83,5.0,1.3816588000045158,,024,00,2024-12-05_14h13.27.905,Surprise recog test,2023.1.3,59.86891103436907,
83,0,83,0,,,,,,,,,,,,,,,,,,,,,,,,,,,,,,,,,,559.0012667000119,560.0084468999994,556.8048736000201,556.8048736000201,556.8048736000201,556.8048736000201,old_stationery_13.png,84,3.0,2.1859791000024416,,024,00,2024-12-05_14h13.27.905,Surprise recog test,2023.1.3,59.86891103436907,
84,0,84,0,,,,,,,,,,,,,,,,,,,,,,,,,,,,,,,,,,561.6367091000138,562.6420198000269,560.0084468999994,560.0084468999994,560.0084468999994,560.0084468999994,new_sceneOut_20.png,85,4.0,1.6203194000117946,,024,00,2024-12-05_14h13.27.905,Surprise recog test,2023.1.3,59.86891103436907,
85,0,85,0,,,,,,,,,,,,,,,,,,,,,,,,,,,,,,,,,,563.7718043000204,564.7774195000238,562.6420198000269,562.6420198000269,562.6420198000269,562.6420198000269,new_sceneIn_36.png,86,5.0,1.1213737000070978,,024,00,2024-12-05_14h13.27.905,Surprise recog test,2023.1.3,59.86891103436907,
86,0,86,0,,,,,,,,,,,,,,,,,,,,,,,,,,,,,,,,,,566.4240766000003,567.4290105000255,564.7774195000238,564.7774195000238,564.7774195000238,564.7774195000238,old_fruit_36.png,87,3.0,1.6380824999941979,,024,00,2024-12-05_14h13.27.905,Surprise recog test,2023.1.3,59.86891103436907,
87,0,87,0,,,,,,,,,,,,,,,,,,,,,,,,,,,,,,,,,,569.0762033000065,570.0817878000089,567.4290105000255,567.4290105000255,567.4290105000255,567.4290105000255,new_fruit_42.png,88,4.0,1.636780800006818,,024,00,2024-12-05_14h13.27.905,Surprise recog test,2023.1.3,59.86891103436907,
88,0,88,0,,,,,,,,,,,,,,,,,,,,,,,,,,,,,,,,,,571.4781773000141,572.4828732000024,570.0817878000089,570.0817878000089,570.0817878000089,570.0817878000089,old_sceneIn_38.png,89,4.0,1.3870450999820605,,024,00,2024-12-05_14h13.27.905,Surprise recog test,2023.1.3,59.86891103436907,
89,0,89,0,,,,,,,,,,,,,,,,,,,,,,,,,,,,,,,,,,574.0970059000247,575.102309400012,572.4828732000024,572.4828732000024,572.4828732000024,572.4828732000024,old_stationery_46.png,90,4.0,1.604126600024756,,024,00,2024-12-05_14h13.27.905,Surprise recog test,2023.1.3,59.86891103436907,
90,0,90,0,,,,,,,,,,,,,,,,,,,,,,,,,,,,,,,,,,576.5992391000036,577.6044670999981,575.102309400012,575.102309400012,575.102309400012,575.102309400012,new_fruit_38.png,91,1.0,1.4875852999975905,,024,00,2024-12-05_14h13.27.905,Surprise recog test,2023.1.3,59.86891103436907,
91,0,91,0,,,,,,,,,,,,,,,,,,,,,,,,,,,,,,,,,,579.5683257000055,580.5729072000249,577.6044670999981,577.6044670999981,577.6044670999981,577.6044670999981,new_sceneOut_9.png,92,4.0,1.9541874999995343,,024,00,2024-12-05_14h13.27.905,Surprise recog test,2023.1.3,59.86891103436907,
92,0,92,0,,,,,,,,,,,,,,,,,,,,,,,,,,,,,,,,,,582.4373916000186,583.4422359000018,580.5729072000249,580.5729072000249,580.5729072000249,580.5729072000249,old_stationery_29.png,93,2.0,1.8542175000184216,,024,00,2024-12-05_14h13.27.905,Surprise recog test,2023.1.3,59.86891103436907,
93,0,93,0,,,,,,,,,,,,,,,,,,,,,,,,,,,,,,,,,,584.8226963000197,585.8285409000237,583.4422359000018,583.4422359000018,583.4422359000018,583.4422359000018,old_fruit_17.png,94,1.0,1.3707069999945816,,024,00,2024-12-05_14h13.27.905,Surprise recog test,2023.1.3,59.86891103436907,
94,0,94,0,,,,,,,,,,,,,,,,,,,,,,,,,,,,,,,,,,586.9410599000112,587.9466042999993,585.8285409000237,585.8285409000237,585.8285409000237,585.8285409000237,old_stationery_24.png,95,5.0,1.1032830000040121,,024,00,2024-12-05_14h13.27.905,Surprise recog test,2023.1.3,59.86891103436907,
95,0,95,0,,,,,,,,,,,,,,,,,,,,,,,,,,,,,,,,,,589.5098926000064,590.5144894000259,587.9466042999993,587.9466042999993,587.9466042999993,587.9466042999993,new_fruit_8.png,96,2.0,1.553701299999375,,024,00,2024-12-05_14h13.27.905,Surprise recog test,2023.1.3,59.86891103436907,
96,0,96,0,,,,,,,,,,,,,,,,,,,,,,,,,,,,,,,,,,592.1621538000181,593.167643599998,590.5144894000259,590.5144894000259,590.5144894000259,590.5144894000259,old_fruit_2.png,97,2.0,1.6373299999977462,,024,00,2024-12-05_14h13.27.905,Surprise recog test,2023.1.3,59.86891103436907,
97,0,97,0,,,,,,,,,,,,,,,,,,,,,,,,,,,,,,,,,,595.5147897000134,596.5200928000268,593.167643599998,593.167643599998,593.167643599998,593.167643599998,new_sceneOut_43.png,98,3.0,2.3379495999834035,,024,00,2024-12-05_14h13.27.905,Surprise recog test,2023.1.3,59.86891103436907,
98,0,98,0,,,,,,,,,,,,,,,,,,,,,,,,,,,,,,,,,,597.7332484000071,598.7392606000067,596.5200928000268,596.5200928000268,596.5200928000268,596.5200928000268,old_fruit_5.png,99,1.0,1.203264699986903,,024,00,2024-12-05_14h13.27.905,Surprise recog test,2023.1.3,59.86891103436907,
99,0,99,0,,,,,,,,,,,,,,,,,,,,,,,,,,,,,,,,,,600.2732520000136,601.291495100013,598.7392606000067,598.7392606000067,598.7392606000067,598.7392606000067,old_sceneIn_34.png,100,5.0,1.529568300000392,,024,00,2024-12-05_14h13.27.905,Surprise recog test,2023.1.3,59.86891103436907,
100,0,100,0,,,,,,,,,,,,,,,,,,,,,,,,,,,,,,,,,,602.287473000004,603.2929267,601.291495100013,601.291495100013,601.291495100013,601.291495100013,new_stationery_34.png,101,5.0,0.9922622000158299,,024,00,2024-12-05_14h13.27.905,Surprise recog test,2023.1.3,59.86891103436907,
101,0,101,0,,,,,,,,,,,,,,,,,,,,,,,,,,,,,,,,,,604.0219330000109,605.0276492999983,603.2929267,603.2929267,603.2929267,603.2929267,new_stationery_37.png,102,5.0,0.7209874000109266,,024,00,2024-12-05_14h13.27.905,Surprise recog test,2023.1.3,59.86891103436907,
102,0,102,0,,,,,,,,,,,,,,,,,,,,,,,,,,,,,,,,,,606.8439003000094,,605.0276492999983,605.0276492999983,605.0276492999983,605.0276492999983,new_stationery_41.png,103,5.0,1.8124064000148792,,024,00,2024-12-05_14h13.27.905,Surprise recog test,2023.1.3,59.86891103436907,
103,0,103,0,,,,,,,,,,,,,,,,,,,,,,,,,,,,,,,,,,610.1948264000239,611.2144795000204,607.864108800015,607.864108800015,607.864108800015,607.864108800015,new_sceneOut_13.png,104,5.0,2.3273065999965183,,024,00,2024-12-05_14h13.27.905,Surprise recog test,2023.1.3,59.86891103436907,
104,0,104,0,,,,,,,,,,,,,,,,,,,,,,,,,,,,,,,,,,612.2010660000087,613.2208215999999,611.2144795000204,611.2144795000204,611.2144795000204,611.2144795000204,old_fruit_37.png,105,4.0,0.9890021000173874,,024,00,2024-12-05_14h13.27.905,Surprise recog test,2023.1.3,59.86891103436907,
105,0,105,0,,,,,,,,,,,,,,,,,,,,,,,,,,,,,,,,,,614.7895275000192,615.8140438000264,613.2208215999999,613.2208215999999,613.2208215999999,613.2208215999999,old_sceneIn_6.png,106,5.0,1.5649470000062138,,024,00,2024-12-05_14h13.27.905,Surprise recog test,2023.1.3,59.86891103436907,
106,0,106,0,,,,,,,,,,,,,,,,,,,,,,,,,,,,,,,,,,617.1058715000108,618.1287152000004,615.8140438000264,615.8140438000264,615.8140438000264,615.8140438000264,new_fruit_50.png,107,4.0,1.2891335999884177,,024,00,2024-12-05_14h13.27.905,Surprise recog test,2023.1.3,59.86891103436907,
107,0,107,0,,,,,,,,,,,,,,,,,,,,,,,,,,,,,,,,,,621.0121709000086,622.0318360000092,618.1287152000004,618.1287152000004,618.1287152000004,618.1287152000004,new_sceneIn_28.png,108,3.0,2.884367699996801,,024,00,2024-12-05_14h13.27.905,Surprise recog test,2023.1.3,59.86891103436907,
108,0,108,0,,,,,,,,,,,,,,,,,,,,,,,,,,,,,,,,,,623.9721687000128,624.9969378000242,622.0318360000092,622.0318360000092,622.0318360000092,622.0318360000092,old_stationery_16.png,109,1.0,1.9379973000031896,,024,00,2024-12-05_14h13.27.905,Surprise recog test,2023.1.3,59.86891103436907,
109,0,109,0,,,,,,,,,,,,,,,,,,,,,,,,,,,,,,,,,,626.7150642000197,627.744182000024,624.9969378000242,624.9969378000242,624.9969378000242,624.9969378000242,old_fruit_22.png,110,3.0,1.7197331999777816,,024,00,2024-12-05_14h13.27.905,Surprise recog test,2023.1.3,59.86891103436907,
110,0,110,0,,,,,,,,,,,,,,,,,,,,,,,,,,,,,,,,,,629.0979514000064,630.1303734000248,627.744182000024,627.744182000024,627.744182000024,627.744182000024,new_sceneOut_25.png,111,5.0,1.3551862000022084,,024,00,2024-12-05_14h13.27.905,Surprise recog test,2023.1.3,59.86891103436907,
111,0,111,0,,,,,,,,,,,,,,,,,,,,,,,,,,,,,,,,,,632.1366387000016,633.1534273000143,630.1303734000248,630.1303734000248,630.1303734000248,630.1303734000248,new_stationery_31.png,112,5.0,2.0096183999849018,,024,00,2024-12-05_14h13.27.905,Surprise recog test,2023.1.3,59.86891103436907,
112,0,112,0,,,,,,,,,,,,,,,,,,,,,,,,,,,,,,,,,,634.2405964000209,635.2622054000094,633.1534273000143,633.1534273000143,633.1534273000143,633.1534273000143,new_stationery_36.png,113,4.0,1.0834400999883655,,024,00,2024-12-05_14h13.27.905,Surprise recog test,2023.1.3,59.86891103436907,
113,0,113,0,,,,,,,,,,,,,,,,,,,,,,,,,,,,,,,,,,637.2828927000228,638.2937114000088,635.2622054000094,635.2622054000094,635.2622054000094,635.2622054000094,old_sceneIn_49.png,114,4.0,2.0193148000107612,,024,00,2024-12-05_14h13.27.905,Surprise recog test,2023.1.3,59.86891103436907,
114,0,114,0,,,,,,,,,,,,,,,,,,,,,,,,,,,,,,,,,,640.6744478000037,641.7041540000064,638.2937114000088,638.2937114000088,638.2937114000088,638.2937114000088,old_sceneOut_38.png,115,3.0,2.378012100001797,,024,00,2024-12-05_14h13.27.905,Surprise recog test,2023.1.3,59.86891103436907,
115,0,115,0,,,,,,,,,,,,,,,,,,,,,,,,,,,,,,,,,,643.0542999000172,644.059877200023,641.7041540000064,641.7041540000064,641.7041540000064,641.7041540000064,new_sceneIn_2.png,116,5.0,1.3452082000148948,,024,00,2024-12-05_14h13.27.905,Surprise recog test,2023.1.3,59.86891103436907,
116,0,116,0,,,,,,,,,,,,,,,,,,,,,,,,,,,,,,,,,,645.781847700011,646.8089100000216,644.059877200023,644.059877200023,644.059877200023,644.059877200023,old_fruit_39.png,117,4.0,1.7162744000088423,,024,00,2024-12-05_14h13.27.905,Surprise recog test,2023.1.3,59.86891103436907,
117,0,117,0,,,,,,,,,,,,,,,,,,,,,,,,,,,,,,,,,,648.8344504999986,649.8682958999998,646.8089100000216,646.8089100000216,646.8089100000216,646.8089100000216,old_stationery_23.png,118,5.0,2.029454600007739,,024,00,2024-12-05_14h13.27.905,Surprise recog test,2023.1.3,59.86891103436907,
118,0,118,0,,,,,,,,,,,,,,,,,,,,,,,,,,,,,,,,,,651.5535761000065,652.5834654000064,649.8682958999998,649.8682958999998,649.8682958999998,649.8682958999998,new_sceneOut_41.png,119,3.0,1.6861105000134557,,024,00,2024-12-05_14h13.27.905,Surprise recog test,2023.1.3,59.86891103436907,
119,0,119,0,,,,,,,,,,,,,,,,,,,,,,,,,,,,,,,,,,654.4338944000192,,652.5834654000064,652.5834654000064,652.5834654000064,652.5834654000064,old_stationery_30.png,120,4.0,1.8522551000060048,,024,00,2024-12-05_14h13.27.905,Surprise recog test,2023.1.3,59.86891103436907,
120,0,120,0,,,,,,,,,,,,,,,,,,,,,,,,,,,,,,,,,,656.3228091000055,657.3548396000115,655.4639213000191,655.4639213000191,655.4639213000191,655.4639213000191,new_sceneOut_8.png,121,4.0,0.8567701999854762,,024,00,2024-12-05_14h13.27.905,Surprise recog test,2023.1.3,59.86891103436907,
121,0,121,0,,,,,,,,,,,,,,,,,,,,,,,,,,,,,,,,,,658.409341200022,659.4398713000119,657.3548396000115,657.3548396000115,657.3548396000115,657.3548396000115,new_stationery_25.png,122,5.0,1.0559233999811113,,024,00,2024-12-05_14h13.27.905,Surprise recog test,2023.1.3,59.86891103436907,
122,0,122,0,,,,,,,,,,,,,,,,,,,,,,,,,,,,,,,,,,661.0526606000203,662.0655804999988,659.4398713000119,659.4398713000119,659.4398713000119,659.4398713000119,old_stationery_20.png,123,4.0,1.6118542000185698,,024,00,2024-12-05_14h13.27.905,Surprise recog test,2023.1.3,59.86891103436907,
123,0,123,0,,,,,,,,,,,,,,,,,,,,,,,,,,,,,,,,,,664.1257862000202,,662.0655804999988,662.0655804999988,662.0655804999988,662.0655804999988,old_fruit_7.png,124,2.0,2.0591562000045087,,024,00,2024-12-05_14h13.27.905,Surprise recog test,2023.1.3,59.86891103436907,
124,0,124,0,,,,,,,,,,,,,,,,,,,,,,,,,,,,,,,,,,666.695194400003,667.715257600008,665.1503850000154,665.1503850000154,665.1503850000154,665.1503850000154,new_sceneIn_41.png,125,4.0,1.5451181999815162,,024,00,2024-12-05_14h13.27.905,Surprise recog test,2023.1.3,59.86891103436907,
125,0,125,0,,,,,,,,,,,,,,,,,,,,,,,,,,,,,,,,,,668.5711425000045,669.592655800021,667.715257600008,667.715257600008,667.715257600008,667.715257600008,new_stationery_23.png,126,4.0,0.8508933999983128,,024,00,2024-12-05_14h13.27.905,Surprise recog test,2023.1.3,59.86891103436907,
126,0,126,0,,,,,,,,,,,,,,,,,,,,,,,,,,,,,,,,,,670.7538440000208,671.7845288000244,669.592655800021,669.592655800021,669.592655800021,669.592655800021,new_sceneOut_21.png,127,5.0,1.159796499996446,,024,00,2024-12-05_14h13.27.905,Surprise recog test,2023.1.3,59.86891103436907,
127,0,127,0,,,,,,,,,,,,,,,,,,,,,,,,,,,,,,,,,,673.1705604000017,674.1875550000113,671.7845288000244,671.7845288000244,671.7845288000244,671.7845288000244,old_sceneOut_13.png,128,5.0,1.3879053999844473,,024,00,2024-12-05_14h13.27.905,Surprise recog test,2023.1.3,59.86891103436907,
128,0,128,0,,,,,,,,,,,,,,,,,,,,,,,,,,,,,,,,,,674.9980766000226,676.0169913000136,674.1875550000113,674.1875550000113,674.1875550000113,674.1875550000113,old_sceneIn_36.png,129,5.0,0.8037097999767866,,024,00,2024-12-05_14h13.27.905,Surprise recog test,2023.1.3,59.86891103436907,
129,0,129,0,,,,,,,,,,,,,,,,,,,,,,,,,,,,,,,,,,677.1100687000144,678.1245625000156,676.0169913000136,676.0169913000136,676.0169913000136,676.0169913000136,new_sceneIn_21.png,130,5.0,1.0941556000034325,,024,00,2024-12-05_14h13.27.905,Surprise recog test,2023.1.3,59.86891103436907,
130,0,130,0,,,,,,,,,,,,,,,,,,,,,,,,,,,,,,,,,,678.9018371000129,679.908609200007,678.1245625000156,678.1245625000156,678.1245625000156,678.1245625000156,new_sceneOut_29.png,131,5.0,0.7726260999916121,,024,00,2024-12-05_14h13.27.905,Surprise recog test,2023.1.3,59.86891103436907,
131,0,131,0,,,,,,,,,,,,,,,,,,,,,,,,,,,,,,,,,,680.5537633000058,681.5670005000138,679.908609200007,679.908609200007,679.908609200007,679.908609200007,old_sceneIn_5.png,132,5.0,0.639953300007619,,024,00,2024-12-05_14h13.27.905,Surprise recog test,2023.1.3,59.86891103436907,
132,0,132,0,,,,,,,,,,,,,,,,,,,,,,,,,,,,,,,,,,683.2877633000026,684.295258099999,681.5670005000138,681.5670005000138,681.5670005000138,681.5670005000138,old_sceneOut_39.png,133,4.0,1.7218626999820117,,024,00,2024-12-05_14h13.27.905,Surprise recog test,2023.1.3,59.86891103436907,
133,0,133,0,,,,,,,,,,,,,,,,,,,,,,,,,,,,,,,,,,686.3419871000224,687.3601771000249,684.295258099999,684.295258099999,684.295258099999,684.295258099999,new_sceneIn_17.png,134,5.0,2.042904300004011,,024,00,2024-12-05_14h13.27.905,Surprise recog test,2023.1.3,59.86891103436907,
134,0,134,0,,,,,,,,,,,,,,,,,,,,,,,,,,,,,,,,,,688.305633800017,689.3280458000081,687.3601771000249,687.3601771000249,687.3601771000249,687.3601771000249,old_sceneOut_17.png,135,5.0,0.9469299000047613,,024,00,2024-12-05_14h13.27.905,Surprise recog test,2023.1.3,59.86891103436907,
135,0,135,0,,,,,,,,,,,,,,,,,,,,,,,,,,,,,,,,,,690.2037071000086,691.2308231000206,689.3280458000081,689.3280458000081,689.3280458000081,689.3280458000081,old_sceneOut_9.png,136,5.0,0.876440799998818,,024,00,2024-12-05_14h13.27.905,Surprise recog test,2023.1.3,59.86891103436907,
136,0,136,0,,,,,,,,,,,,,,,,,,,,,,,,,,,,,,,,,,692.888280300016,693.9106042000058,691.2308231000206,691.2308231000206,691.2308231000206,691.2308231000206,new_stationery_6.png,137,4.0,1.6600305000029039,,024,00,2024-12-05_14h13.27.905,Surprise recog test,2023.1.3,59.86891103436907,
137,0,137,0,,,,,,,,,,,,,,,,,,,,,,,,,,,,,,,,,,695.1231634000142,696.1510422000138,693.9106042000058,693.9106042000058,693.9106042000058,693.9106042000058,new_sceneOut_49.png,138,4.0,1.210364099999424,,024,00,2024-12-05_14h13.27.905,Surprise recog test,2023.1.3,59.86891103436907,
138,0,138,0,,,,,,,,,,,,,,,,,,,,,,,,,,,,,,,,,,698.0050709000207,699.0342051000043,696.1510422000138,696.1510422000138,696.1510422000138,696.1510422000138,old_stationery_2.png,139,4.0,1.8529086000053212,,024,00,2024-12-05_14h13.27.905,Surprise recog test,2023.1.3,59.86891103436907,
139,0,139,0,,,,,,,,,,,,,,,,,,,,,,,,,,,,,,,,,,699.84505980002,700.8558015000017,699.0342051000043,699.0342051000043,699.0342051000043,699.0342051000043,old_stationery_1.png,140,4.0,0.8112506000034045,,024,00,2024-12-05_14h13.27.905,Surprise recog test,2023.1.3,59.86891103436907,
140,0,140,0,,,,,,,,,,,,,,,,,,,,,,,,,,,,,,,,,,702.8467019000091,703.8725639000186,700.8558015000017,700.8558015000017,700.8558015000017,700.8558015000017,old_fruit_24.png,141,1.0,1.9874789000023156,,024,00,2024-12-05_14h13.27.905,Surprise recog test,2023.1.3,59.86891103436907,
141,0,141,0,,,,,,,,,,,,,,,,,,,,,,,,,,,,,,,,,,705.3893490000046,706.3977117000031,703.8725639000186,703.8725639000186,703.8725639000186,703.8725639000186,old_stationery_25.png,142,4.0,1.5171561999886762,,024,00,2024-12-05_14h13.27.905,Surprise recog test,2023.1.3,59.86891103436907,
142,0,142,0,,,,,,,,,,,,,,,,,,,,,,,,,,,,,,,,,,707.681662100018,708.7116723000072,706.3977117000031,706.3977117000031,706.3977117000031,706.3977117000031,new_sceneOut_14.png,143,4.0,1.2765472999890335,,024,00,2024-12-05_14h13.27.905,Surprise recog test,2023.1.3,59.86891103436907,
143,0,143,0,,,,,,,,,,,,,,,,,,,,,,,,,,,,,,,,,,710.8689879000012,711.8859938000096,708.7116723000072,708.7116723000072,708.7116723000072,708.7116723000072,old_stationery_50.png,144,3.0,2.1593522999901325,,024,00,2024-12-05_14h13.27.905,Surprise recog test,2023.1.3,59.86891103436907,
144,0,144,0,,,,,,,,,,,,,,,,,,,,,,,,,,,,,,,,,,713.1625198000111,714.1702459000226,711.8859938000096,711.8859938000096,711.8859938000096,711.8859938000096,new_sceneIn_8.png,145,5.0,1.2710241999884602,,024,00,2024-12-05_14h13.27.905,Surprise recog test,2023.1.3,59.86891103436907,
145,0,145,0,,,,,,,,,,,,,,,,,,,,,,,,,,,,,,,,,,715.9822666000109,716.9869759000139,714.1702459000226,714.1702459000226,714.1702459000226,714.1702459000226,old_stationery_26.png,146,3.0,1.8061073999851942,,024,00,2024-12-05_14h13.27.905,Surprise recog test,2023.1.3,59.86891103436907,
146,0,146,0,,,,,,,,,,,,,,,,,,,,,,,,,,,,,,,,,,718.449624300003,719.4689941000252,716.9869759000139,716.9869759000139,716.9869759000139,716.9869759000139,new_stationery_11.png,147,4.0,1.4573880000098143,,024,00,2024-12-05_14h13.27.905,Surprise recog test,2023.1.3,59.86891103436907,
147,0,147,0,,,,,,,,,,,,,,,,,,,,,,,,,,,,,,,,,,720.7956803000125,721.8233357999998,719.4689941000252,719.4689941000252,719.4689941000252,719.4689941000252,old_fruit_12.png,148,1.0,1.3234107000171207,,024,00,2024-12-05_14h13.27.905,Surprise recog test,2023.1.3,59.86891103436907,
148,0,148,0,,,,,,,,,,,,,,,,,,,,,,,,,,,,,,,,,,723.9718575000006,724.9803312000004,721.8233357999998,721.8233357999998,721.8233357999998,721.8233357999998,new_fruit_21.png,149,3.0,2.1503190000075847,,024,00,2024-12-05_14h13.27.905,Surprise recog test,2023.1.3,59.86891103436907,
149,0,149,0,,,,,,,,,,,,,,,,,,,,,,,,,,,,,,,,,,726.2987848000193,727.330461000005,724.9803312000004,724.9803312000004,724.9803312000004,724.9803312000004,new_sceneIn_4.png,150,5.0,1.3107956000021659,,024,00,2024-12-05_14h13.27.905,Surprise recog test,2023.1.3,59.86891103436907,
150,0,150,0,,,,,,,,,,,,,,,,,,,,,,,,,,,,,,,,,,728.7580332000216,729.7790341000073,727.330461000005,727.330461000005,727.330461000005,727.330461000005,new_sceneOut_42.png,151,4.0,1.428770300000906,,024,00,2024-12-05_14h13.27.905,Surprise recog test,2023.1.3,59.86891103436907,
151,0,151,0,,,,,,,,,,,,,,,,,,,,,,,,,,,,,,,,,,731.1575522000203,732.1658177000063,729.7790341000073,729.7790341000073,729.7790341000073,729.7790341000073,old_sceneIn_7.png,152,5.0,1.3800514000176918,,024,00,2024-12-05_14h13.27.905,Surprise recog test,2023.1.3,59.86891103436907,
152,0,152,0,,,,,,,,,,,,,,,,,,,,,,,,,,,,,,,,,,733.6127242000075,734.6195020000159,732.1658177000063,732.1658177000063,732.1658177000063,732.1658177000063,new_fruit_1.png,153,5.0,1.44367800001055,,024,00,2024-12-05_14h13.27.905,Surprise recog test,2023.1.3,59.86891103436907,
153,0,153,0,,,,,,,,,,,,,,,,,,,,,,,,,,,,,,,,,,736.8277485000144,737.854046100023,734.6195020000159,734.6195020000159,734.6195020000159,734.6195020000159,old_stationery_9.png,154,3.0,2.2017060999933165,,024,00,2024-12-05_14h13.27.905,Surprise recog test,2023.1.3,59.86891103436907,
154,0,154,0,,,,,,,,,,,,,,,,,,,,,,,,,,,,,,,,,,739.2244177000248,740.2557259000023,737.854046100023,737.854046100023,737.854046100023,737.854046100023,old_fruit_32.png,155,1.0,1.3732515000156127,,024,00,2024-12-05_14h13.27.905,Surprise recog test,2023.1.3,59.86891103436907,
155,0,155,0,,,,,,,,,,,,,,,,,,,,,,,,,,,,,,,,,,742.1080580000125,743.1293315000075,740.2557259000023,740.2557259000023,740.2557259000023,740.2557259000023,new_stationery_30.png,156,3.0,1.8560316000075545,,024,00,2024-12-05_14h13.27.905,Surprise recog test,2023.1.3,59.86891103436907,
156,0,156,0,,,,,,,,,,,,,,,,,,,,,,,,,,,,,,,,,,744.2434525999997,745.2720163000049,743.1293315000075,743.1293315000075,743.1293315000075,743.1293315000075,new_sceneIn_19.png,157,5.0,1.1108192999963649,,024,00,2024-12-05_14h13.27.905,Surprise recog test,2023.1.3,59.86891103436907,
157,0,157,0,,,,,,,,,,,,,,,,,,,,,,,,,,,,,,,,,,746.4456454000028,747.4737481000193,745.2720163000049,745.2720163000049,745.2720163000049,745.2720163000049,old_fruit_31.png,158,1.0,1.173406799993245,,024,00,2024-12-05_14h13.27.905,Surprise recog test,2023.1.3,59.86891103436907,
158,0,158,0,,,,,,,,,,,,,,,,,,,,,,,,,,,,,,,,,,748.6753379000002,749.6912595000176,747.4737481000193,747.4737481000193,747.4737481000193,747.4737481000193,new_stationery_17.png,159,4.0,1.2026261999853887,,024,00,2024-12-05_14h13.27.905,Surprise recog test,2023.1.3,59.86891103436907,
159,0,159,0,,,,,,,,,,,,,,,,,,,,,,,,,,,,,,,,,,750.7810716000095,,749.6912595000176,749.6912595000176,749.6912595000176,749.6912595000176,new_stationery_45.png,160,4.0,1.0827677999914158,,024,00,2024-12-05_14h13.27.905,Surprise recog test,2023.1.3,59.86891103436907,
160,0,160,0,,,,,,,,,,,,,,,,,,,,,,,,,,,,,,,,,,752.7903285000066,753.8120919000066,751.8118777000054,751.8118777000054,751.8118777000054,751.8118777000054,old_sceneIn_2.png,161,4.0,0.9801490000099875,,024,00,2024-12-05_14h13.27.905,Surprise recog test,2023.1.3,59.86891103436907,
161,0,161,0,,,,,,,,,,,,,,,,,,,,,,,,,,,,,,,,,,754.914071200008,755.9306823000079,753.8120919000066,753.8120919000066,753.8120919000066,753.8120919000066,new_sceneIn_20.png,162,5.0,1.1037342000054196,,024,00,2024-12-05_14h13.27.905,Surprise recog test,2023.1.3,59.86891103436907,
162,0,162,0,,,,,,,,,,,,,,,,,,,,,,,,,,,,,,,,,,757.463934200001,758.486439100001,755.9306823000079,755.9306823000079,755.9306823000079,755.9306823000079,new_stationery_19.png,163,4.0,1.532282700005453,,024,00,2024-12-05_14h13.27.905,Surprise recog test,2023.1.3,59.86891103436907,
163,0,163,0,,,,,,,,,,,,,,,,,,,,,,,,,,,,,,,,,,759.8668231000192,760.8768769000017,758.486439100001,758.486439100001,758.486439100001,758.486439100001,new_fruit_5.png,164,4.0,1.3786942000151612,,024,00,2024-12-05_14h13.27.905,Surprise recog test,2023.1.3,59.86891103436907,
164,0,164,0,,,,,,,,,,,,,,,,,,,,,,,,,,,,,,,,,,762.2010740000114,763.2116122000152,760.8768769000017,760.8768769000017,760.8768769000017,760.8768769000017,old_sceneIn_20.png,165,5.0,1.3222319000051357,,024,00,2024-12-05_14h13.27.905,Surprise recog test,2023.1.3,59.86891103436907,
165,0,165,0,,,,,,,,,,,,,,,,,,,,,,,,,,,,,,,,,,764.1750009000243,,763.2116122000152,763.2116122000152,763.2116122000152,763.2116122000152,new_sceneIn_1.png,166,5.0,0.9591249999939464,,024,00,2024-12-05_14h13.27.905,Surprise recog test,2023.1.3,59.86891103436907,
166,0,166,0,,,,,,,,,,,,,,,,,,,,,,,,,,,,,,,,,,766.2235887999996,767.2275435000192,765.2065758000244,765.2065758000244,765.2065758000244,765.2065758000244,new_stationery_16.png,167,4.0,1.016273600020213,,024,00,2024-12-05_14h13.27.905,Surprise recog test,2023.1.3,59.86891103436907,
167,0,167,0,,,,,,,,,,,,,,,,,,,,,,,,,,,,,,,,,,768.6085382000019,769.6279722000181,767.2275435000192,767.2275435000192,767.2275435000192,767.2275435000192,new_fruit_32.png,168,5.0,1.3716217000037432,,024,00,2024-12-05_14h13.27.905,Surprise recog test,2023.1.3,59.86891103436907,
168,0,168,0,,,,,,,,,,,,,,,,,,,,,,,,,,,,,,,,,,770.6936176000163,771.7123155000154,769.6279722000181,769.6279722000181,769.6279722000181,769.6279722000181,new_sceneOut_39.png,169,4.0,1.0607318000111263,,024,00,2024-12-05_14h13.27.905,Surprise recog test,2023.1.3,59.86891103436907,
169,0,169,0,,,,,,,,,,,,,,,,,,,,,,,,,,,,,,,,,,772.3628282000136,773.3842482000182,771.7123155000154,771.7123155000154,771.7123155000154,771.7123155000154,old_sceneIn_28.png,170,4.0,0.6504111999820452,,024,00,2024-12-05_14h13.27.905,Surprise recog test,2023.1.3,59.86891103436907,
170,0,170,0,,,,,,,,,,,,,,,,,,,,,,,,,,,,,,,,,,774.1583371000015,775.1842985000112,773.3842482000182,773.3842482000182,773.3842482000182,773.3842482000182,old_sceneOut_45.png,171,4.0,0.7798822000040673,,024,00,2024-12-05_14h13.27.905,Surprise recog test,2023.1.3,59.86891103436907,
171,0,171,0,,,,,,,,,,,,,,,,,,,,,,,,,,,,,,,,,,776.012518100004,777.0352550000243,775.1842985000112,775.1842985000112,775.1842985000112,775.1842985000112,old_stationery_43.png,172,4.0,0.8301160999981221,,024,00,2024-12-05_14h13.27.905,Surprise recog test,2023.1.3,59.86891103436907,
172,0,172,0,,,,,,,,,,,,,,,,,,,,,,,,,,,,,,,,,,777.9081843000022,778.924610600021,777.0352550000243,777.0352550000243,777.0352550000243,777.0352550000243,old_sceneOut_19.png,173,4.0,0.8729717000096571,,024,00,2024-12-05_14h13.27.905,Surprise recog test,2023.1.3,59.86891103436907,
173,0,173,0,,,,,,,,,,,,,,,,,,,,,,,,,,,,,,,,,,779.9664332000248,780.9804787000176,778.924610600021,778.924610600021,778.924610600021,778.924610600021,new_stationery_24.png,174,4.0,1.0308672999963164,,024,00,2024-12-05_14h13.27.905,Surprise recog test,2023.1.3,59.86891103436907,
174,0,174,0,,,,,,,,,,,,,,,,,,,,,,,,,,,,,,,,,,781.9794371000025,783.006833899999,780.9804787000176,780.9804787000176,780.9804787000176,780.9804787000176,old_stationery_44.png,175,4.0,0.9984660999907646,,024,00,2024-12-05_14h13.27.905,Surprise recog test,2023.1.3,59.86891103436907,
175,0,175,0,,,,,,,,,,,,,,,,,,,,,,,,,,,,,,,,,,784.9217397000175,785.9302795000258,783.006833899999,783.006833899999,783.006833899999,783.006833899999,old_stationery_10.png,176,4.0,1.9169020999979693,,024,00,2024-12-05_14h13.27.905,Surprise recog test,2023.1.3,59.86891103436907,
176,0,176,0,,,,,,,,,,,,,,,,,,,,,,,,,,,,,,,,,,787.6209038000088,788.6327038000163,785.9302795000258,785.9302795000258,785.9302795000258,785.9302795000258,old_sceneIn_10.png,177,4.0,1.6854401000018697,,024,00,2024-12-05_14h13.27.905,Surprise recog test,2023.1.3,59.86891103436907,
177,0,177,0,,,,,,,,,,,,,,,,,,,,,,,,,,,,,,,,,,790.3824960000056,791.4015672000241,788.6327038000163,788.6327038000163,788.6327038000163,788.6327038000163,new_fruit_12.png,178,4.0,1.7439560999919195,,024,00,2024-12-05_14h13.27.905,Surprise recog test,2023.1.3,59.86891103436907,
178,0,178,0,,,,,,,,,,,,,,,,,,,,,,,,,,,,,,,,,,792.2782315000077,793.2992027,791.4015672000241,791.4015672000241,791.4015672000241,791.4015672000241,old_sceneOut_11.png,179,4.0,0.8694096000108402,,024,00,2024-12-05_14h13.27.905,Surprise recog test,2023.1.3,59.86891103436907,
179,0,179,0,,,,,,,,,,,,,,,,,,,,,,,,,,,,,,,,,,794.2514232000103,795.280117700022,793.2992027,793.2992027,793.2992027,793.2992027,old_stationery_40.png,180,4.0,0.9544561999791767,,024,00,2024-12-05_14h13.27.905,Surprise recog test,2023.1.3,59.86891103436907,
180,0,180,0,,,,,,,,,,,,,,,,,,,,,,,,,,,,,,,,,,796.2885472000053,797.3175858000177,795.280117700022,795.280117700022,795.280117700022,795.280117700022,new_sceneOut_38.png,181,5.0,1.0091276000021026,,024,00,2024-12-05_14h13.27.905,Surprise recog test,2023.1.3,59.86891103436907,
181,0,181,0,,,,,,,,,,,,,,,,,,,,,,,,,,,,,,,,,,798.6765007000067,799.6935199,797.3175858000177,797.3175858000177,797.3175858000177,797.3175858000177,old_fruit_34.png,182,4.0,1.359790000016801,,024,00,2024-12-05_14h13.27.905,Surprise recog test,2023.1.3,59.86891103436907,
182,0,182,0,,,,,,,,,,,,,,,,,,,,,,,,,,,,,,,,,,800.64476320002,801.6603746000037,799.6935199,799.6935199,799.6935199,799.6935199,old_sceneOut_10.png,183,5.0,0.9465616000234149,,024,00,2024-12-05_14h13.27.905,Surprise recog test,2023.1.3,59.86891103436907,
183,0,183,0,,,,,,,,,,,,,,,,,,,,,,,,,,,,,,,,,,803.4548077000072,804.4747643000155,801.6603746000037,801.6603746000037,801.6603746000037,801.6603746000037,old_sceneOut_22.png,184,3.0,1.7893458000035025,,024,00,2024-12-05_14h13.27.905,Surprise recog test,2023.1.3,59.86891103436907,
184,0,184,0,,,,,,,,,,,,,,,,,,,,,,,,,,,,,,,,,,806.2159915000084,807.2326747000043,804.4747643000155,804.4747643000155,804.4747643000155,804.4747643000155,old_fruit_14.png,185,1.0,1.7428122000128496,,024,00,2024-12-05_14h13.27.905,Surprise recog test,2023.1.3,59.86891103436907,
185,0,185,0,,,,,,,,,,,,,,,,,,,,,,,,,,,,,,,,,,808.0568544999987,809.0786184000026,807.2326747000043,807.2326747000043,807.2326747000043,807.2326747000043,new_sceneOut_35.png,186,4.0,0.8177638000051957,,024,00,2024-12-05_14h13.27.905,Surprise recog test,2023.1.3,59.86891103436907,
186,0,186,0,,,,,,,,,,,,,,,,,,,,,,,,,,,,,,,,,,810.1943851000105,811.2072386000073,809.0786184000026,809.0786184000026,809.0786184000026,809.0786184000026,new_sceneIn_7.png,187,4.0,1.116500999982236,,024,00,2024-12-05_14h13.27.905,Surprise recog test,2023.1.3,59.86891103436907,
187,0,187,0,,,,,,,,,,,,,,,,,,,,,,,,,,,,,,,,,,812.9835959000047,814.0092356000096,811.2072386000073,811.2072386000073,811.2072386000073,811.2072386000073,old_fruit_3.png,188,2.0,1.7761859000020195,,024,00,2024-12-05_14h13.27.905,Surprise recog test,2023.1.3,59.86891103436907,
188,0,188,0,,,,,,,,,,,,,,,,,,,,,,,,,,,,,,,,,,815.5353541000222,,814.0092356000096,814.0092356000096,814.0092356000096,814.0092356000096,old_stationery_35.png,189,1.0,1.526604699989548,,024,00,2024-12-05_14h13.27.905,Surprise recog test,2023.1.3,59.86891103436907,
189,0,189,0,,,,,,,,,,,,,,,,,,,,,,,,,,,,,,,,,,817.9109189000155,818.9206210999982,816.5533516000141,816.5533516000141,816.5533516000141,816.5533516000141,old_fruit_49.png,190,1.0,1.351112899981672,,024,00,2024-12-05_14h13.27.905,Surprise recog test,2023.1.3,59.86891103436907,
190,0,190,0,,,,,,,,,,,,,,,,,,,,,,,,,,,,,,,,,,820.3382628000109,,818.9206210999982,818.9206210999982,818.9206210999982,818.9206210999982,new_sceneOut_33.png,191,4.0,1.4116380999912508,,024,00,2024-12-05_14h13.27.905,Surprise recog test,2023.1.3,59.86891103436907,
191,0,191,0,,,,,,,,,,,,,,,,,,,,,,,,,,,,,,,,,,822.7376744000067,823.7453531000065,821.3656226000166,821.3656226000166,821.3656226000166,821.3656226000166,old_stationery_37.png,192,5.0,1.3710463999886997,,024,00,2024-12-05_14h13.27.905,Surprise recog test,2023.1.3,59.86891103436907,
192,0,192,0,,,,,,,,,,,,,,,,,,,,,,,,,,,,,,,,,,825.4083644000057,,823.7453531000065,823.7453531000065,823.7453531000065,823.7453531000065,old_sceneOut_48.png,193,3.0,1.6580095999815967,,024,00,2024-12-05_14h13.27.905,Surprise recog test,2023.1.3,59.86891103436907,
193,0,193,0,,,,,,,,,,,,,,,,,,,,,,,,,,,,,,,,,,827.8576811000239,828.8628217000223,826.4320690000022,826.4320690000022,826.4320690000022,826.4320690000022,old_fruit_28.png,194,1.0,1.4153001999948174,,024,00,2024-12-05_14h13.27.905,Surprise recog test,2023.1.3,59.86891103436907,
194,0,194,0,,,,,,,,,,,,,,,,,,,,,,,,,,,,,,,,,,830.4575179000094,831.477867700014,828.8628217000223,828.8628217000223,828.8628217000223,828.8628217000223,old_stationery_19.png,195,2.0,1.5914061999937985,,024,00,2024-12-05_14h13.27.905,Surprise recog test,2023.1.3,59.86891103436907,
195,0,195,0,,,,,,,,,,,,,,,,,,,,,,,,,,,,,,,,,,833.0420388000202,834.0580527000129,831.477867700014,831.477867700014,831.477867700014,831.477867700014,new_fruit_27.png,196,4.0,1.566790699987905,,024,00,2024-12-05_14h13.27.905,Surprise recog test,2023.1.3,59.86891103436907,
196,0,196,0,,,,,,,,,,,,,,,,,,,,,,,,,,,,,,,,,,835.0804916000052,836.1018168000155,834.0580527000129,834.0580527000129,834.0580527000129,834.0580527000129,old_sceneIn_8.png,197,5.0,1.0208071999950334,,024,00,2024-12-05_14h13.27.905,Surprise recog test,2023.1.3,59.86891103436907,
197,0,197,0,,,,,,,,,,,,,,,,,,,,,,,,,,,,,,,,,,837.4324052000011,838.440221900004,836.1018168000155,836.1018168000155,836.1018168000155,836.1018168000155,old_fruit_9.png,198,1.0,1.3333009000052698,,024,00,2024-12-05_14h13.27.905,Surprise recog test,2023.1.3,59.86891103436907,
198,0,198,0,,,,,,,,,,,,,,,,,,,,,,,,,,,,,,,,,,839.6677415000158,840.6817084000213,838.440221900004,838.440221900004,838.440221900004,838.440221900004,new_stationery_32.png,199,4.0,1.222666499990737,,024,00,2024-12-05_14h13.27.905,Surprise recog test,2023.1.3,59.86891103436907,
199,0,199,0,,,,,,,,,,,,,,,,,,,,,,,,,,,,,,,,,,841.8595979000092,842.8889974000049,840.6817084000213,840.6817084000213,840.6817084000213,840.6817084000213,new_sceneIn_44.png,200,5.0,1.173215299990261,,024,00,2024-12-05_14h13.27.905,Surprise recog test,2023.1.3,59.86891103436907,
200,0,200,0,,,,,,,,,,,,,,,,,,,,,,,,,,,,,,,,,,844.0458502000256,845.0751459000167,842.8889974000049,842.8889974000049,842.8889974000049,842.8889974000049,new_sceneIn_12.png,201,4.0,1.1561601999856066,,024,00,2024-12-05_14h13.27.905,Surprise recog test,2023.1.3,59.86891103436907,
201,0,201,0,,,,,,,,,,,,,,,,,,,,,,,,,,,,,,,,,,846.0519033000164,847.0643046000041,845.0751459000167,845.0751459000167,845.0751459000167,845.0751459000167,old_sceneOut_24.png,202,4.0,0.9790160999982618,,024,00,2024-12-05_14h13.27.905,Surprise recog test,2023.1.3,59.86891103436907,
202,0,202,0,,,,,,,,,,,,,,,,,,,,,,,,,,,,,,,,,,848.1011375000235,849.1288134000206,847.0643046000041,847.0643046000041,847.0643046000041,847.0643046000041,old_sceneIn_43.png,203,4.0,1.0325373000232503,,024,00,2024-12-05_14h13.27.905,Surprise recog test,2023.1.3,59.86891103436907,
203,0,203,0,,,,,,,,,,,,,,,,,,,,,,,,,,,,,,,,,,850.4422124000266,851.4650661000051,849.1288134000206,849.1288134000206,849.1288134000206,849.1288134000206,new_fruit_18.png,204,4.0,1.3134205999958795,,024,00,2024-12-05_14h13.27.905,Surprise recog test,2023.1.3,59.86891103436907,
204,0,204,0,,,,,,,,,,,,,,,,,,,,,,,,,,,,,,,,,,853.5835867999995,,851.4650661000051,851.4650661000051,851.4650661000051,851.4650661000051,new_stationery_38.png,205,3.0,2.1210567000089213,,024,00,2024-12-05_14h13.27.905,Surprise recog test,2023.1.3,59.86891103436907,
205,0,205,0,,,,,,,,,,,,,,,,,,,,,,,,,,,,,,,,,,856.675997000013,857.6902991000097,854.6137404000037,854.6137404000037,854.6137404000037,854.6137404000037,new_sceneOut_7.png,206,3.0,2.063448100001551,,024,00,2024-12-05_14h13.27.905,Surprise recog test,2023.1.3,59.86891103436907,
206,0,206,0,,,,,,,,,,,,,,,,,,,,,,,,,,,,,,,,,,858.689846000023,859.7263274000143,857.6902991000097,857.6902991000097,857.6902991000097,857.6902991000097,new_sceneOut_48.png,207,4.0,0.9946686000039335,,024,00,2024-12-05_14h13.27.905,Surprise recog test,2023.1.3,59.86891103436907,
207,0,207,0,,,,,,,,,,,,,,,,,,,,,,,,,,,,,,,,,,860.8521501000214,861.8794956000056,859.7263274000143,859.7263274000143,859.7263274000143,859.7263274000143,old_sceneOut_20.png,208,4.0,1.1318038000026718,,024,00,2024-12-05_14h13.27.905,Surprise recog test,2023.1.3,59.86891103436907,
208,0,208,0,,,,,,,,,,,,,,,,,,,,,,,,,,,,,,,,,,863.2061402000254,,861.8794956000056,861.8794956000056,861.8794956000056,861.8794956000056,new_sceneOut_24.png,209,4.0,1.3305914999800734,,024,00,2024-12-05_14h13.27.905,Surprise recog test,2023.1.3,59.86891103436907,
209,0,209,0,,,,,,,,,,,,,,,,,,,,,,,,,,,,,,,,,,865.3390503000119,866.3484188000148,864.2359855000104,864.2359855000104,864.2359855000104,864.2359855000104,new_sceneOut_22.png,210,5.0,1.0945321999897715,,024,00,2024-12-05_14h13.27.905,Surprise recog test,2023.1.3,59.86891103436907,
210,0,210,0,,,,,,,,,,,,,,,,,,,,,,,,,,,,,,,,,,867.3959118000057,868.4174324000196,866.3484188000148,866.3484188000148,866.3484188000148,866.3484188000148,old_sceneIn_17.png,211,5.0,1.0443737999885343,,024,00,2024-12-05_14h13.27.905,Surprise recog test,2023.1.3,59.86891103436907,
211,0,211,0,,,,,,,,,,,,,,,,,,,,,,,,,,,,,,,,,,869.7091386000102,870.7242293000163,868.4174324000196,868.4174324000196,868.4174324000196,868.4174324000196,new_stationery_8.png,212,5.0,1.2859924000222236,,024,00,2024-12-05_14h13.27.905,Surprise recog test,2023.1.3,59.86891103436907,
212,0,212,0,,,,,,,,,,,,,,,,,,,,,,,,,,,,,,,,,,872.3653216000239,,870.7242293000163,870.7242293000163,870.7242293000163,870.7242293000163,old_sceneOut_32.png,213,4.0,1.643015400011791,,024,00,2024-12-05_14h13.27.905,Surprise recog test,2023.1.3,59.86891103436907,
213,0,213,0,,,,,,,,,,,,,,,,,,,,,,,,,,,,,,,,,,874.2889093000267,875.3050974000071,873.3959463000065,873.3959463000065,873.3959463000065,873.3959463000065,old_sceneOut_26.png,214,4.0,0.894999000011012,,024,00,2024-12-05_14h13.27.905,Surprise recog test,2023.1.3,59.86891103436907,
214,0,214,0,,,,,,,,,,,,,,,,,,,,,,,,,,,,,,,,,,876.5481733000197,877.5692450000206,875.3050974000071,875.3050974000071,875.3050974000071,875.3050974000071,old_fruit_16.png,215,1.0,1.2344631000014488,,024,00,2024-12-05_14h13.27.905,Surprise recog test,2023.1.3,59.86891103436907,
215,0,215,0,,,,,,,,,,,,,,,,,,,,,,,,,,,,,,,,,,878.6356672000256,,877.5692450000206,877.5692450000206,877.5692450000206,877.5692450000206,new_sceneIn_24.png,216,5.0,1.0664515999960713,,024,00,2024-12-05_14h13.27.905,Surprise recog test,2023.1.3,59.86891103436907,
216,0,216,0,,,,,,,,,,,,,,,,,,,,,,,,,,,,,,,,,,880.7619209000259,881.7881037000043,879.661175700021,879.661175700021,879.661175700021,879.661175700021,new_sceneIn_27.png,217,4.0,1.1000395999872126,,024,00,2024-12-05_14h13.27.905,Surprise recog test,2023.1.3,59.86891103436907,
217,0,217,0,,,,,,,,,,,,,,,,,,,,,,,,,,,,,,,,,,882.7853507000254,883.8077084000106,881.7881037000043,881.7881037000043,881.7881037000043,881.7881037000043,new_sceneOut_37.png,218,4.0,0.9993948999908753,,024,00,2024-12-05_14h13.27.905,Surprise recog test,2023.1.3,59.86891103436907,
218,0,218,0,,,,,,,,,,,,,,,,,,,,,,,,,,,,,,,,,,884.7067186000058,885.7246990000131,883.8077084000106,883.8077084000106,883.8077084000106,883.8077084000106,old_sceneOut_6.png,219,4.0,0.9011885999934748,,024,00,2024-12-05_14h13.27.905,Surprise recog test,2023.1.3,59.86891103436907,
219,0,219,0,,,,,,,,,,,,,,,,,,,,,,,,,,,,,,,,,,887.140584800014,888.1469647000195,885.7246990000131,885.7246990000131,885.7246990000131,885.7246990000131,new_fruit_37.png,220,4.0,1.4153726999938954,,024,00,2024-12-05_14h13.27.905,Surprise recog test,2023.1.3,59.86891103436907,
220,0,220,0,,,,,,,,,,,,,,,,,,,,,,,,,,,,,,,,,,889.127641900006,,888.1469647000195,888.1469647000195,888.1469647000195,888.1469647000195,new_sceneOut_47.png,221,4.0,0.9779131000104826,,024,00,2024-12-05_14h13.27.905,Surprise recog test,2023.1.3,59.86891103436907,
221,0,221,0,,,,,,,,,,,,,,,,,,,,,,,,,,,,,,,,,,891.1288826000236,892.1403702000098,890.160152299999,890.160152299999,890.160152299999,890.160152299999,old_sceneIn_47.png,222,5.0,0.9693038999976125,,024,00,2024-12-05_14h13.27.905,Surprise recog test,2023.1.3,59.86891103436907,
222,0,222,0,,,,,,,,,,,,,,,,,,,,,,,,,,,,,,,,,,893.390249500022,894.4145753000048,892.1403702000098,892.1403702000098,892.1403702000098,892.1403702000098,new_stationery_47.png,223,4.0,1.247138000006089,,024,00,2024-12-05_14h13.27.905,Surprise recog test,2023.1.3,59.86891103436907,
223,0,223,0,,,,,,,,,,,,,,,,,,,,,,,,,,,,,,,,,,895.571139000007,896.5996341000136,894.4145753000048,894.4145753000048,894.4145753000048,894.4145753000048,old_sceneOut_4.png,224,5.0,1.158455299999332,,024,00,2024-12-05_14h13.27.905,Surprise recog test,2023.1.3,59.86891103436907,
224,0,224,0,,,,,,,,,,,,,,,,,,,,,,,,,,,,,,,,,,897.5497890000115,898.5550722000189,896.5996341000136,896.5996341000136,896.5996341000136,896.5996341000136,new_sceneIn_25.png,225,5.0,0.9505940999952145,,024,00,2024-12-05_14h13.27.905,Surprise recog test,2023.1.3,59.86891103436907,
225,0,225,0,,,,,,,,,,,,,,,,,,,,,,,,,,,,,,,,,,900.0242824000015,901.0481229000143,898.5550722000189,898.5550722000189,898.5550722000189,898.5550722000189,old_stationery_31.png,226,3.0,1.4671673999982886,,024,00,2024-12-05_14h13.27.905,Surprise recog test,2023.1.3,59.86891103436907,
226,0,226,0,,,,,,,,,,,,,,,,,,,,,,,,,,,,,,,,,,902.1693767000106,903.1885087999981,901.0481229000143,901.0481229000143,901.0481229000143,901.0481229000143,new_fruit_29.png,227,4.0,1.116555899992818,,024,00,2024-12-05_14h13.27.905,Surprise recog test,2023.1.3,59.86891103436907,
227,0,227,0,,,,,,,,,,,,,,,,,,,,,,,,,,,,,,,,,,904.3412282000063,,903.1885087999981,903.1885087999981,903.1885087999981,903.1885087999981,new_stationery_43.png,228,5.0,1.1551103999954648,,024,00,2024-12-05_14h13.27.905,Surprise recog test,2023.1.3,59.86891103436907,
228,0,228,0,,,,,,,,,,,,,,,,,,,,,,,,,,,,,,,,,,907.6504317000217,908.6651433000225,905.3737349000003,905.3737349000003,905.3737349000003,905.3737349000003,old_fruit_43.png,229,2.0,2.2792787000071257,,024,00,2024-12-05_14h13.27.905,Surprise recog test,2023.1.3,59.86891103436907,
229,0,229,0,,,,,,,,,,,,,,,,,,,,,,,,,,,,,,,,,,909.9766245000064,910.9958641999983,908.6651433000225,908.6651433000225,908.6651433000225,908.6651433000225,new_sceneIn_15.png,230,5.0,1.3097649999835994,,024,00,2024-12-05_14h13.27.905,Surprise recog test,2023.1.3,59.86891103436907,
230,0,230,0,,,,,,,,,,,,,,,,,,,,,,,,,,,,,,,,,,913.0021895000245,914.0200809000235,910.9958641999983,910.9958641999983,910.9958641999983,910.9958641999983,old_sceneOut_29.png,231,4.0,2.0085413999913726,,024,00,2024-12-05_14h13.27.905,Surprise recog test,2023.1.3,59.86891103436907,
231,0,231,0,,,,,,,,,,,,,,,,,,,,,,,,,,,,,,,,,,914.9550160000217,915.9728634000057,914.0200809000235,914.0200809000235,914.0200809000235,914.0200809000235,old_sceneOut_3.png,232,4.0,0.9293537999910768,,024,00,2024-12-05_14h13.27.905,Surprise recog test,2023.1.3,59.86891103436907,
232,0,232,0,,,,,,,,,,,,,,,,,,,,,,,,,,,,,,,,,,916.8082300000242,917.834011400002,915.9728634000057,915.9728634000057,915.9728634000057,915.9728634000057,old_sceneOut_30.png,233,4.0,0.8317867000005208,,024,00,2024-12-05_14h13.27.905,Surprise recog test,2023.1.3,59.86891103436907,
233,0,233,0,,,,,,,,,,,,,,,,,,,,,,,,,,,,,,,,,,918.7615625000035,919.7884753000108,917.834011400002,917.834011400002,917.834011400002,917.834011400002,new_sceneOut_3.png,234,4.0,0.9297368999978062,,024,00,2024-12-05_14h13.27.905,Surprise recog test,2023.1.3,59.86891103436907,
234,0,234,0,,,,,,,,,,,,,,,,,,,,,,,,,,,,,,,,,,921.1183654000051,922.1366789000167,919.7884753000108,919.7884753000108,919.7884753000108,919.7884753000108,old_fruit_8.png,235,1.0,1.3277567000186536,,024,00,2024-12-05_14h13.27.905,Surprise recog test,2023.1.3,59.86891103436907,
235,0,235,0,,,,,,,,,,,,,,,,,,,,,,,,,,,,,,,,,,923.3779980000108,924.3945151000225,922.1366789000167,922.1366789000167,922.1366789000167,922.1366789000167,new_sceneOut_50.png,236,4.0,1.2403665000165347,,024,00,2024-12-05_14h13.27.905,Surprise recog test,2023.1.3,59.86891103436907,
236,0,236,0,,,,,,,,,,,,,,,,,,,,,,,,,,,,,,,,,,925.50682770001,926.5253592000226,924.3945151000225,924.3945151000225,924.3945151000225,924.3945151000225,new_sceneOut_18.png,237,4.0,1.110127799998736,,024,00,2024-12-05_14h13.27.905,Surprise recog test,2023.1.3,59.86891103436907,
237,0,237,0,,,,,,,,,,,,,,,,,,,,,,,,,,,,,,,,,,927.9445108000073,,926.5253592000226,926.5253592000226,926.5253592000226,926.5253592000226,old_fruit_10.png,238,1.0,1.420070799998939,,024,00,2024-12-05_14h13.27.905,Surprise recog test,2023.1.3,59.86891103436907,
238,0,238,0,,,,,,,,,,,,,,,,,,,,,,,,,,,,,,,,,,930.0336245000071,931.0561893999984,928.9695898000209,928.9695898000209,928.9695898000209,928.9695898000209,old_stationery_6.png,239,4.0,1.0642652999958955,,024,00,2024-12-05_14h13.27.905,Surprise recog test,2023.1.3,59.86891103436907,
239,0,239,0,,,,,,,,,,,,,,,,,,,,,,,,,,,,,,,,,,932.7946386000258,933.8163690000074,931.0561893999984,931.0561893999984,931.0561893999984,931.0561893999984,old_fruit_46.png,240,1.0,1.7351723999890964,,024,00,2024-12-05_14h13.27.905,Surprise recog test,2023.1.3,59.86891103436907,
240,0,240,0,,,,,,,,,,,,,,,,,,,,,,,,,,,,,,,,,,935.2301330000046,936.2433748000185,933.8163690000074,933.8163690000074,933.8163690000074,933.8163690000074,new_stationery_15.png,241,2.0,1.4093873999954667,,024,00,2024-12-05_14h13.27.905,Surprise recog test,2023.1.3,59.86891103436907,
241,0,241,0,,,,,,,,,,,,,,,,,,,,,,,,,,,,,,,,,,937.765653200011,938.7728186000022,936.2433748000185,936.2433748000185,936.2433748000185,936.2433748000185,old_sceneOut_43.png,242,4.0,1.5214373999915551,,024,00,2024-12-05_14h13.27.905,Surprise recog test,2023.1.3,59.86891103436907,
242,0,242,0,,,,,,,,,,,,,,,,,,,,,,,,,,,,,,,,,,940.2447429000167,941.2671571000246,938.7728186000022,938.7728186000022,938.7728186000022,938.7728186000022,new_fruit_3.png,243,4.0,1.4680015000049025,,024,00,2024-12-05_14h13.27.905,Surprise recog test,2023.1.3,59.86891103436907,
243,0,243,0,,,,,,,,,,,,,,,,,,,,,,,,,,,,,,,,,,942.9201559000066,943.9401905000268,941.2671571000246,941.2671571000246,941.2671571000246,941.2671571000246,old_stationery_3.png,244,3.0,1.654768399981549,,024,00,2024-12-05_14h13.27.905,Surprise recog test,2023.1.3,59.86891103436907,
244,0,244,0,,,,,,,,,,,,,,,,,,,,,,,,,,,,,,,,,,945.3139367000258,946.3391011000203,943.9401905000268,943.9401905000268,943.9401905000268,943.9401905000268,old_sceneOut_12.png,245,4.0,1.373834199999692,,024,00,2024-12-05_14h13.27.905,Surprise recog test,2023.1.3,59.86891103436907,
245,0,245,0,,,,,,,,,,,,,,,,,,,,,,,,,,,,,,,,,,947.8633189000248,948.8940262000251,946.3391011000203,946.3391011000203,946.3391011000203,946.3391011000203,old_sceneOut_46.png,246,4.0,1.5258982999948785,,024,00,2024-12-05_14h13.27.905,Surprise recog test,2023.1.3,59.86891103436907,
246,0,246,0,,,,,,,,,,,,,,,,,,,,,,,,,,,,,,,,,,950.1510358000232,951.1633054999984,948.8940262000251,948.8940262000251,948.8940262000251,948.8940262000251,new_sceneIn_43.png,247,5.0,1.2598338999960106,,024,00,2024-12-05_14h13.27.905,Surprise recog test,2023.1.3,59.86891103436907,
247,0,247,0,,,,,,,,,,,,,,,,,,,,,,,,,,,,,,,,,,952.32767530001,953.3476412000018,951.1633054999984,951.1633054999984,951.1633054999984,951.1633054999984,old_sceneOut_25.png,248,5.0,1.1541392999934033,,024,00,2024-12-05_14h13.27.905,Surprise recog test,2023.1.3,59.86891103436907,
248,0,248,0,,,,,,,,,,,,,,,,,,,,,,,,,,,,,,,,,,954.7705978000013,955.8028326000203,953.3476412000018,953.3476412000018,953.3476412000018,953.3476412000018,old_fruit_21.png,249,1.0,1.424716300010914,,024,00,2024-12-05_14h13.27.905,Surprise recog test,2023.1.3,59.86891103436907,
249,0,249,0,,,,,,,,,,,,,,,,,,,,,,,,,,,,,,,,,,957.3314398000075,958.3484744000016,955.8028326000203,955.8028326000203,955.8028326000203,955.8028326000203,old_sceneOut_42.png,250,4.0,1.5281722000217997,,024,00,2024-12-05_14h13.27.905,Surprise recog test,2023.1.3,59.86891103436907,
250,0,250,0,,,,,,,,,,,,,,,,,,,,,,,,,,,,,,,,,,960.0422946000181,961.0673421000247,958.3484744000016,958.3484744000016,958.3484744000016,958.3484744000016,old_sceneIn_14.png,251,3.0,1.6953032000164967,,024,00,2024-12-05_14h13.27.905,Surprise recog test,2023.1.3,59.86891103436907,
251,0,251,0,,,,,,,,,,,,,,,,,,,,,,,,,,,,,,,,,,962.2801143000252,963.3057218000176,961.0673421000247,961.0673421000247,961.0673421000247,961.0673421000247,old_stationery_8.png,252,4.0,1.2143916999921203,,024,00,2024-12-05_14h13.27.905,Surprise recog test,2023.1.3,59.86891103436907,
252,0,252,0,,,,,,,,,,,,,,,,,,,,,,,,,,,,,,,,,,964.4916560999991,,963.3057218000176,963.3057218000176,963.3057218000176,963.3057218000176,new_fruit_47.png,253,4.0,1.1879580999957398,,024,00,2024-12-05_14h13.27.905,Surprise recog test,2023.1.3,59.86891103436907,
253,0,253,0,,,,,,,,,,,,,,,,,,,,,,,,,,,,,,,,,,966.9236096000241,967.9444354000152,965.5133084000263,965.5133084000263,965.5133084000263,965.5133084000263,new_sceneIn_38.png,254,4.0,1.406969499978004,,024,00,2024-12-05_14h13.27.905,Surprise recog test,2023.1.3,59.86891103436907,
254,0,254,0,,,,,,,,,,,,,,,,,,,,,,,,,,,,,,,,,,969.2750865000125,970.2947251000151,967.9444354000152,967.9444354000152,967.9444354000152,967.9444354000152,new_fruit_2.png,255,2.0,1.332002699986333,,024,00,2024-12-05_14h13.27.905,Surprise recog test,2023.1.3,59.86891103436907,
255,0,255,0,,,,,,,,,,,,,,,,,,,,,,,,,,,,,,,,,,971.7772721000074,972.7852497000131,970.2947251000151,970.2947251000151,970.2947251000151,970.2947251000151,old_sceneIn_40.png,256,4.0,1.4804219999932684,,024,00,2024-12-05_14h13.27.905,Surprise recog test,2023.1.3,59.86891103436907,
256,0,256,0,,,,,,,,,,,,,,,,,,,,,,,,,,,,,,,,,,974.2317793000257,,972.7852497000131,972.7852497000131,972.7852497000131,972.7852497000131,new_sceneIn_47.png,257,5.0,1.441731799975969,,024,00,2024-12-05_14h13.27.905,Surprise recog test,2023.1.3,59.86891103436907,
257,0,257,0,,,,,,,,,,,,,,,,,,,,,,,,,,,,,,,,,,977.1940916000167,978.2033703000052,975.2632768000185,975.2632768000185,975.2632768000185,975.2632768000185,new_fruit_7.png,258,2.0,1.9325134999817237,,024,00,2024-12-05_14h13.27.905,Surprise recog test,2023.1.3,59.86891103436907,
258,0,258,0,,,,,,,,,,,,,,,,,,,,,,,,,,,,,,,,,,981.068374399998,982.0762855000212,978.2033703000052,978.2033703000052,978.2033703000052,978.2033703000052,old_stationery_47.png,259,1.0,2.859525800013216,,024,00,2024-12-05_14h13.27.905,Surprise recog test,2023.1.3,59.86891103436907,
259,0,259,0,,,,,,,,,,,,,,,,,,,,,,,,,,,,,,,,,,983.2198793000134,984.2382030000153,982.0762855000212,982.0762855000212,982.0762855000212,982.0762855000212,new_sceneOut_2.png,260,4.0,1.1328406000102405,,024,00,2024-12-05_14h13.27.905,Surprise recog test,2023.1.3,59.86891103436907,
260,0,260,0,,,,,,,,,,,,,,,,,,,,,,,,,,,,,,,,,,985.2639092000027,986.289024000027,984.2382030000153,984.2382030000153,984.2382030000153,984.2382030000153,old_sceneIn_3.png,261,5.0,1.0274281000019982,,024,00,2024-12-05_14h13.27.905,Surprise recog test,2023.1.3,59.86891103436907,
261,0,261,0,,,,,,,,,,,,,,,,,,,,,,,,,,,,,,,,,,987.3755085000012,,986.289024000027,986.289024000027,986.289024000027,986.289024000027,new_stationery_29.png,262,5.0,1.0867953000124544,,024,00,2024-12-05_14h13.27.905,Surprise recog test,2023.1.3,59.86891103436907,
262,0,262,0,,,,,,,,,,,,,,,,,,,,,,,,,,,,,,,,,,989.5796567000216,,988.4067457000201,988.4067457000201,988.4067457000201,988.4067457000201,new_fruit_49.png,263,5.0,1.1745133000076748,,024,00,2024-12-05_14h13.27.905,Surprise recog test,2023.1.3,59.86891103436907,
263,0,263,0,,,,,,,,,,,,,,,,,,,,,,,,,,,,,,,,,,991.7869163000141,992.7980885000143,990.611722600006,990.611722600006,990.611722600006,990.611722600006,old_sceneOut_44.png,264,4.0,1.177760299993679,,024,00,2024-12-05_14h13.27.905,Surprise recog test,2023.1.3,59.86891103436907,
264,0,264,0,,,,,,,,,,,,,,,,,,,,,,,,,,,,,,,,,,993.8053827000258,994.819147400005,992.7980885000143,992.7980885000143,992.7980885000143,992.7980885000143,old_sceneIn_45.png,265,4.0,1.003025499987416,,024,00,2024-12-05_14h13.27.905,Surprise recog test,2023.1.3,59.86891103436907,
265,0,265,0,,,,,,,,,,,,,,,,,,,,,,,,,,,,,,,,,,995.8156606999983,996.8294104000088,994.819147400005,994.819147400005,994.819147400005,994.819147400005,new_stationery_14.png,266,4.0,0.9934511000174098,,024,00,2024-12-05_14h13.27.905,Surprise recog test,2023.1.3,59.86891103436907,
266,0,266,0,,,,,,,,,,,,,,,,,,,,,,,,,,,,,,,,,,998.055190700019,999.0723706000135,996.8294104000088,996.8294104000088,996.8294104000088,996.8294104000088,new_sceneIn_37.png,267,4.0,1.2230495999974664,,024,00,2024-12-05_14h13.27.905,Surprise recog test,2023.1.3,59.86891103436907,
267,0,267,0,,,,,,,,,,,,,,,,,,,,,,,,,,,,,,,,,,1000.6595786000253,1001.675361600006,999.0723706000135,999.0723706000135,999.0723706000135,999.0723706000135,old_fruit_42.png,268,2.0,1.5855360999994446,,024,00,2024-12-05_14h13.27.905,Surprise recog test,2023.1.3,59.86891103436907,
268,0,268,0,,,,,,,,,,,,,,,,,,,,,,,,,,,,,,,,,,1003.3288629000017,1004.3579515000165,1001.675361600006,1001.675361600006,1001.675361600006,1001.675361600006,new_fruit_25.png,269,3.0,1.6513550999807194,,024,00,2024-12-05_14h13.27.905,Surprise recog test,2023.1.3,59.86891103436907,
269,0,269,0,,,,,,,,,,,,,,,,,,,,,,,,,,,,,,,,,,1005.5730377,1006.5805059000268,1004.3579515000165,1004.3579515000165,1004.3579515000165,1004.3579515000165,new_sceneOut_17.png,270,5.0,1.2174814000027254,,024,00,2024-12-05_14h13.27.905,Surprise recog test,2023.1.3,59.86891103436907,
270,0,270,0,,,,,,,,,,,,,,,,,,,,,,,,,,,,,,,,,,1007.5124121000117,1008.5437270000111,1006.5805059000268,1006.5805059000268,1006.5805059000268,1006.5805059000268,old_sceneOut_28.png,271,4.0,0.9267184999771416,,024,00,2024-12-05_14h13.27.905,Surprise recog test,2023.1.3,59.86891103436907,
271,0,271,0,,,,,,,,,,,,,,,,,,,,,,,,,,,,,,,,,,1009.5466092000133,,1008.5437270000111,1008.5437270000111,1008.5437270000111,1008.5437270000111,new_sceneIn_29.png,272,5.0,1.0023390999995172,,024,00,2024-12-05_14h13.27.905,Surprise recog test,2023.1.3,59.86891103436907,
272,0,272,0,,,,,,,,,,,,,,,,,,,,,,,,,,,,,,,,,,1011.3369338000193,1012.360385500011,1010.5670611000096,1010.5670611000096,1010.5670611000096,1010.5670611000096,new_sceneIn_31.png,273,5.0,0.7673269000079017,,024,00,2024-12-05_14h13.27.905,Surprise recog test,2023.1.3,59.86891103436907,
273,0,273,0,,,,,,,,,,,,,,,,,,,,,,,,,,,,,,,,,,1013.8860019000131,1014.903214800026,1012.360385500011,1012.360385500011,1012.360385500011,1012.360385500011,new_fruit_44.png,274,4.0,1.5272948000056203,,024,00,2024-12-05_14h13.27.905,Surprise recog test,2023.1.3,59.86891103436907,
274,0,274,0,,,,,,,,,,,,,,,,,,,,,,,,,,,,,,,,,,1016.2015889000031,,1014.903214800026,1014.903214800026,1014.903214800026,1014.903214800026,new_fruit_19.png,275,4.0,1.2957864000054542,,024,00,2024-12-05_14h13.27.905,Surprise recog test,2023.1.3,59.86891103436907,
275,0,275,0,,,,,,,,,,,,,,,,,,,,,,,,,,,,,,,,,,1019.0495572000218,1020.0661516000109,1017.2378103000228,1017.2378103000228,1017.2378103000228,1017.2378103000228,old_fruit_20.png,276,1.0,1.814542199979769,,024,00,2024-12-05_14h13.27.905,Surprise recog test,2023.1.3,59.86891103436907,
276,0,276,0,,,,,,,,,,,,,,,,,,,,,,,,,,,,,,,,,,1021.282706900005,1022.2987865000032,1020.0661516000109,1020.0661516000109,1020.0661516000109,1020.0661516000109,old_sceneIn_24.png,277,4.0,1.215016200003447,,024,00,2024-12-05_14h13.27.905,Surprise recog test,2023.1.3,59.86891103436907,
277,0,277,0,,,,,,,,,,,,,,,,,,,,,,,,,,,,,,,,,,1023.5233048000082,,1022.2987865000032,1022.2987865000032,1022.2987865000032,1022.2987865000032,old_fruit_41.png,278,1.0,1.2234060000046156,,024,00,2024-12-05_14h13.27.905,Surprise recog test,2023.1.3,59.86891103436907,
278,0,278,0,,,,,,,,,,,,,,,,,,,,,,,,,,,,,,,,,,1025.9011137000052,1026.9150984000007,1024.5582364000147,1024.5582364000147,1024.5582364000147,1024.5582364000147,old_fruit_27.png,279,2.0,1.3430567999894265,,024,00,2024-12-05_14h13.27.905,Surprise recog test,2023.1.3,59.86891103436907,
279,0,279,0,,,,,,,,,,,,,,,,,,,,,,,,,,,,,,,,,,1028.0617855000019,1029.092614400026,1026.9150984000007,1026.9150984000007,1026.9150984000007,1026.9150984000007,new_sceneOut_26.png,280,5.0,1.1456869000103325,,024,00,2024-12-05_14h13.27.905,Surprise recog test,2023.1.3,59.86891103436907,
280,0,280,0,,,,,,,,,,,,,,,,,,,,,,,,,,,,,,,,,,1029.9604773000174,1030.9765945000108,1029.092614400026,1029.092614400026,1029.092614400026,1029.092614400026,new_sceneIn_48.png,281,5.0,0.8677223999984562,,024,00,2024-12-05_14h13.27.905,Surprise recog test,2023.1.3,59.86891103436907,
281,0,281,0,,,,,,,,,,,,,,,,,,,,,,,,,,,,,,,,,,1032.3317925000156,1033.3630874000082,1030.9765945000108,1030.9765945000108,1030.9765945000108,1030.9765945000108,new_stationery_5.png,282,4.0,1.3559084000007715,,024,00,2024-12-05_14h13.27.905,Surprise recog test,2023.1.3,59.86891103436907,
282,0,282,0,,,,,,,,,,,,,,,,,,,,,,,,,,,,,,,,,,1034.675871000014,1035.6989624999987,1033.3630874000082,1033.3630874000082,1033.3630874000082,1033.3630874000082,old_fruit_1.png,283,2.0,1.3140481000009459,,024,00,2024-12-05_14h13.27.905,Surprise recog test,2023.1.3,59.86891103436907,
283,0,283,0,,,,,,,,,,,,,,,,,,,,,,,,,,,,,,,,,,1037.2429272000154,1038.269163000019,1035.6989624999987,1035.6989624999987,1035.6989624999987,1035.6989624999987,old_stationery_42.png,284,3.0,1.5447805000003427,,024,00,2024-12-05_14h13.27.905,Surprise recog test,2023.1.3,59.86891103436907,
284,0,284,0,,,,,,,,,,,,,,,,,,,,,,,,,,,,,,,,,,1039.5877714000235,1040.6051435000263,1038.269163000019,1038.269163000019,1038.269163000019,1038.269163000019,old_sceneIn_4.png,285,5.0,1.320238500018604,,024,00,2024-12-05_14h13.27.905,Surprise recog test,2023.1.3,59.86891103436907,
285,0,285,0,,,,,,,,,,,,,,,,,,,,,,,,,,,,,,,,,,1041.4685289000045,1042.489780200005,1040.6051435000263,1040.6051435000263,1040.6051435000263,1040.6051435000263,old_sceneIn_44.png,286,5.0,0.8530639999953564,,024,00,2024-12-05_14h13.27.905,Surprise recog test,2023.1.3,59.86891103436907,
286,0,286,0,,,,,,,,,,,,,,,,,,,,,,,,,,,,,,,,,,1043.963176500023,1044.9846123000025,1042.489780200005,1042.489780200005,1042.489780200005,1042.489780200005,new_fruit_34.png,287,4.0,1.4756139000237454,,024,00,2024-12-05_14h13.27.905,Surprise recog test,2023.1.3,59.86891103436907,
287,0,287,0,,,,,,,,,,,,,,,,,,,,,,,,,,,,,,,,,,1046.8178299000137,1047.836657000007,1044.9846123000025,1044.9846123000025,1044.9846123000025,1044.9846123000025,new_sceneOut_11.png,288,3.0,1.834357200015802,,024,00,2024-12-05_14h13.27.905,Surprise recog test,2023.1.3,59.86891103436907,
288,0,288,0,,,,,,,,,,,,,,,,,,,,,,,,,,,,,,,,,,1048.8860091000097,1049.9145134999999,1047.836657000007,1047.836657000007,1047.836657000007,1047.836657000007,old_sceneOut_21.png,289,5.0,1.0441519000160042,,024,00,2024-12-05_14h13.27.905,Surprise recog test,2023.1.3,59.86891103436907,
289,0,289,0,,,,,,,,,,,,,,,,,,,,,,,,,,,,,,,,,,1050.6476598000154,1051.6782320000057,1049.9145134999999,1049.9145134999999,1049.9145134999999,1049.9145134999999,old_sceneIn_42.png,290,5.0,0.736929600010626,,024,00,2024-12-05_14h13.27.905,Surprise recog test,2023.1.3,59.86891103436907,
290,0,290,0,,,,,,,,,,,,,,,,,,,,,,,,,,,,,,,,,,1053.7208956000104,1054.7518742000102,1051.6782320000057,1051.6782320000057,1051.6782320000057,1051.6782320000057,new_fruit_16.png,291,3.0,2.0448680999979842,,024,00,2024-12-05_14h13.27.905,Surprise recog test,2023.1.3,59.86891103436907,
291,0,291,0,,,,,,,,,,,,,,,,,,,,,,,,,,,,,,,,,,1055.809012600017,1056.8333024000167,1054.7518742000102,1054.7518742000102,1054.7518742000102,1054.7518742000102,new_sceneIn_10.png,292,5.0,1.0608208999910858,,024,00,2024-12-05_14h13.27.905,Surprise recog test,2023.1.3,59.86891103436907,
292,0,292,0,,,,,,,,,,,,,,,,,,,,,,,,,,,,,,,,,,1057.5484571999987,1058.5583997000067,1056.8333024000167,1056.8333024000167,1056.8333024000167,1056.8333024000167,new_sceneOut_40.png,293,5.0,0.7103313999832608,,024,00,2024-12-05_14h13.27.905,Surprise recog test,2023.1.3,59.86891103436907,
293,0,293,0,,,,,,,,,,,,,,,,,,,,,,,,,,,,,,,,,,1059.2998869000003,1060.3083955000038,1058.5583997000067,1058.5583997000067,1058.5583997000067,1058.5583997000067,new_sceneOut_27.png,294,5.0,0.731956400006311,,024,00,2024-12-05_14h13.27.905,Surprise recog test,2023.1.3,59.86891103436907,
294,0,294,0,,,,,,,,,,,,,,,,,,,,,,,,,,,,,,,,,,1061.1019433000183,1062.11023630001,1060.3083955000038,1060.3083955000038,1060.3083955000038,1060.3083955000038,new_sceneIn_23.png,295,5.0,0.7897994999948423,,024,00,2024-12-05_14h13.27.905,Surprise recog test,2023.1.3,59.86891103436907,
295,0,295,0,,,,,,,,,,,,,,,,,,,,,,,,,,,,,,,,,,1063.8545764000155,1064.8578962000029,1062.11023630001,1062.11023630001,1062.11023630001,1062.11023630001,old_fruit_19.png,296,1.0,1.7420800999971107,,024,00,2024-12-05_14h13.27.905,Surprise recog test,2023.1.3,59.86891103436907,
296,0,296,0,,,,,,,,,,,,,,,,,,,,,,,,,,,,,,,,,,1066.3788075000048,1067.3975314999989,1064.8578962000029,1064.8578962000029,1064.8578962000029,1064.8578962000029,new_fruit_4.png,297,4.0,1.517266999988351,,024,00,2024-12-05_14h13.27.905,Surprise recog test,2023.1.3,59.86891103436907,
297,0,297,0,,,,,,,,,,,,,,,,,,,,,,,,,,,,,,,,,,1068.659148000006,1069.662191600015,1067.3975314999989,1067.3975314999989,1067.3975314999989,1067.3975314999989,old_fruit_15.png,298,1.0,1.257674299995415,,024,00,2024-12-05_14h13.27.905,Surprise recog test,2023.1.3,59.86891103436907,
298,0,298,0,,,,,,,,,,,,,,,,,,,,,,,,,,,,,,,,,,1071.2763004000008,1072.2970227000187,1069.662191600015,1069.662191600015,1069.662191600015,1069.662191600015,new_stationery_4.png,299,4.0,1.6057533000130206,,024,00,2024-12-05_14h13.27.905,Surprise recog test,2023.1.3,59.86891103436907,
299,0,299,0,,,,,,,,,,,,,,,,,,,,,,,,,,,,,,,,,,1073.664478700026,,1072.2970227000187,1072.2970227000187,1072.2970227000187,1072.2970227000187,old_fruit_13.png,300,1.0,1.3684788000246044,,024,00,2024-12-05_14h13.27.905,Surprise recog test,2023.1.3,59.86891103436907,
300,0,300,0,,,,,,,,,,,,,,,,,,,,,,,,,,,,,,,,,,1075.7557152000081,1076.7819025000208,1074.6992772000085,1074.6992772000085,1074.6992772000085,1074.6992772000085,old_sceneOut_41.png,301,4.0,1.0604390999942552,,024,00,2024-12-05_14h13.27.905,Surprise recog test,2023.1.3,59.86891103436907,
301,0,301,0,,,,,,,,,,,,,,,,,,,,,,,,,,,,,,,,,,1078.7420859000122,1079.7538707000203,1076.7819025000208,1076.7819025000208,1076.7819025000208,1076.7819025000208,new_fruit_11.png,302,4.0,1.9605428000213578,,024,00,2024-12-05_14h13.27.905,Surprise recog test,2023.1.3,59.86891103436907,
302,0,302,0,,,,,,,,,,,,,,,,,,,,,,,,,,,,,,,,,,1081.0314113000059,1082.054187200003,1079.7538707000203,1079.7538707000203,1079.7538707000203,1079.7538707000203,old_sceneOut_50.png,303,5.0,1.2722632999939378,,024,00,2024-12-05_14h13.27.905,Surprise recog test,2023.1.3,59.86891103436907,
303,0,303,0,,,,,,,,,,,,,,,,,,,,,,,,,,,,,,,,,,1083.1214298999985,1084.1393377000059,1082.054187200003,1082.054187200003,1082.054187200003,1082.054187200003,old_stationery_14.png,304,5.0,1.0694703999906778,,024,00,2024-12-05_14h13.27.905,Surprise recog test,2023.1.3,59.86891103436907,
304,0,304,0,,,,,,,,,,,,,,,,,,,,,,,,,,,,,,,,,,1085.1571576000133,,1084.1393377000059,1084.1393377000059,1084.1393377000059,1084.1393377000059,new_stationery_21.png,305,5.0,1.0201952999923378,,024,00,2024-12-05_14h13.27.905,Surprise recog test,2023.1.3,59.86891103436907,
305,0,305,0,,,,,,,,,,,,,,,,,,,,,,,,,,,,,,,,,,1086.9088058000198,,1086.187952200009,1086.187952200009,1086.187952200009,1086.187952200009,old_sceneIn_1.png,306,5.0,0.721634699992137,,024,00,2024-12-05_14h13.27.905,Surprise recog test,2023.1.3,59.86891103436907,
306,0,306,0,,,,,,,,,,,,,,,,,,,,,,,,,,,,,,,,,,1088.7427966000105,1089.7590770000243,1087.9446551,1087.9446551,1087.9446551,1087.9446551,new_stationery_27.png,307,5.0,0.7991634999925736,,024,00,2024-12-05_14h13.27.905,Surprise recog test,2023.1.3,59.86891103436907,
307,0,307,0,,,,,,,,,,,,,,,,,,,,,,,,,,,,,,,,,,1090.4972133000265,1091.530705400015,1089.7590770000243,1089.7590770000243,1089.7590770000243,1089.7590770000243,new_sceneIn_42.png,308,5.0,0.7386952000088058,,024,00,2024-12-05_14h13.27.905,Surprise recog test,2023.1.3,59.86891103436907,
308,0,308,0,,,,,,,,,,,,,,,,,,,,,,,,,,,,,,,,,,1092.7562468000106,1093.7802556000242,1091.530705400015,1091.530705400015,1091.530705400015,1091.530705400015,new_stationery_28.png,309,4.0,1.2266944000148214,,024,00,2024-12-05_14h13.27.905,Surprise recog test,2023.1.3,59.86891103436907,
309,0,309,0,,,,,,,,,,,,,,,,,,,,,,,,,,,,,,,,,,1094.5480804000108,,1093.7802556000242,1093.7802556000242,1093.7802556000242,1093.7802556000242,old_sceneOut_15.png,310,4.0,0.7662240999925416,,024,00,2024-12-05_14h13.27.905,Surprise recog test,2023.1.3,59.86891103436907,
310,0,310,0,,,,,,,,,,,,,,,,,,,,,,,,,,,,,,,,,,1096.9763261000044,1097.9998022000073,1095.5673091000062,1095.5673091000062,1095.5673091000062,1095.5673091000062,new_fruit_26.png,311,2.0,1.4058580000128131,,024,00,2024-12-05_14h13.27.905,Surprise recog test,2023.1.3,59.86891103436907,
311,0,311,0,,,,,,,,,,,,,,,,,,,,,,,,,,,,,,,,,,1099.2711274000176,1100.2974479000259,1097.9998022000073,1097.9998022000073,1097.9998022000073,1097.9998022000073,old_stationery_32.png,312,4.0,1.2738511000061408,,024,00,2024-12-05_14h13.27.905,Surprise recog test,2023.1.3,59.86891103436907,
312,0,312,0,,,,,,,,,,,,,,,,,,,,,,,,,,,,,,,,,,1101.459027600009,1102.4925988000177,1100.2974479000259,1100.2974479000259,1100.2974479000259,1100.2974479000259,new_sceneIn_13.png,313,5.0,1.1601253999979235,,024,00,2024-12-05_14h13.27.905,Surprise recog test,2023.1.3,59.86891103436907,
313,0,313,0,,,,,,,,,,,,,,,,,,,,,,,,,,,,,,,,,,1103.1200703000068,1104.128253700008,1102.4925988000177,1102.4925988000177,1102.4925988000177,1102.4925988000177,new_sceneIn_18.png,314,5.0,0.6301732000138145,,024,00,2024-12-05_14h13.27.905,Surprise recog test,2023.1.3,59.86891103436907,
314,0,314,0,,,,,,,,,,,,,,,,,,,,,,,,,,,,,,,,,,1105.522359100025,1106.5381318000145,1104.128253700008,1104.128253700008,1104.128253700008,1104.128253700008,new_fruit_24.png,315,5.0,1.3867657000082545,,024,00,2024-12-05_14h13.27.905,Surprise recog test,2023.1.3,59.86891103436907,
315,0,315,0,,,,,,,,,,,,,,,,,,,,,,,,,,,,,,,,,,1107.7899359000148,1108.8152105000045,1106.5381318000145,1106.5381318000145,1106.5381318000145,1106.5381318000145,new_fruit_39.png,316,4.0,1.2500706000137143,,024,00,2024-12-05_14h13.27.905,Surprise recog test,2023.1.3,59.86891103436907,
316,0,316,0,,,,,,,,,,,,,,,,,,,,,,,,,,,,,,,,,,1109.9858747000108,1111.0060687000223,1108.8152105000045,1108.8152105000045,1108.8152105000045,1108.8152105000045,old_sceneOut_5.png,317,5.0,1.1738469999982044,,024,00,2024-12-05_14h13.27.905,Surprise recog test,2023.1.3,59.86891103436907,
317,0,317,0,,,,,,,,,,,,,,,,,,,,,,,,,,,,,,,,,,1111.8455673000135,,1111.0060687000223,1111.0060687000223,1111.0060687000223,1111.0060687000223,new_sceneOut_36.png,318,5.0,0.8358543000067584,,024,00,2024-12-05_14h13.27.905,Surprise recog test,2023.1.3,59.86891103436907,
318,0,318,0,,,,,,,,,,,,,,,,,,,,,,,,,,,,,,,,,,1113.7185739999986,1114.746852500015,1112.88015740001,1112.88015740001,1112.88015740001,1112.88015740001,new_sceneOut_34.png,319,5.0,0.8379836000094656,,024,00,2024-12-05_14h13.27.905,Surprise recog test,2023.1.3,59.86891103436907,
319,0,319,0,,,,,,,,,,,,,,,,,,,,,,,,,,,,,,,,,,1115.9841706000152,,1114.746852500015,1114.746852500015,1114.746852500015,1114.746852500015,new_sceneOut_1.png,320,4.0,1.2355198000150267,,024,00,2024-12-05_14h13.27.905,Surprise recog test,2023.1.3,59.86891103436907,
320,0,320,0,,,,,,,,,,,,,,,,,,,,,,,,,,,,,,,,,,1117.928663700004,1118.9369270000025,1117.0013526000257,1117.0013526000257,1117.0013526000257,1117.0013526000257,new_sceneOut_4.png,321,4.0,0.9232425999944098,,024,00,2024-12-05_14h13.27.905,Surprise recog test,2023.1.3,59.86891103436907,
321,0,321,0,,,,,,,,,,,,,,,,,,,,,,,,,,,,,,,,,,1120.6913753000263,1121.7138759000227,1118.9369270000025,1118.9369270000025,1118.9369270000025,1118.9369270000025,new_sceneIn_45.png,322,5.0,1.7494421000010334,,024,00,2024-12-05_14h13.27.905,Surprise recog test,2023.1.3,59.86891103436907,
322,0,322,0,,,,,,,,,,,,,,,,,,,,,,,,,,,,,,,,,,1122.4436826000165,1123.472645300004,1121.7138759000227,1121.7138759000227,1121.7138759000227,1121.7138759000227,old_sceneOut_2.png,323,5.0,0.7269148000050336,,024,00,2024-12-05_14h13.27.905,Surprise recog test,2023.1.3,59.86891103436907,
323,0,323,0,,,,,,,,,,,,,,,,,,,,,,,,,,,,,,,,,,1124.7874264999991,1125.7957420000166,1123.472645300004,1123.472645300004,1123.472645300004,1123.472645300004,old_fruit_50.png,324,2.0,1.3138693000073545,,024,00,2024-12-05_14h13.27.905,Surprise recog test,2023.1.3,59.86891103436907,
324,0,324,0,,,,,,,,,,,,,,,,,,,,,,,,,,,,,,,,,,1126.7289265000145,1127.7478089000215,1125.7957420000166,1125.7957420000166,1125.7957420000166,1125.7957420000166,new_stationery_9.png,325,4.0,0.9291883000114467,,024,00,2024-12-05_14h13.27.905,Surprise recog test,2023.1.3,59.86891103436907,
325,0,325,0,,,,,,,,,,,,,,,,,,,,,,,,,,,,,,,,,,1128.6112737000221,,1127.7478089000215,1127.7478089000215,1127.7478089000215,1127.7478089000215,new_sceneIn_39.png,326,5.0,0.8572923000028823,,024,00,2024-12-05_14h13.27.905,Surprise recog test,2023.1.3,59.86891103436907,
326,0,326,0,,,,,,,,,,,,,,,,,,,,,,,,,,,,,,,,,,1130.897884200007,1131.9254223000025,1129.639061200025,1129.639061200025,1129.639061200025,1129.639061200025,old_stationery_36.png,327,4.0,1.2604323999839835,,024,00,2024-12-05_14h13.27.905,Surprise recog test,2023.1.3,59.86891103436907,
327,0,327,0,,,,,,,,,,,,,,,,,,,,,,,,,,,,,,,,,,1133.2359593000147,1134.2528836000129,1131.9254223000025,1131.9254223000025,1131.9254223000025,1131.9254223000025,old_fruit_26.png,328,1.0,1.3046168999862857,,024,00,2024-12-05_14h13.27.905,Surprise recog test,2023.1.3,59.86891103436907,
328,0,328,0,,,,,,,,,,,,,,,,,,,,,,,,,,,,,,,,,,1135.2449174000067,1136.2651367000071,1134.2528836000129,1134.2528836000129,1134.2528836000129,1134.2528836000129,old_sceneOut_34.png,329,4.0,0.9874666999967303,,024,00,2024-12-05_14h13.27.905,Surprise recog test,2023.1.3,59.86891103436907,
329,0,329,0,,,,,,,,,,,,,,,,,,,,,,,,,,,,,,,,,,1137.5119075000111,1138.5333892000199,1136.2651367000071,1136.2651367000071,1136.2651367000071,1136.2651367000071,old_stationery_17.png,330,5.0,1.2494023999897763,,024,00,2024-12-05_14h13.27.905,Surprise recog test,2023.1.3,59.86891103436907,
330,0,330,0,,,,,,,,,,,,,,,,,,,,,,,,,,,,,,,,,,1139.56243000002,1140.5863492000208,1138.5333892000199,1138.5333892000199,1138.5333892000199,1138.5333892000199,old_sceneIn_18.png,331,5.0,1.0301302000007126,,024,00,2024-12-05_14h13.27.905,Surprise recog test,2023.1.3,59.86891103436907,
331,0,331,0,,,,,,,,,,,,,,,,,,,,,,,,,,,,,,,,,,1141.8532923000166,1142.8718124000006,1140.5863492000208,1140.5863492000208,1140.5863492000208,1140.5863492000208,old_fruit_18.png,332,1.0,1.268216600001324,,024,00,2024-12-05_14h13.27.905,Surprise recog test,2023.1.3,59.86891103436907,
332,0,332,0,,,,,,,,,,,,,,,,,,,,,,,,,,,,,,,,,,1144.520980100002,1145.5403082000266,1142.8718124000006,1142.8718124000006,1142.8718124000006,1142.8718124000006,new_stationery_35.png,333,2.0,1.6506147000181954,,024,00,2024-12-05_14h13.27.905,Surprise recog test,2023.1.3,59.86891103436907,
333,0,333,0,,,,,,,,,,,,,,,,,,,,,,,,,,,,,,,,,,1146.5721786000067,1147.593602500012,1145.5403082000266,1145.5403082000266,1145.5403082000266,1145.5403082000266,new_fruit_41.png,334,4.0,1.029553100001067,,024,00,2024-12-05_14h13.27.905,Surprise recog test,2023.1.3,59.86891103436907,
334,0,334,0,,,,,,,,,,,,,,,,,,,,,,,,,,,,,,,,,,1148.3868279000162,1149.398571800004,1147.593602500012,1147.593602500012,1147.593602500012,1147.593602500012,new_sceneIn_40.png,335,4.0,0.7946118999971077,,024,00,2024-12-05_14h13.27.905,Surprise recog test,2023.1.3,59.86891103436907,
335,0,335,0,,,,,,,,,,,,,,,,,,,,,,,,,,,,,,,,,,1150.7344498000166,1151.7513828000228,1149.398571800004,1149.398571800004,1149.398571800004,1149.398571800004,new_stationery_1.png,336,3.0,1.3319917999906465,,024,00,2024-12-05_14h13.27.905,Surprise recog test,2023.1.3,59.86891103436907,
336,0,336,0,,,,,,,,,,,,,,,,,,,,,,,,,,,,,,,,,,1152.7851895000204,1153.8143923000025,1151.7513828000228,1151.7513828000228,1151.7513828000228,1151.7513828000228,old_sceneIn_11.png,337,5.0,1.029172299982747,,024,00,2024-12-05_14h13.27.905,Surprise recog test,2023.1.3,59.86891103436907,
337,0,337,0,,,,,,,,,,,,,,,,,,,,,,,,,,,,,,,,,,1154.4672149000107,1155.4938415000215,1153.8143923000025,1153.8143923000025,1153.8143923000025,1153.8143923000025,new_sceneIn_30.png,338,5.0,0.6540476999944076,,024,00,2024-12-05_14h13.27.905,Surprise recog test,2023.1.3,59.86891103436907,
338,0,338,0,,,,,,,,,,,,,,,,,,,,,,,,,,,,,,,,,,1157.0077776000253,1158.032949800021,1155.4938415000215,1155.4938415000215,1155.4938415000215,1155.4938415000215,old_fruit_25.png,339,1.0,1.5116778999799863,,024,00,2024-12-05_14h13.27.905,Surprise recog test,2023.1.3,59.86891103436907,
339,0,339,0,,,,,,,,,,,,,,,,,,,,,,,,,,,,,,,,,,1159.4094882000063,1160.4342908000108,1158.032949800021,1158.032949800021,1158.032949800021,1158.032949800021,old_sceneOut_1.png,340,4.0,1.3783101000008173,,024,00,2024-12-05_14h13.27.905,Surprise recog test,2023.1.3,59.86891103436907,
340,0,340,0,,,,,,,,,,,,,,,,,,,,,,,,,,,,,,,,,,1161.2816111000138,1162.2914961000206,1160.4342908000108,1160.4342908000108,1160.4342908000108,1160.4342908000108,old_sceneOut_37.png,341,4.0,0.8465304999845102,,024,00,2024-12-05_14h13.27.905,Surprise recog test,2023.1.3,59.86891103436907,
341,0,341,0,,,,,,,,,,,,,,,,,,,,,,,,,,,,,,,,,,1163.4362083000015,1164.4447893000033,1162.2914961000206,1162.2914961000206,1162.2914961000206,1162.2914961000206,new_stationery_48.png,342,5.0,1.1338287999969907,,024,00,2024-12-05_14h13.27.905,Surprise recog test,2023.1.3,59.86891103436907,
342,0,342,0,,,,,,,,,,,,,,,,,,,,,,,,,,,,,,,,,,1165.4132756000035,1166.4265495,1164.4447893000033,1164.4447893000033,1164.4447893000033,1164.4447893000033,new_sceneIn_46.png,343,5.0,0.9645697000087239,,024,00,2024-12-05_14h13.27.905,Surprise recog test,2023.1.3,59.86891103436907,
343,0,343,0,,,,,,,,,,,,,,,,,,,,,,,,,,,,,,,,,,1167.9511423000076,1168.9769909000024,1166.4265495,1166.4265495,1166.4265495,1166.4265495,new_stationery_50.png,344,4.0,1.5218285000009928,,024,00,2024-12-05_14h13.27.905,Surprise recog test,2023.1.3,59.86891103436907,
344,0,344,0,,,,,,,,,,,,,,,,,,,,,,,,,,,,,,,,,,1170.0082998000144,1171.0124001000077,1168.9769909000024,1168.9769909000024,1168.9769909000024,1168.9769909000024,old_sceneOut_18.png,345,5.0,1.0325372999941465,,024,00,2024-12-05_14h13.27.905,Surprise recog test,2023.1.3,59.86891103436907,
345,0,345,0,,,,,,,,,,,,,,,,,,,,,,,,,,,,,,,,,,1172.7438047000032,1173.7482173000171,1171.0124001000077,1171.0124001000077,1171.0124001000077,1171.0124001000077,new_fruit_13.png,346,3.0,1.7203655999910552,,024,00,2024-12-05_14h13.27.905,Surprise recog test,2023.1.3,59.86891103436907,
346,0,346,0,,,,,,,,,,,,,,,,,,,,,,,,,,,,,,,,,,1175.1457389999996,1176.170185200026,1173.7482173000171,1173.7482173000171,1173.7482173000171,1173.7482173000171,new_fruit_9.png,347,3.0,1.386713999992935,,024,00,2024-12-05_14h13.27.905,Surprise recog test,2023.1.3,59.86891103436907,
347,0,347,0,,,,,,,,,,,,,,,,,,,,,,,,,,,,,,,,,,1177.2561731000023,1178.2934889000026,1176.170185200026,1176.170185200026,1176.170185200026,1176.170185200026,new_sceneOut_23.png,348,4.0,1.0898106999811716,,024,00,2024-12-05_14h13.27.905,Surprise recog test,2023.1.3,59.86891103436907,
348,0,348,0,,,,,,,,,,,,,,,,,,,,,,,,,,,,,,,,,,1179.4298375000071,1180.4395766000089,1178.2934889000026,1178.2934889000026,1178.2934889000026,1178.2934889000026,new_sceneIn_34.png,349,5.0,1.1390429000020958,,024,00,2024-12-05_14h13.27.905,Surprise recog test,2023.1.3,59.86891103436907,
349,0,349,0,,,,,,,,,,,,,,,,,,,,,,,,,,,,,,,,,,1181.6307578000124,1182.6567295000132,1180.4395766000089,1180.4395766000089,1180.4395766000089,1180.4395766000089,new_fruit_43.png,350,5.0,1.1884337999799754,,024,00,2024-12-05_14h13.27.905,Surprise recog test,2023.1.3,59.86891103436907,
350,0,350,0,,,,,,,,,,,,,,,,,,,,,,,,,,,,,,,,,,1183.9246911000228,1184.9422475000028,1182.6567295000132,1182.6567295000132,1182.6567295000132,1182.6567295000132,old_sceneOut_33.png,351,4.0,1.270081199996639,,024,00,2024-12-05_14h13.27.905,Surprise recog test,2023.1.3,59.86891103436907,
351,0,351,0,,,,,,,,,,,,,,,,,,,,,,,,,,,,,,,,,,1185.9364934000187,1186.9591106000007,1184.9422475000028,1184.9422475000028,1184.9422475000028,1184.9422475000028,new_sceneIn_50.png,352,4.0,0.9909479999914765,,024,00,2024-12-05_14h13.27.905,Surprise recog test,2023.1.3,59.86891103436907,
352,0,352,0,,,,,,,,,,,,,,,,,,,,,,,,,,,,,,,,,,1188.1267006999988,,1186.9591106000007,1186.9591106000007,1186.9591106000007,1186.9591106000007,old_sceneIn_25.png,353,5.0,1.170115499990061,,024,00,2024-12-05_14h13.27.905,Surprise recog test,2023.1.3,59.86891103436907,
353,0,353,0,,,,,,,,,,,,,,,,,,,,,,,,,,,,,,,,,,1189.78019770002,1190.7997837000003,1189.159167500009,1189.159167500009,1189.159167500009,1189.159167500009,new_sceneIn_26.png,354,5.0,0.6238322999852244,,024,00,2024-12-05_14h13.27.905,Surprise recog test,2023.1.3,59.86891103436907,
