trial_loop.thisRepN,trial_loop.thisTrialN,trial_loop.thisN,trial_loop.thisIndex,VAS_slider.started,VAS_text.started,VAS_notstressed_text.started,VAS_stressed_text.started,continue_input.started,continue_text.started,label0.started,label10.started,label20.started,label30.started,label40.started,label50.started,label60.started,label70.started,label80.started,label90.started,label100.started,VAS_slider.response,VAS_slider.rt,VAS_slider.history,Answer_VAS,continue_input.keys,instruction_text.started,continue_text_2.started,continue_input_2.started,continue_input_2.keys,continue_input_2.rt,continue_input_2.duration,example_text.started,example_slider_2.started,example_image.started,example_slider_2.response,example_slider_2.rt,fixcross.started,fixcross.stopped,front_square.started,stim_images.started,trial_inst_images.started,slider_images.started,slider_images.stopped,thisImg,trial_count,slider_images.response,slider_images.rt,outro.started,participant,condition,date,expName,psychopyVersion,frameRate,
,,,,20.85241389996372,20.85241389996372,20.85241389996372,20.85241389996372,20.85241389996372,20.85241389996372,20.85241389996372,20.85241389996372,20.85241389996372,20.85241389996372,20.85241389996372,20.85241389996372,20.85241389996372,20.85241389996372,20.85241389996372,20.85241389996372,20.85241389996372,0.011111111111111183,14.428796299966052,"[(0.011111111111111183, 14.428796299966052)]",0.011111111111111183,None,,,,,,,,,,,,,,,,,,,,,,,,025,00,2024-11-28_15h45.04.680,Surprise recog test,2023.1.3,59.95372772353865,
,,,,,,,,,,,,,,,,,,,,,,,,,,35.322751399944536,35.322751399944536,35.322751399944536,space,13.176431200001389,None,,,,,,,,,,,,,,,,,,025,00,2024-11-28_15h45.04.680,Surprise recog test,2023.1.3,59.95372772353865,
0,0,0,0,,,,,,,,,,,,,,,,,,,,,,,,,,,,,48.61366649996489,48.61366649996489,48.61366649996489,5.0,8.182511599967256,62.747604799922556,57.764146300032735,57.764146300032735,57.764146300032735,57.764146300032735,57.764146300032735,62.73926920001395,new_fruit_40.png,1,None,None,,025,00,2024-11-28_15h45.04.680,Surprise recog test,2023.1.3,59.95372772353865,
1,0,1,0,,,,,,,,,,,,,,,,,,,,,,,,,,,,,,,,,,67.4680028000148,68.49133310001343,63.755977599998005,63.755977599998005,63.755977599998005,63.755977599998005,,old_sceneOut_48.png,2,5.0,3.7070802999660373,,025,00,2024-11-28_15h45.04.680,Surprise recog test,2023.1.3,59.95372772353865,
2,0,2,0,,,,,,,,,,,,,,,,,,,,,,,,,,,,,,,,,,71.89336510002613,72.91129319998436,68.49133310001343,68.49133310001343,68.49133310001343,68.49133310001343,,new_sceneOut_41.png,3,3.0,3.4060446999501437,,025,00,2024-11-28_15h45.04.680,Surprise recog test,2023.1.3,59.95372772353865,
3,0,3,0,,,,,,,,,,,,,,,,,,,,,,,,,,,,,,,,,,75.46814859996084,76.48463800002355,72.91129319998436,72.91129319998436,72.91129319998436,72.91129319998436,,old_stationery_35.png,4,1.0,2.552439699997194,,025,00,2024-11-28_15h45.04.680,Surprise recog test,2023.1.3,59.95372772353865,
4,0,4,0,,,,,,,,,,,,,,,,,,,,,,,,,,,,,,,,,,79.38286929996684,,76.48463800002355,76.48463800002355,76.48463800002355,76.48463800002355,,old_sceneOut_1.png,5,5.0,2.8906362999696285,,025,00,2024-11-28_15h45.04.680,Surprise recog test,2023.1.3,59.95372772353865,
5,0,5,0,,,,,,,,,,,,,,,,,,,,,,,,,,,,,,,,,,81.8132334999973,82.83667440002318,80.41254769999068,80.41254769999068,80.41254769999068,80.41254769999068,,new_stationery_22.png,6,5.0,1.4021909999428317,,025,00,2024-11-28_15h45.04.680,Surprise recog test,2023.1.3,59.95372772353865,
6,0,6,0,,,,,,,,,,,,,,,,,,,,,,,,,,,,,,,,,,84.15868749993388,85.18817889993079,82.83667440002318,82.83667440002318,82.83667440002318,82.83667440002318,,old_sceneOut_2.png,7,5.0,1.3245527000399306,,025,00,2024-11-28_15h45.04.680,Surprise recog test,2023.1.3,59.95372772353865,
7,0,7,0,,,,,,,,,,,,,,,,,,,,,,,,,,,,,,,,,,86.10928650002461,87.13733950001188,85.18817889993079,85.18817889993079,85.18817889993079,85.18817889993079,,new_sceneOut_22.png,8,5.0,0.9245606999611482,,025,00,2024-11-28_15h45.04.680,Surprise recog test,2023.1.3,59.95372772353865,
8,0,8,0,,,,,,,,,,,,,,,,,,,,,,,,,,,,,,,,,,88.25978910003323,89.29456519999076,87.13733950001188,87.13733950001188,87.13733950001188,87.13733950001188,,new_sceneOut_47.png,9,5.0,1.1240169999655336,,025,00,2024-11-28_15h45.04.680,Surprise recog test,2023.1.3,59.95372772353865,
9,0,9,0,,,,,,,,,,,,,,,,,,,,,,,,,,,,,,,,,,91.68260289996397,92.70815009996295,89.29456519999076,89.29456519999076,89.29456519999076,89.29456519999076,,old_sceneIn_13.png,10,1.0,2.3891826999606565,,025,00,2024-11-28_15h45.04.680,Surprise recog test,2023.1.3,59.95372772353865,
10,0,10,0,,,,,,,,,,,,,,,,,,,,,,,,,,,,,,,,,,95.55450790002942,96.56457579997368,92.70815009996295,92.70815009996295,92.70815009996295,92.70815009996295,,old_stationery_27.png,11,1.0,2.8474996000295505,,025,00,2024-11-28_15h45.04.680,Surprise recog test,2023.1.3,59.95372772353865,
11,0,11,0,,,,,,,,,,,,,,,,,,,,,,,,,,,,,,,,,,98.9781221000012,99.98550249997061,96.56457579997368,96.56457579997368,96.56457579997368,96.56457579997368,,old_sceneIn_30.png,12,5.0,2.409160599927418,,025,00,2024-11-28_15h45.04.680,Surprise recog test,2023.1.3,59.95372772353865,
12,0,12,0,,,,,,,,,,,,,,,,,,,,,,,,,,,,,,,,,,103.20781279995572,104.2282348999288,99.98550249997061,99.98550249997061,99.98550249997061,99.98550249997061,,new_sceneOut_7.png,13,1.0,3.2172392999054864,,025,00,2024-11-28_15h45.04.680,Surprise recog test,2023.1.3,59.95372772353865,
13,0,13,0,,,,,,,,,,,,,,,,,,,,,,,,,,,,,,,,,,106.77510209998582,107.8054509999929,104.2282348999288,104.2282348999288,104.2282348999288,104.2282348999288,,new_sceneIn_38.png,14,3.0,2.5473739999579266,,025,00,2024-11-28_15h45.04.680,Surprise recog test,2023.1.3,59.95372772353865,
14,0,14,0,,,,,,,,,,,,,,,,,,,,,,,,,,,,,,,,,,110.35271250002552,111.36405750003178,107.8054509999929,107.8054509999929,107.8054509999929,107.8054509999929,,old_sceneOut_14.png,15,5.0,2.546918800100684,,025,00,2024-11-28_15h45.04.680,Surprise recog test,2023.1.3,59.95372772353865,
15,0,15,0,,,,,,,,,,,,,,,,,,,,,,,,,,,,,,,,,,112.42497279995587,,111.36405750003178,111.36405750003178,111.36405750003178,111.36405750003178,,new_sceneOut_23.png,16,5.0,1.060617299983278,,025,00,2024-11-28_15h45.04.680,Surprise recog test,2023.1.3,59.95372772353865,
16,0,16,0,,,,,,,,,,,,,,,,,,,,,,,,,,,,,,,,,,116.44237950001843,117.46931650000624,113.45881779992487,113.45881779992487,113.45881779992487,113.45881779992487,,old_sceneIn_14.png,17,2.0,2.9840329999569803,,025,00,2024-11-28_15h45.04.680,Surprise recog test,2023.1.3,59.95372772353865,
17,0,17,0,,,,,,,,,,,,,,,,,,,,,,,,,,,,,,,,,,119.21081229997799,120.23417710000649,117.46931650000624,117.46931650000624,117.46931650000624,117.46931650000624,,old_fruit_42.png,18,5.0,1.7445471999235451,,025,00,2024-11-28_15h45.04.680,Surprise recog test,2023.1.3,59.95372772353865,
18,0,18,0,,,,,,,,,,,,,,,,,,,,,,,,,,,,,,,,,,121.08671199996024,122.11576289997902,120.23417710000649,120.23417710000649,120.23417710000649,120.23417710000649,,new_sceneIn_6.png,19,5.0,0.8523104999912903,,025,00,2024-11-28_15h45.04.680,Surprise recog test,2023.1.3,59.95372772353865,
19,0,19,0,,,,,,,,,,,,,,,,,,,,,,,,,,,,,,,,,,122.95721929997671,123.97012529999483,122.11576289997902,122.11576289997902,122.11576289997902,122.11576289997902,,new_sceneOut_37.png,20,5.0,0.8435972000006586,,025,00,2024-11-28_15h45.04.680,Surprise recog test,2023.1.3,59.95372772353865,
20,0,20,0,,,,,,,,,,,,,,,,,,,,,,,,,,,,,,,,,,125.90173229994252,126.9193487999728,123.97012529999483,123.97012529999483,123.97012529999483,123.97012529999483,,old_stationery_45.png,21,1.0,1.923529400024563,,025,00,2024-11-28_15h45.04.680,Surprise recog test,2023.1.3,59.95372772353865,
21,0,21,0,,,,,,,,,,,,,,,,,,,,,,,,,,,,,,,,,,128.9229970999295,,126.9193487999728,126.9193487999728,126.9193487999728,126.9193487999728,,new_stationery_30.png,22,5.0,1.9978019000263885,,025,00,2024-11-28_15h45.04.680,Surprise recog test,2023.1.3,59.95372772353865,
22,0,22,0,,,,,,,,,,,,,,,,,,,,,,,,,,,,,,,,,,133.14028859999962,134.16159259993583,129.94389460003003,129.94389460003003,129.94389460003003,129.94389460003003,,old_fruit_29.png,23,4.0,3.192406199988909,,025,00,2024-11-28_15h45.04.680,Surprise recog test,2023.1.3,59.95372772353865,
23,0,23,0,,,,,,,,,,,,,,,,,,,,,,,,,,,,,,,,,,135.7935386999743,136.80626019998454,134.16159259993583,134.16159259993583,134.16159259993583,134.16159259993583,,old_sceneIn_29.png,24,5.0,1.634317999938503,,025,00,2024-11-28_15h45.04.680,Surprise recog test,2023.1.3,59.95372772353865,
24,0,24,0,,,,,,,,,,,,,,,,,,,,,,,,,,,,,,,,,,138.46688910003286,139.49817000003532,136.80626019998454,136.80626019998454,136.80626019998454,136.80626019998454,,new_sceneIn_22.png,25,5.0,1.6593833999941126,,025,00,2024-11-28_15h45.04.680,Surprise recog test,2023.1.3,59.95372772353865,
25,0,25,0,,,,,,,,,,,,,,,,,,,,,,,,,,,,,,,,,,141.05733769992366,142.07334370003082,139.49817000003532,139.49817000003532,139.49817000003532,139.49817000003532,,new_stationery_39.png,26,5.0,1.5617072999011725,,025,00,2024-11-28_15h45.04.680,Surprise recog test,2023.1.3,59.95372772353865,
26,0,26,0,,,,,,,,,,,,,,,,,,,,,,,,,,,,,,,,,,143.47737939993385,144.4993088999763,142.07334370003082,142.07334370003082,142.07334370003082,142.07334370003082,,new_sceneIn_5.png,27,5.0,1.4028434000210837,,025,00,2024-11-28_15h45.04.680,Surprise recog test,2023.1.3,59.95372772353865,
27,0,27,0,,,,,,,,,,,,,,,,,,,,,,,,,,,,,,,,,,145.4355514999479,,144.4993088999763,144.4993088999763,144.4993088999763,144.4993088999763,,new_stationery_36.png,28,5.0,0.937699000001885,,025,00,2024-11-28_15h45.04.680,Surprise recog test,2023.1.3,59.95372772353865,
28,0,28,0,,,,,,,,,,,,,,,,,,,,,,,,,,,,,,,,,,147.38475929992273,148.3890135999536,146.46809159999248,146.46809159999248,146.46809159999248,146.46809159999248,,new_stationery_6.png,29,5.0,0.9168358999304473,,025,00,2024-11-28_15h45.04.680,Surprise recog test,2023.1.3,59.95372772353865,
29,0,29,0,,,,,,,,,,,,,,,,,,,,,,,,,,,,,,,,,,150.2772017000243,151.31151909998152,148.3890135999536,148.3890135999536,148.3890135999536,148.3890135999536,,old_stationery_4.png,30,1.0,1.8835269999690354,,025,00,2024-11-28_15h45.04.680,Surprise recog test,2023.1.3,59.95372772353865,
30,0,30,0,,,,,,,,,,,,,,,,,,,,,,,,,,,,,,,,,,152.22200639999937,153.23018279997632,151.31151909998152,151.31151909998152,151.31151909998152,151.31151909998152,,old_stationery_41.png,31,1.0,0.9041058999719098,,025,00,2024-11-28_15h45.04.680,Surprise recog test,2023.1.3,59.95372772353865,
31,0,31,0,,,,,,,,,,,,,,,,,,,,,,,,,,,,,,,,,,156.3507598999422,157.38195399998222,153.23018279997632,153.23018279997632,153.23018279997632,153.23018279997632,,old_fruit_14.png,32,1.0,3.1161393999354914,,025,00,2024-11-28_15h45.04.680,Surprise recog test,2023.1.3,59.95372772353865,
32,0,32,0,,,,,,,,,,,,,,,,,,,,,,,,,,,,,,,,,,158.9261480999412,159.94955090002622,157.38195399998222,157.38195399998222,157.38195399998222,157.38195399998222,,new_sceneIn_9.png,33,5.0,1.546902499976568,,025,00,2024-11-28_15h45.04.680,Surprise recog test,2023.1.3,59.95372772353865,
33,0,33,0,,,,,,,,,,,,,,,,,,,,,,,,,,,,,,,,,,161.68282470002305,,159.94955090002622,159.94955090002622,159.94955090002622,159.94955090002622,,new_fruit_27.png,34,1.0,1.7360844999784604,,025,00,2024-11-28_15h45.04.680,Surprise recog test,2023.1.3,59.95372772353865,
34,0,34,0,,,,,,,,,,,,,,,,,,,,,,,,,,,,,,,,,,164.348965400015,165.35287750000134,162.70681689993944,162.70681689993944,162.70681689993944,162.70681689993944,,new_fruit_49.png,35,1.0,1.6403295999625698,,025,00,2024-11-28_15h45.04.680,Surprise recog test,2023.1.3,59.95372772353865,
35,0,35,0,,,,,,,,,,,,,,,,,,,,,,,,,,,,,,,,,,167.75841409992427,168.77352980000433,165.35287750000134,165.35287750000134,165.35287750000134,165.35287750000134,,old_stationery_1.png,36,1.0,2.3992901000892743,,025,00,2024-11-28_15h45.04.680,Surprise recog test,2023.1.3,59.95372772353865,
36,0,36,0,,,,,,,,,,,,,,,,,,,,,,,,,,,,,,,,,,169.71972189994995,170.72383050003555,168.77352980000433,168.77352980000433,168.77352980000433,168.77352980000433,,old_stationery_47.png,37,1.0,0.9359598000301048,,025,00,2024-11-28_15h45.04.680,Surprise recog test,2023.1.3,59.95372772353865,
37,0,37,0,,,,,,,,,,,,,,,,,,,,,,,,,,,,,,,,,,171.58194269996602,172.59229119995143,170.72383050003555,170.72383050003555,170.72383050003555,170.72383050003555,,old_stationery_24.png,38,1.0,0.851490099914372,,025,00,2024-11-28_15h45.04.680,Surprise recog test,2023.1.3,59.95372772353865,
38,0,38,0,,,,,,,,,,,,,,,,,,,,,,,,,,,,,,,,,,175.5809370999923,176.59977299999446,172.59229119995143,172.59229119995143,172.59229119995143,172.59229119995143,,old_fruit_27.png,39,1.0,2.9847708999877796,,025,00,2024-11-28_15h45.04.680,Surprise recog test,2023.1.3,59.95372772353865,
39,0,39,0,,,,,,,,,,,,,,,,,,,,,,,,,,,,,,,,,,178.87898999999743,179.89738079998642,176.59977299999446,176.59977299999446,176.59977299999446,176.59977299999446,,old_fruit_47.png,40,5.0,2.2752123000100255,,025,00,2024-11-28_15h45.04.680,Surprise recog test,2023.1.3,59.95372772353865,
40,0,40,0,,,,,,,,,,,,,,,,,,,,,,,,,,,,,,,,,,181.6297048999695,182.65064180002082,179.89738079998642,179.89738079998642,179.89738079998642,179.89738079998642,,old_sceneIn_15.png,41,5.0,1.7290727000217885,,025,00,2024-11-28_15h45.04.680,Surprise recog test,2023.1.3,59.95372772353865,
41,0,41,0,,,,,,,,,,,,,,,,,,,,,,,,,,,,,,,,,,185.09865089994855,186.10518579999916,182.65064180002082,182.65064180002082,182.65064180002082,182.65064180002082,,new_fruit_48.png,42,2.0,2.449364199885167,,025,00,2024-11-28_15h45.04.680,Surprise recog test,2023.1.3,59.95372772353865,
42,0,42,0,,,,,,,,,,,,,,,,,,,,,,,,,,,,,,,,,,187.5764164000284,188.60920149995945,186.10518579999916,186.10518579999916,186.10518579999916,186.10518579999916,,old_stationery_11.png,43,1.0,1.4662785000400618,,025,00,2024-11-28_15h45.04.680,Surprise recog test,2023.1.3,59.95372772353865,
43,0,43,0,,,,,,,,,,,,,,,,,,,,,,,,,,,,,,,,,,191.32818870001938,192.34593239997048,188.60920149995945,188.60920149995945,188.60920149995945,188.60920149995945,,old_fruit_19.png,44,3.0,2.722465500002727,,025,00,2024-11-28_15h45.04.680,Surprise recog test,2023.1.3,59.95372772353865,
44,0,44,0,,,,,,,,,,,,,,,,,,,,,,,,,,,,,,,,,,194.30058139993344,195.3291190000018,192.34593239997048,192.34593239997048,192.34593239997048,192.34593239997048,,old_sceneIn_39.png,45,5.0,1.950580200063996,,025,00,2024-11-28_15h45.04.680,Surprise recog test,2023.1.3,59.95372772353865,
45,0,45,0,,,,,,,,,,,,,,,,,,,,,,,,,,,,,,,,,,197.72980239999015,,195.3291190000018,195.3291190000018,195.3291190000018,195.3291190000018,,new_sceneOut_50.png,46,5.0,2.4032544000074267,,025,00,2024-11-28_15h45.04.680,Surprise recog test,2023.1.3,59.95372772353865,
46,0,46,0,,,,,,,,,,,,,,,,,,,,,,,,,,,,,,,,,,199.74748020002153,,198.76346219994593,198.76346219994593,198.76346219994593,198.76346219994593,,old_fruit_24.png,47,5.0,0.9849100999999791,,025,00,2024-11-28_15h45.04.680,Surprise recog test,2023.1.3,59.95372772353865,
47,0,47,0,,,,,,,,,,,,,,,,,,,,,,,,,,,,,,,,,,201.67764629994053,202.6965389000252,200.78052829997614,200.78052829997614,200.78052829997614,200.78052829997614,,new_sceneOut_34.png,48,5.0,0.8980028000660241,,025,00,2024-11-28_15h45.04.680,Surprise recog test,2023.1.3,59.95372772353865,
48,0,48,0,,,,,,,,,,,,,,,,,,,,,,,,,,,,,,,,,,205.4171433999436,206.4231851999648,202.6965389000252,202.6965389000252,202.6965389000252,202.6965389000252,,new_fruit_30.png,49,5.0,2.722551599959843,,025,00,2024-11-28_15h45.04.680,Surprise recog test,2023.1.3,59.95372772353865,
49,0,49,0,,,,,,,,,,,,,,,,,,,,,,,,,,,,,,,,,,207.93445960001554,208.94274069997482,206.4231851999648,206.4231851999648,206.4231851999648,206.4231851999648,,old_stationery_28.png,50,1.0,1.5062145999399945,,025,00,2024-11-28_15h45.04.680,Surprise recog test,2023.1.3,59.95372772353865,
50,0,50,0,,,,,,,,,,,,,,,,,,,,,,,,,,,,,,,,,,211.39473920001183,212.4284900999628,208.94274069997482,208.94274069997482,208.94274069997482,208.94274069997482,,old_sceneIn_34.png,51,2.0,2.4471686999313533,,025,00,2024-11-28_15h45.04.680,Surprise recog test,2023.1.3,59.95372772353865,
51,0,51,0,,,,,,,,,,,,,,,,,,,,,,,,,,,,,,,,,,213.82347109995317,214.84354050003458,212.4284900999628,212.4284900999628,212.4284900999628,212.4284900999628,,new_sceneOut_32.png,52,5.0,1.396684999926947,,025,00,2024-11-28_15h45.04.680,Surprise recog test,2023.1.3,59.95372772353865,
52,0,52,0,,,,,,,,,,,,,,,,,,,,,,,,,,,,,,,,,,217.91337369999383,,214.84354050003458,214.84354050003458,214.84354050003458,214.84354050003458,,old_fruit_43.png,53,4.0,3.0719947000034153,,025,00,2024-11-28_15h45.04.680,Surprise recog test,2023.1.3,59.95372772353865,
53,0,53,0,,,,,,,,,,,,,,,,,,,,,,,,,,,,,,,,,,220.36468040000182,,218.93422159994952,218.93422159994952,218.93422159994952,218.93422159994952,,new_fruit_25.png,54,1.0,1.4266355999279767,,025,00,2024-11-28_15h45.04.680,Surprise recog test,2023.1.3,59.95372772353865,
54,0,54,0,,,,,,,,,,,,,,,,,,,,,,,,,,,,,,,,,,222.77270879992284,223.7962105999468,221.3961933000246,221.3961933000246,221.3961933000246,221.3961933000246,,old_sceneIn_5.png,55,5.0,1.3779539000242949,,025,00,2024-11-28_15h45.04.680,Surprise recog test,2023.1.3,59.95372772353865,
55,0,55,0,,,,,,,,,,,,,,,,,,,,,,,,,,,,,,,,,,225.3942993999226,226.41452510003,223.7962105999468,223.7962105999468,223.7962105999468,223.7962105999468,,old_fruit_33.png,56,1.0,1.6007039999822155,,025,00,2024-11-28_15h45.04.680,Surprise recog test,2023.1.3,59.95372772353865,
56,0,56,0,,,,,,,,,,,,,,,,,,,,,,,,,,,,,,,,,,228.03866880002897,,226.41452510003,226.41452510003,226.41452510003,226.41452510003,,old_sceneOut_18.png,57,5.0,1.6218518000096083,,025,00,2024-11-28_15h45.04.680,Surprise recog test,2023.1.3,59.95372772353865,
57,0,57,0,,,,,,,,,,,,,,,,,,,,,,,,,,,,,,,,,,229.9353962999303,230.94075639999937,229.07718989998102,229.07718989998102,229.07718989998102,229.07718989998102,,old_sceneIn_23.png,58,5.0,0.862341900006868,,025,00,2024-11-28_15h45.04.680,Surprise recog test,2023.1.3,59.95372772353865,
58,0,58,0,,,,,,,,,,,,,,,,,,,,,,,,,,,,,,,,,,233.12253789999522,234.12653819995467,230.94075639999937,230.94075639999937,230.94075639999937,230.94075639999937,,new_sceneIn_49.png,59,5.0,2.17268379998859,,025,00,2024-11-28_15h45.04.680,Surprise recog test,2023.1.3,59.95372772353865,
59,0,59,0,,,,,,,,,,,,,,,,,,,,,,,,,,,,,,,,,,237.85308669996448,238.87830709991977,234.12653819995467,234.12653819995467,234.12653819995467,234.12653819995467,,new_fruit_24.png,60,5.0,3.7212503000628203,,025,00,2024-11-28_15h45.04.680,Surprise recog test,2023.1.3,59.95372772353865,
60,0,60,0,,,,,,,,,,,,,,,,,,,,,,,,,,,,,,,,,,242.16310989996418,243.18527479993645,238.87830709991977,238.87830709991977,238.87830709991977,238.87830709991977,,new_stationery_9.png,61,1.0,3.2831267999717966,,025,00,2024-11-28_15h45.04.680,Surprise recog test,2023.1.3,59.95372772353865,
61,0,61,0,,,,,,,,,,,,,,,,,,,,,,,,,,,,,,,,,,245.79169789992739,246.81294350000098,243.18527479993645,243.18527479993645,243.18527479993645,243.18527479993645,,old_sceneIn_10.png,62,5.0,2.6092418000334874,,025,00,2024-11-28_15h45.04.680,Surprise recog test,2023.1.3,59.95372772353865,
62,0,62,0,,,,,,,,,,,,,,,,,,,,,,,,,,,,,,,,,,247.82946869998705,248.85702150000725,246.81294350000098,246.81294350000098,246.81294350000098,246.81294350000098,,old_sceneOut_37.png,63,5.0,1.017075400101021,,025,00,2024-11-28_15h45.04.680,Surprise recog test,2023.1.3,59.95372772353865,
63,0,63,0,,,,,,,,,,,,,,,,,,,,,,,,,,,,,,,,,,249.9179909999948,250.93906899995636,248.85702150000725,248.85702150000725,248.85702150000725,248.85702150000725,,new_sceneIn_1.png,64,5.0,1.065222599892877,,025,00,2024-11-28_15h45.04.680,Surprise recog test,2023.1.3,59.95372772353865,
64,0,64,0,,,,,,,,,,,,,,,,,,,,,,,,,,,,,,,,,,254.0407048999332,255.04500119993463,250.93906899995636,250.93906899995636,250.93906899995636,250.93906899995636,,new_sceneOut_33.png,65,2.0,3.1010409999871626,,025,00,2024-11-28_15h45.04.680,Surprise recog test,2023.1.3,59.95372772353865,
65,0,65,0,,,,,,,,,,,,,,,,,,,,,,,,,,,,,,,,,,257.87863059993833,,255.04500119993463,255.04500119993463,255.04500119993463,255.04500119993463,,new_sceneOut_30.png,66,1.0,2.8306760999839753,,025,00,2024-11-28_15h45.04.680,Surprise recog test,2023.1.3,59.95372772353865,
66,0,66,0,,,,,,,,,,,,,,,,,,,,,,,,,,,,,,,,,,260.2343733999878,261.2669089999981,258.9148591000121,258.9148591000121,258.9148591000121,258.9148591000121,,new_fruit_22.png,67,1.0,1.3209105000132695,,025,00,2024-11-28_15h45.04.680,Surprise recog test,2023.1.3,59.95372772353865,
67,0,67,0,,,,,,,,,,,,,,,,,,,,,,,,,,,,,,,,,,262.0329199000262,,261.2669089999981,261.2669089999981,261.2669089999981,261.2669089999981,,old_stationery_21.png,68,1.0,0.7692206000210717,,025,00,2024-11-28_15h45.04.680,Surprise recog test,2023.1.3,59.95372772353865,
68,0,68,0,,,,,,,,,,,,,,,,,,,,,,,,,,,,,,,,,,266.8507290999405,267.87512610002887,263.0531460000202,263.0531460000202,263.0531460000202,263.0531460000202,,new_stationery_5.png,69,5.0,3.790906299953349,,025,00,2024-11-28_15h45.04.680,Surprise recog test,2023.1.3,59.95372772353865,
69,0,69,0,,,,,,,,,,,,,,,,,,,,,,,,,,,,,,,,,,271.4646892999299,272.49187070003245,267.87512610002887,267.87512610002887,267.87512610002887,267.87512610002887,,old_stationery_42.png,70,3.0,3.5909392000176013,,025,00,2024-11-28_15h45.04.680,Surprise recog test,2023.1.3,59.95372772353865,
70,0,70,0,,,,,,,,,,,,,,,,,,,,,,,,,,,,,,,,,,273.72911059996113,274.7480003000237,272.49187070003245,272.49187070003245,272.49187070003245,272.49187070003245,,new_sceneIn_35.png,71,5.0,1.2363691000500694,,025,00,2024-11-28_15h45.04.680,Surprise recog test,2023.1.3,59.95372772353865,
71,0,71,0,,,,,,,,,,,,,,,,,,,,,,,,,,,,,,,,,,278.6402409999864,279.65850389993284,274.7480003000237,274.7480003000237,274.7480003000237,274.7480003000237,,new_sceneOut_6.png,72,2.0,3.8880971999606118,,025,00,2024-11-28_15h45.04.680,Surprise recog test,2023.1.3,59.95372772353865,
72,0,72,0,,,,,,,,,,,,,,,,,,,,,,,,,,,,,,,,,,281.0975637999363,,279.65850389993284,279.65850389993284,279.65850389993284,279.65850389993284,,old_stationery_16.png,73,1.0,1.4402292999438941,,025,00,2024-11-28_15h45.04.680,Surprise recog test,2023.1.3,59.95372772353865,
73,0,73,0,,,,,,,,,,,,,,,,,,,,,,,,,,,,,,,,,,283.55611629993655,284.58200009993743,282.1199095000047,282.1199095000047,282.1199095000047,282.1199095000047,,old_fruit_15.png,74,1.0,1.4216219999361783,,025,00,2024-11-28_15h45.04.680,Surprise recog test,2023.1.3,59.95372772353865,
74,0,74,0,,,,,,,,,,,,,,,,,,,,,,,,,,,,,,,,,,286.4112699999241,287.42445199994836,284.58200009993743,284.58200009993743,284.58200009993743,284.58200009993743,,new_stationery_7.png,75,5.0,1.8314389999723062,,025,00,2024-11-28_15h45.04.680,Surprise recog test,2023.1.3,59.95372772353865,
75,0,75,0,,,,,,,,,,,,,,,,,,,,,,,,,,,,,,,,,,288.35671129997354,289.38701539998874,287.42445199994836,287.42445199994836,287.42445199994836,287.42445199994836,,new_stationery_21.png,76,5.0,0.9277269000886008,,025,00,2024-11-28_15h45.04.680,Surprise recog test,2023.1.3,59.95372772353865,
76,0,76,0,,,,,,,,,,,,,,,,,,,,,,,,,,,,,,,,,,290.2031464999309,291.2219410999678,289.38701539998874,289.38701539998874,289.38701539998874,289.38701539998874,,new_stationery_24.png,77,5.0,0.8176316000754014,,025,00,2024-11-28_15h45.04.680,Surprise recog test,2023.1.3,59.95372772353865,
77,0,77,0,,,,,,,,,,,,,,,,,,,,,,,,,,,,,,,,,,293.7840944000054,294.79721230000723,291.2219410999678,291.2219410999678,291.2219410999678,291.2219410999678,,new_fruit_6.png,78,3.0,2.5642296000150964,,025,00,2024-11-28_15h45.04.680,Surprise recog test,2023.1.3,59.95372772353865,
78,0,78,0,,,,,,,,,,,,,,,,,,,,,,,,,,,,,,,,,,297.1131208000006,,294.79721230000723,294.79721230000723,294.79721230000723,294.79721230000723,,old_fruit_48.png,79,2.0,2.311917999992147,,025,00,2024-11-28_15h45.04.680,Surprise recog test,2023.1.3,59.95372772353865,
79,0,79,0,,,,,,,,,,,,,,,,,,,,,,,,,,,,,,,,,,299.6637669999618,,298.14592149993405,298.14592149993405,298.14592149993405,298.14592149993405,,new_sceneIn_45.png,80,5.0,1.519578899955377,,025,00,2024-11-28_15h45.04.680,Surprise recog test,2023.1.3,59.95372772353865,
80,0,80,0,,,,,,,,,,,,,,,,,,,,,,,,,,,,,,,,,,302.6609744000016,303.68354240001645,300.6966228999663,300.6966228999663,300.6966228999663,300.6966228999663,,old_sceneOut_3.png,81,5.0,1.9668683999916539,,025,00,2024-11-28_15h45.04.680,Surprise recog test,2023.1.3,59.95372772353865,
81,0,81,0,,,,,,,,,,,,,,,,,,,,,,,,,,,,,,,,,,305.6913808999816,306.7180318000028,303.68354240001645,303.68354240001645,303.68354240001645,303.68354240001645,,old_stationery_34.png,82,1.0,2.009922400000505,,025,00,2024-11-28_15h45.04.680,Surprise recog test,2023.1.3,59.95372772353865,
82,0,82,0,,,,,,,,,,,,,,,,,,,,,,,,,,,,,,,,,,308.23457279999275,309.24843529995997,306.7180318000028,306.7180318000028,306.7180318000028,306.7180318000028,,old_sceneOut_32.png,83,5.0,1.5140550000360236,,025,00,2024-11-28_15h45.04.680,Surprise recog test,2023.1.3,59.95372772353865,
83,0,83,0,,,,,,,,,,,,,,,,,,,,,,,,,,,,,,,,,,310.2983398999786,311.315607800032,309.24843529995997,309.24843529995997,309.24843529995997,309.24843529995997,,old_sceneOut_11.png,84,5.0,1.0510054000187665,,025,00,2024-11-28_15h45.04.680,Surprise recog test,2023.1.3,59.95372772353865,
84,0,84,0,,,,,,,,,,,,,,,,,,,,,,,,,,,,,,,,,,312.87254499993287,313.87721159996,311.315607800032,311.315607800032,311.315607800032,311.315607800032,,new_stationery_16.png,85,5.0,1.557770499959588,,025,00,2024-11-28_15h45.04.680,Surprise recog test,2023.1.3,59.95372772353865,
85,0,85,0,,,,,,,,,,,,,,,,,,,,,,,,,,,,,,,,,,314.639306499972,315.66022359998897,313.87721159996,313.87721159996,313.87721159996,313.87721159996,,old_sceneIn_21.png,86,5.0,0.7493545000907034,,025,00,2024-11-28_15h45.04.680,Surprise recog test,2023.1.3,59.95372772353865,
86,0,86,0,,,,,,,,,,,,,,,,,,,,,,,,,,,,,,,,,,316.9010109999217,317.92089069995563,315.66022359998897,315.66022359998897,315.66022359998897,315.66022359998897,,new_sceneOut_49.png,87,5.0,1.242413700092584,,025,00,2024-11-28_15h45.04.680,Surprise recog test,2023.1.3,59.95372772353865,
87,0,87,0,,,,,,,,,,,,,,,,,,,,,,,,,,,,,,,,,,318.7345674999524,319.7636521999957,317.92089069995563,317.92089069995563,317.92089069995563,317.92089069995563,,new_sceneIn_3.png,88,5.0,0.8126373001141474,,025,00,2024-11-28_15h45.04.680,Surprise recog test,2023.1.3,59.95372772353865,
88,0,88,0,,,,,,,,,,,,,,,,,,,,,,,,,,,,,,,,,,321.5722515999805,322.59951269999146,319.7636521999957,319.7636521999957,319.7636521999957,319.7636521999957,,old_stationery_38.png,89,1.0,1.8109729000134394,,025,00,2024-11-28_15h45.04.680,Surprise recog test,2023.1.3,59.95372772353865,
89,0,89,0,,,,,,,,,,,,,,,,,,,,,,,,,,,,,,,,,,324.50454340002034,325.53632610000204,322.59951269999146,322.59951269999146,322.59951269999146,322.59951269999146,,old_sceneIn_9.png,90,5.0,1.907010699971579,,025,00,2024-11-28_15h45.04.680,Surprise recog test,2023.1.3,59.95372772353865,
90,0,90,0,,,,,,,,,,,,,,,,,,,,,,,,,,,,,,,,,,328.030304600019,329.0413406000007,325.53632610000204,325.53632610000204,325.53632610000204,325.53632610000204,,old_fruit_49.png,91,3.0,2.4948209000285715,,025,00,2024-11-28_15h45.04.680,Surprise recog test,2023.1.3,59.95372772353865,
91,0,91,0,,,,,,,,,,,,,,,,,,,,,,,,,,,,,,,,,,330.7633983999258,331.7918853999581,329.0413406000007,329.0413406000007,329.0413406000007,329.0413406000007,,new_sceneIn_31.png,92,5.0,1.7181329999584705,,025,00,2024-11-28_15h45.04.680,Surprise recog test,2023.1.3,59.95372772353865,
92,0,92,0,,,,,,,,,,,,,,,,,,,,,,,,,,,,,,,,,,332.6054783000145,333.6250474000117,331.7918853999581,331.7918853999581,331.7918853999581,331.7918853999581,,new_sceneOut_20.png,93,5.0,0.816566800000146,,025,00,2024-11-28_15h45.04.680,Surprise recog test,2023.1.3,59.95372772353865,
93,0,93,0,,,,,,,,,,,,,,,,,,,,,,,,,,,,,,,,,,336.772420699941,337.796477099997,333.6250474000117,333.6250474000117,333.6250474000117,333.6250474000117,,old_fruit_23.png,94,1.0,3.1497094000224024,,025,00,2024-11-28_15h45.04.680,Surprise recog test,2023.1.3,59.95372772353865,
94,0,94,0,,,,,,,,,,,,,,,,,,,,,,,,,,,,,,,,,,339.3240146000171,340.3468003999442,337.796477099997,337.796477099997,337.796477099997,337.796477099997,,new_fruit_31.png,95,2.0,1.5295631000772119,,025,00,2024-11-28_15h45.04.680,Surprise recog test,2023.1.3,59.95372772353865,
95,0,95,0,,,,,,,,,,,,,,,,,,,,,,,,,,,,,,,,,,341.9135741000064,342.93299649993423,340.3468003999442,340.3468003999442,340.3468003999442,340.3468003999442,,old_sceneOut_8.png,96,5.0,1.5689231000142172,,025,00,2024-11-28_15h45.04.680,Surprise recog test,2023.1.3,59.95372772353865,
96,0,96,0,,,,,,,,,,,,,,,,,,,,,,,,,,,,,,,,,,345.3820982000325,346.38996539998334,342.93299649993423,342.93299649993423,342.93299649993423,342.93299649993423,,old_fruit_31.png,97,2.0,2.447350300033577,,025,00,2024-11-28_15h45.04.680,Surprise recog test,2023.1.3,59.95372772353865,
97,0,97,0,,,,,,,,,,,,,,,,,,,,,,,,,,,,,,,,,,347.4633851000108,348.4876367999241,346.38996539998334,346.38996539998334,346.38996539998334,346.38996539998334,,new_sceneOut_15.png,98,5.0,1.06847519997973,,025,00,2024-11-28_15h45.04.680,Surprise recog test,2023.1.3,59.95372772353865,
98,0,98,0,,,,,,,,,,,,,,,,,,,,,,,,,,,,,,,,,,349.26062159996945,350.294092199998,348.4876367999241,348.4876367999241,348.4876367999241,348.4876367999241,,new_sceneIn_12.png,99,5.0,0.7754431000212207,,025,00,2024-11-28_15h45.04.680,Surprise recog test,2023.1.3,59.95372772353865,
99,0,99,0,,,,,,,,,,,,,,,,,,,,,,,,,,,,,,,,,,351.14140339998994,352.16741210001055,350.294092199998,350.294092199998,350.294092199998,350.294092199998,,new_sceneIn_41.png,100,5.0,0.8524238000391051,,025,00,2024-11-28_15h45.04.680,Surprise recog test,2023.1.3,59.95372772353865,
100,0,100,0,,,,,,,,,,,,,,,,,,,,,,,,,,,,,,,,,,354.20985739992466,,352.16741210001055,352.16741210001055,352.16741210001055,352.16741210001055,,old_fruit_12.png,101,1.0,2.042580400011502,,025,00,2024-11-28_15h45.04.680,Surprise recog test,2023.1.3,59.95372772353865,
101,0,101,0,,,,,,,,,,,,,,,,,,,,,,,,,,,,,,,,,,356.8748087999411,357.90063970000483,355.2431815000018,355.2431815000018,355.2431815000018,355.2431815000018,,old_stationery_22.png,102,1.0,1.6361637000227347,,025,00,2024-11-28_15h45.04.680,Surprise recog test,2023.1.3,59.95372772353865,
102,0,102,0,,,,,,,,,,,,,,,,,,,,,,,,,,,,,,,,,,359.6497809999855,360.6820443000179,357.90063970000483,357.90063970000483,357.90063970000483,357.90063970000483,,old_sceneOut_23.png,103,5.0,1.7525559000205249,,025,00,2024-11-28_15h45.04.680,Surprise recog test,2023.1.3,59.95372772353865,
103,0,103,0,,,,,,,,,,,,,,,,,,,,,,,,,,,,,,,,,,362.111926499987,363.12489410000853,360.6820443000179,360.6820443000179,360.6820443000179,360.6820443000179,,old_sceneIn_20.png,104,5.0,1.431179599952884,,025,00,2024-11-28_15h45.04.680,Surprise recog test,2023.1.3,59.95372772353865,
104,0,104,0,,,,,,,,,,,,,,,,,,,,,,,,,,,,,,,,,,364.9878685999429,366.0213039999362,363.12489410000853,363.12489410000853,363.12489410000853,363.12489410000853,,new_fruit_4.png,105,3.0,1.8609870000509545,,025,00,2024-11-28_15h45.04.680,Surprise recog test,2023.1.3,59.95372772353865,
105,0,105,0,,,,,,,,,,,,,,,,,,,,,,,,,,,,,,,,,,368.49494459992275,369.50862139998935,366.0213039999362,366.0213039999362,366.0213039999362,366.0213039999362,,new_fruit_37.png,106,2.0,2.4759807999944314,,025,00,2024-11-28_15h45.04.680,Surprise recog test,2023.1.3,59.95372772353865,
106,0,106,0,,,,,,,,,,,,,,,,,,,,,,,,,,,,,,,,,,372.11420740000904,373.12925019999966,369.50862139998935,369.50862139998935,369.50862139998935,369.50862139998935,,new_stationery_20.png,107,5.0,2.600707900011912,,025,00,2024-11-28_15h45.04.680,Surprise recog test,2023.1.3,59.95372772353865,
107,0,107,0,,,,,,,,,,,,,,,,,,,,,,,,,,,,,,,,,,374.18284639995545,375.211335400003,373.12925019999966,373.12925019999966,373.12925019999966,373.12925019999966,,old_sceneIn_33.png,108,5.0,1.0503516999306157,,025,00,2024-11-28_15h45.04.680,Surprise recog test,2023.1.3,59.95372772353865,
108,0,108,0,,,,,,,,,,,,,,,,,,,,,,,,,,,,,,,,,,376.56184239999857,,375.211335400003,375.211335400003,375.211335400003,375.211335400003,,new_sceneOut_13.png,109,5.0,1.3523111999966204,,025,00,2024-11-28_15h45.04.680,Surprise recog test,2023.1.3,59.95372772353865,
109,0,109,0,,,,,,,,,,,,,,,,,,,,,,,,,,,,,,,,,,378.97926599998027,,377.59543109999504,377.59543109999504,377.59543109999504,377.59543109999504,,new_sceneIn_42.png,110,5.0,1.3869345999555662,,025,00,2024-11-28_15h45.04.680,Surprise recog test,2023.1.3,59.95372772353865,
110,0,110,0,,,,,,,,,,,,,,,,,,,,,,,,,,,,,,,,,,381.99872559995856,,380.00889699999243,380.00889699999243,380.00889699999243,380.00889699999243,,new_stationery_23.png,111,1.0,1.9912677000975236,,025,00,2024-11-28_15h45.04.680,Surprise recog test,2023.1.3,59.95372772353865,
111,0,111,0,,,,,,,,,,,,,,,,,,,,,,,,,,,,,,,,,,384.69204520003404,385.70651619997807,383.0176281000022,383.0176281000022,383.0176281000022,383.0176281000022,,old_stationery_13.png,112,1.0,1.6698332999367267,,025,00,2024-11-28_15h45.04.680,Surprise recog test,2023.1.3,59.95372772353865,
112,0,112,0,,,,,,,,,,,,,,,,,,,,,,,,,,,,,,,,,,387.25034529995173,388.2584964999696,385.70651619997807,385.70651619997807,385.70651619997807,385.70651619997807,,new_sceneIn_47.png,113,5.0,1.5384106999263167,,025,00,2024-11-28_15h45.04.680,Surprise recog test,2023.1.3,59.95372772353865,
113,0,113,0,,,,,,,,,,,,,,,,,,,,,,,,,,,,,,,,,,390.0898093000287,,388.2584964999696,388.2584964999696,388.2584964999696,388.2584964999696,,old_stationery_46.png,114,1.0,1.8276101000374183,,025,00,2024-11-28_15h45.04.680,Surprise recog test,2023.1.3,59.95372772353865,
114,0,114,0,,,,,,,,,,,,,,,,,,,,,,,,,,,,,,,,,,392.37337739998475,,391.1190231000073,391.1190231000073,391.1190231000073,391.1190231000073,,old_sceneOut_20.png,115,5.0,1.25656909996178,,025,00,2024-11-28_15h45.04.680,Surprise recog test,2023.1.3,59.95372772353865,
115,0,115,0,,,,,,,,,,,,,,,,,,,,,,,,,,,,,,,,,,395.79837239999324,396.8270163999405,393.40442759997677,393.40442759997677,393.40442759997677,393.40442759997677,,old_fruit_38.png,116,2.0,2.3928049000678584,,025,00,2024-11-28_15h45.04.680,Surprise recog test,2023.1.3,59.95372772353865,
116,0,116,0,,,,,,,,,,,,,,,,,,,,,,,,,,,,,,,,,,398.482462999993,399.50126679998357,396.8270163999405,396.8270163999405,396.8270163999405,396.8270163999405,,new_sceneIn_43.png,117,5.0,1.6558044000994414,,025,00,2024-11-28_15h45.04.680,Surprise recog test,2023.1.3,59.95372772353865,
117,0,117,0,,,,,,,,,,,,,,,,,,,,,,,,,,,,,,,,,,400.85618679993786,401.8844693999272,399.50126679998357,399.50126679998357,399.50126679998357,399.50126679998357,,old_stationery_40.png,118,1.0,1.3503052999731153,,025,00,2024-11-28_15h45.04.680,Surprise recog test,2023.1.3,59.95372772353865,
118,0,118,0,,,,,,,,,,,,,,,,,,,,,,,,,,,,,,,,,,405.0598744000308,406.091177699971,401.8844693999272,401.8844693999272,401.8844693999272,401.8844693999272,,old_sceneIn_24.png,119,4.0,3.174361399956979,,025,00,2024-11-28_15h45.04.680,Surprise recog test,2023.1.3,59.95372772353865,
119,0,119,0,,,,,,,,,,,,,,,,,,,,,,,,,,,,,,,,,,408.2927667000331,409.31746169994585,406.091177699971,406.091177699971,406.091177699971,406.091177699971,,old_sceneIn_35.png,120,5.0,2.205135100055486,,025,00,2024-11-28_15h45.04.680,Surprise recog test,2023.1.3,59.95372772353865,
120,0,120,0,,,,,,,,,,,,,,,,,,,,,,,,,,,,,,,,,,410.5331368999323,411.55405399994925,409.31746169994585,409.31746169994585,409.31746169994585,409.31746169994585,,old_stationery_44.png,121,1.0,1.217383100069128,,025,00,2024-11-28_15h45.04.680,Surprise recog test,2023.1.3,59.95372772353865,
121,0,121,0,,,,,,,,,,,,,,,,,,,,,,,,,,,,,,,,,,413.0122038000263,414.041772400029,411.55405399994925,411.55405399994925,411.55405399994925,411.55405399994925,,new_sceneIn_13.png,122,5.0,1.4555743000237271,,025,00,2024-11-28_15h45.04.680,Surprise recog test,2023.1.3,59.95372772353865,
122,0,122,0,,,,,,,,,,,,,,,,,,,,,,,,,,,,,,,,,,414.85567690001335,415.87099139997736,414.041772400029,414.041772400029,414.041772400029,414.041772400029,,new_sceneIn_30.png,123,5.0,0.8140603000065312,,025,00,2024-11-28_15h45.04.680,Surprise recog test,2023.1.3,59.95372772353865,
123,0,123,0,,,,,,,,,,,,,,,,,,,,,,,,,,,,,,,,,,418.30752949998714,419.32744779996574,415.87099139997736,415.87099139997736,415.87099139997736,415.87099139997736,,new_stationery_18.png,124,5.0,2.437861999962479,,025,00,2024-11-28_15h45.04.680,Surprise recog test,2023.1.3,59.95372772353865,
124,0,124,0,,,,,,,,,,,,,,,,,,,,,,,,,,,,,,,,,,420.1628894000314,,419.32744779996574,419.32744779996574,419.32744779996574,419.32744779996574,,old_sceneIn_19.png,125,5.0,0.8370893000392243,,025,00,2024-11-28_15h45.04.680,Surprise recog test,2023.1.3,59.95372772353865,
125,0,125,0,,,,,,,,,,,,,,,,,,,,,,,,,,,,,,,,,,423.7721298999386,424.7895454999525,421.20058469998185,421.20058469998185,421.20058469998185,421.20058469998185,,new_fruit_13.png,126,3.0,2.57313720008824,,025,00,2024-11-28_15h45.04.680,Surprise recog test,2023.1.3,59.95372772353865,
126,0,126,0,,,,,,,,,,,,,,,,,,,,,,,,,,,,,,,,,,427.67549469997175,428.6922832999844,424.7895454999525,424.7895454999525,424.7895454999525,424.7895454999525,,new_fruit_18.png,127,5.0,2.8796563999494538,,025,00,2024-11-28_15h45.04.680,Surprise recog test,2023.1.3,59.95372772353865,
127,0,127,0,,,,,,,,,,,,,,,,,,,,,,,,,,,,,,,,,,429.53073989995755,430.5503289999906,428.6922832999844,428.6922832999844,428.6922832999844,428.6922832999844,,old_sceneOut_24.png,128,5.0,0.8319852999411523,,025,00,2024-11-28_15h45.04.680,Surprise recog test,2023.1.3,59.95372772353865,
128,0,128,0,,,,,,,,,,,,,,,,,,,,,,,,,,,,,,,,,,431.85371129994746,432.8736470999429,430.5503289999906,430.5503289999906,430.5503289999906,430.5503289999906,,old_fruit_41.png,129,5.0,1.3028048999840394,,025,00,2024-11-28_15h45.04.680,Surprise recog test,2023.1.3,59.95372772353865,
129,0,129,0,,,,,,,,,,,,,,,,,,,,,,,,,,,,,,,,,,434.74080189992674,435.7482080999762,432.8736470999429,432.8736470999429,432.8736470999429,432.8736470999429,,old_stationery_19.png,130,1.0,1.8688237000023946,,025,00,2024-11-28_15h45.04.680,Surprise recog test,2023.1.3,59.95372772353865,
130,0,130,0,,,,,,,,,,,,,,,,,,,,,,,,,,,,,,,,,,437.36846619995777,438.3824443999911,435.7482080999762,435.7482080999762,435.7482080999762,435.7482080999762,,new_sceneOut_29.png,131,5.0,1.6155242999084294,,025,00,2024-11-28_15h45.04.680,Surprise recog test,2023.1.3,59.95372772353865,
131,0,131,0,,,,,,,,,,,,,,,,,,,,,,,,,,,,,,,,,,440.5442137999926,441.56646370003,438.3824443999911,438.3824443999911,438.3824443999911,438.3824443999911,,new_stationery_50.png,132,1.0,2.150986499967985,,025,00,2024-11-28_15h45.04.680,Surprise recog test,2023.1.3,59.95372772353865,
132,0,132,0,,,,,,,,,,,,,,,,,,,,,,,,,,,,,,,,,,444.4671274999855,,441.56646370003,441.56646370003,441.56646370003,441.56646370003,,old_fruit_46.png,133,1.0,2.9038373000221327,,025,00,2024-11-28_15h45.04.680,Surprise recog test,2023.1.3,59.95372772353865,
133,0,133,0,,,,,,,,,,,,,,,,,,,,,,,,,,,,,,,,,,447.69035719998647,448.70664819993544,445.5049778999528,445.5049778999528,445.5049778999528,445.5049778999528,,new_fruit_41.png,134,4.0,2.190083699999377,,025,00,2024-11-28_15h45.04.680,Surprise recog test,2023.1.3,59.95372772353865,
134,0,134,0,,,,,,,,,,,,,,,,,,,,,,,,,,,,,,,,,,449.9316587999929,450.94325419992674,448.70664819993544,448.70664819993544,448.70664819993544,448.70664819993544,,new_sceneIn_28.png,135,5.0,1.2217867999570444,,025,00,2024-11-28_15h45.04.680,Surprise recog test,2023.1.3,59.95372772353865,
135,0,135,0,,,,,,,,,,,,,,,,,,,,,,,,,,,,,,,,,,453.4334560999414,454.44694049993996,450.94325419992674,450.94325419992674,450.94325419992674,450.94325419992674,,old_sceneIn_31.png,136,1.0,2.485763000091538,,025,00,2024-11-28_15h45.04.680,Surprise recog test,2023.1.3,59.95372772353865,
136,0,136,0,,,,,,,,,,,,,,,,,,,,,,,,,,,,,,,,,,456.69092379999347,457.7108719999669,454.44694049993996,454.44694049993996,454.44694049993996,454.44694049993996,,old_fruit_13.png,137,2.0,2.23453460005112,,025,00,2024-11-28_15h45.04.680,Surprise recog test,2023.1.3,59.95372772353865,
137,0,137,0,,,,,,,,,,,,,,,,,,,,,,,,,,,,,,,,,,459.3261232000077,460.34686569997575,457.7108719999669,457.7108719999669,457.7108719999669,457.7108719999669,,old_sceneOut_41.png,138,5.0,1.6130027000326663,,025,00,2024-11-28_15h45.04.680,Surprise recog test,2023.1.3,59.95372772353865,
138,0,138,0,,,,,,,,,,,,,,,,,,,,,,,,,,,,,,,,,,462.85623029991984,463.88446640002076,460.34686569997575,460.34686569997575,460.34686569997575,460.34686569997575,,new_stationery_47.png,139,5.0,2.5118905999697745,,025,00,2024-11-28_15h45.04.680,Surprise recog test,2023.1.3,59.95372772353865,
139,0,139,0,,,,,,,,,,,,,,,,,,,,,,,,,,,,,,,,,,465.4823847999796,466.5044766999781,463.88446640002076,463.88446640002076,463.88446640002076,463.88446640002076,,new_stationery_28.png,140,1.0,1.6009423000505194,,025,00,2024-11-28_15h45.04.680,Surprise recog test,2023.1.3,59.95372772353865,
140,0,140,0,,,,,,,,,,,,,,,,,,,,,,,,,,,,,,,,,,467.7853474000003,,466.5044766999781,466.5044766999781,466.5044766999781,466.5044766999781,,old_sceneIn_50.png,141,5.0,1.2826891000149772,,025,00,2024-11-28_15h45.04.680,Surprise recog test,2023.1.3,59.95372772353865,
141,0,141,0,,,,,,,,,,,,,,,,,,,,,,,,,,,,,,,,,,469.67436770000495,470.7065834000241,468.8152576999273,468.8152576999273,468.8152576999273,468.8152576999273,,new_sceneIn_39.png,142,5.0,0.8614570000208914,,025,00,2024-11-28_15h45.04.680,Surprise recog test,2023.1.3,59.95372772353865,
142,0,142,0,,,,,,,,,,,,,,,,,,,,,,,,,,,,,,,,,,472.4711574999383,473.47878919995856,470.7065834000241,470.7065834000241,470.7065834000241,470.7065834000241,,old_stationery_26.png,143,1.0,1.7671276000328362,,025,00,2024-11-28_15h45.04.680,Surprise recog test,2023.1.3,59.95372772353865,
143,0,143,0,,,,,,,,,,,,,,,,,,,,,,,,,,,,,,,,,,475.0525902999798,476.0640893999953,473.47878919995856,473.47878919995856,473.47878919995856,473.47878919995856,,old_sceneOut_19.png,144,5.0,1.5684080999344587,,025,00,2024-11-28_15h45.04.680,Surprise recog test,2023.1.3,59.95372772353865,
144,0,144,0,,,,,,,,,,,,,,,,,,,,,,,,,,,,,,,,,,476.95067960000597,477.97973719995935,476.0640893999953,476.0640893999953,476.0640893999953,476.0640893999953,,old_sceneOut_40.png,145,5.0,0.8833145000971854,,025,00,2024-11-28_15h45.04.680,Surprise recog test,2023.1.3,59.95372772353865,
145,0,145,0,,,,,,,,,,,,,,,,,,,,,,,,,,,,,,,,,,479.49319099995773,480.51412790000904,477.97973719995935,477.97973719995935,477.97973719995935,477.97973719995935,,old_sceneOut_45.png,146,5.0,1.510449800058268,,025,00,2024-11-28_15h45.04.680,Surprise recog test,2023.1.3,59.95372772353865,
146,0,146,0,,,,,,,,,,,,,,,,,,,,,,,,,,,,,,,,,,482.5829318999313,,480.51412790000904,480.51412790000904,480.51412790000904,480.51412790000904,,new_stationery_31.png,147,5.0,2.067363299895078,,025,00,2024-11-28_15h45.04.680,Surprise recog test,2023.1.3,59.95372772353865,
147,0,147,0,,,,,,,,,,,,,,,,,,,,,,,,,,,,,,,,,,484.7971516000107,485.8179018999217,483.6162330999505,483.6162330999505,483.6162330999505,483.6162330999505,,new_stationery_10.png,148,5.0,1.1827473999001086,,025,00,2024-11-28_15h45.04.680,Surprise recog test,2023.1.3,59.95372772353865,
148,0,148,0,,,,,,,,,,,,,,,,,,,,,,,,,,,,,,,,,,488.45901089999825,489.48313659999985,485.8179018999217,485.8179018999217,485.8179018999217,485.8179018999217,,new_fruit_44.png,149,5.0,2.643037399975583,,025,00,2024-11-28_15h45.04.680,Surprise recog test,2023.1.3,59.95372772353865,
149,0,149,0,,,,,,,,,,,,,,,,,,,,,,,,,,,,,,,,,,491.7992005000124,492.81172090000473,489.48313659999985,489.48313659999985,489.48313659999985,489.48313659999985,,old_stationery_15.png,150,1.0,2.318020400009118,,025,00,2024-11-28_15h45.04.680,Surprise recog test,2023.1.3,59.95372772353865,
150,0,150,0,,,,,,,,,,,,,,,,,,,,,,,,,,,,,,,,,,494.75097789999563,495.77253620000556,492.81172090000473,492.81172090000473,492.81172090000473,492.81172090000473,,new_stationery_33.png,151,5.0,1.9354856999125332,,025,00,2024-11-28_15h45.04.680,Surprise recog test,2023.1.3,59.95372772353865,
151,0,151,0,,,,,,,,,,,,,,,,,,,,,,,,,,,,,,,,,,497.8075793000171,498.8171811000211,495.77253620000556,495.77253620000556,495.77253620000556,495.77253620000556,,old_sceneIn_8.png,152,5.0,2.03625230002217,,025,00,2024-11-28_15h45.04.680,Surprise recog test,2023.1.3,59.95372772353865,
152,0,152,0,,,,,,,,,,,,,,,,,,,,,,,,,,,,,,,,,,499.9851648999611,501.00020040001255,498.8171811000211,498.8171811000211,498.8171811000211,498.8171811000211,,old_stationery_20.png,153,5.0,1.1641268999082968,,025,00,2024-11-28_15h45.04.680,Surprise recog test,2023.1.3,59.95372772353865,
153,0,153,0,,,,,,,,,,,,,,,,,,,,,,,,,,,,,,,,,,502.75379280000925,503.7702771000331,501.00020040001255,501.00020040001255,501.00020040001255,501.00020040001255,,old_sceneIn_12.png,154,5.0,1.7497440000297502,,025,00,2024-11-28_15h45.04.680,Surprise recog test,2023.1.3,59.95372772353865,
154,0,154,0,,,,,,,,,,,,,,,,,,,,,,,,,,,,,,,,,,504.7175320999231,,503.7702771000331,503.7702771000331,503.7702771000331,503.7702771000331,,old_sceneOut_13.png,155,5.0,0.942662899964489,,025,00,2024-11-28_15h45.04.680,Surprise recog test,2023.1.3,59.95372772353865,
155,0,155,0,,,,,,,,,,,,,,,,,,,,,,,,,,,,,,,,,,506.51700290001463,507.5311347999377,505.7386061999714,505.7386061999714,505.7386061999714,505.7386061999714,,new_sceneIn_29.png,156,5.0,0.7742431999649853,,025,00,2024-11-28_15h45.04.680,Surprise recog test,2023.1.3,59.95372772353865,
156,0,156,0,,,,,,,,,,,,,,,,,,,,,,,,,,,,,,,,,,508.4849387999857,509.49767860001884,507.5311347999377,507.5311347999377,507.5311347999377,507.5311347999377,,old_fruit_10.png,157,5.0,0.9546550000086427,,025,00,2024-11-28_15h45.04.680,Surprise recog test,2023.1.3,59.95372772353865,
157,0,157,0,,,,,,,,,,,,,,,,,,,,,,,,,,,,,,,,,,511.4398364999797,,509.49767860001884,509.49767860001884,509.49767860001884,509.49767860001884,,new_fruit_7.png,158,5.0,1.943313300027512,,025,00,2024-11-28_15h45.04.680,Surprise recog test,2023.1.3,59.95372772353865,
158,0,158,0,,,,,,,,,,,,,,,,,,,,,,,,,,,,,,,,,,514.2751388000324,,512.4679280000273,512.4679280000273,512.4679280000273,512.4679280000273,,new_stationery_35.png,159,1.0,1.808184599969536,,025,00,2024-11-28_15h45.04.680,Surprise recog test,2023.1.3,59.95372772353865,
159,0,159,0,,,,,,,,,,,,,,,,,,,,,,,,,,,,,,,,,,516.9400543000083,517.9464515999425,515.3132131999591,515.3132131999591,515.3132131999591,515.3132131999591,,new_stationery_13.png,160,5.0,1.6318966000108048,,025,00,2024-11-28_15h45.04.680,Surprise recog test,2023.1.3,59.95372772353865,
160,0,160,0,,,,,,,,,,,,,,,,,,,,,,,,,,,,,,,,,,518.670904199942,519.6908767999848,517.9464515999425,517.9464515999425,517.9464515999425,517.9464515999425,,new_sceneOut_9.png,161,5.0,0.721097799949348,,025,00,2024-11-28_15h45.04.680,Surprise recog test,2023.1.3,59.95372772353865,
161,0,161,0,,,,,,,,,,,,,,,,,,,,,,,,,,,,,,,,,,520.8750384999439,521.8958557000151,519.6908767999848,519.6908767999848,519.6908767999848,519.6908767999848,,new_stationery_46.png,162,5.0,1.1856610999675468,,025,00,2024-11-28_15h45.04.680,Surprise recog test,2023.1.3,59.95372772353865,
162,0,162,0,,,,,,,,,,,,,,,,,,,,,,,,,,,,,,,,,,522.9316589999944,,521.8958557000151,521.8958557000151,521.8958557000151,521.8958557000151,,old_sceneOut_6.png,163,5.0,1.0371277999365702,,025,00,2024-11-28_15h45.04.680,Surprise recog test,2023.1.3,59.95372772353865,
163,0,163,0,,,,,,,,,,,,,,,,,,,,,,,,,,,,,,,,,,524.9809029999888,525.9889017000096,523.9536333000287,523.9536333000287,523.9536333000287,523.9536333000287,,old_sceneIn_2.png,164,5.0,1.0167780999327078,,025,00,2024-11-28_15h45.04.680,Surprise recog test,2023.1.3,59.95372772353865,
164,0,164,0,,,,,,,,,,,,,,,,,,,,,,,,,,,,,,,,,,526.9979142999509,528.015081099933,525.9889017000096,525.9889017000096,525.9889017000096,525.9889017000096,,old_sceneIn_1.png,165,5.0,1.0039863999700174,,025,00,2024-11-28_15h45.04.680,Surprise recog test,2023.1.3,59.95372772353865,
165,0,165,0,,,,,,,,,,,,,,,,,,,,,,,,,,,,,,,,,,529.1482129999204,530.1597981000086,528.015081099933,528.015081099933,528.015081099933,528.015081099933,,new_sceneIn_50.png,166,5.0,1.1331876999465749,,025,00,2024-11-28_15h45.04.680,Surprise recog test,2023.1.3,59.95372772353865,
166,0,166,0,,,,,,,,,,,,,,,,,,,,,,,,,,,,,,,,,,531.1772376999725,532.1931684999727,530.1597981000086,530.1597981000086,530.1597981000086,530.1597981000086,,new_sceneIn_7.png,167,5.0,1.0109409000724554,,025,00,2024-11-28_15h45.04.680,Surprise recog test,2023.1.3,59.95372772353865,
167,0,167,0,,,,,,,,,,,,,,,,,,,,,,,,,,,,,,,,,,534.6040361999767,535.6213365999283,532.1931684999727,532.1931684999727,532.1931684999727,532.1931684999727,,new_fruit_42.png,168,5.0,2.4044304999988526,,025,00,2024-11-28_15h45.04.680,Surprise recog test,2023.1.3,59.95372772353865,
168,0,168,0,,,,,,,,,,,,,,,,,,,,,,,,,,,,,,,,,,536.2881023000227,537.3110674000345,535.6213365999283,535.6213365999283,535.6213365999283,535.6213365999283,,old_sceneOut_31.png,169,5.0,0.6689530001021922,,025,00,2024-11-28_15h45.04.680,Surprise recog test,2023.1.3,59.95372772353865,
169,0,169,0,,,,,,,,,,,,,,,,,,,,,,,,,,,,,,,,,,538.3269861999433,,537.3110674000345,537.3110674000345,537.3110674000345,537.3110674000345,,new_sceneOut_42.png,170,5.0,1.0149368999991566,,025,00,2024-11-28_15h45.04.680,Surprise recog test,2023.1.3,59.95372772353865,
170,0,170,0,,,,,,,,,,,,,,,,,,,,,,,,,,,,,,,,,,540.5659426000202,541.6037502000108,539.3498086000327,539.3498086000327,539.3498086000327,539.3498086000327,,old_sceneOut_10.png,171,5.0,1.1990086000878364,,025,00,2024-11-28_15h45.04.680,Surprise recog test,2023.1.3,59.95372772353865,
171,0,171,0,,,,,,,,,,,,,,,,,,,,,,,,,,,,,,,,,,543.0223158999579,544.0370926000178,541.6037502000108,541.6037502000108,541.6037502000108,541.6037502000108,,new_sceneIn_48.png,172,5.0,1.4244502000510693,,025,00,2024-11-28_15h45.04.680,Surprise recog test,2023.1.3,59.95372772353865,
172,0,172,0,,,,,,,,,,,,,,,,,,,,,,,,,,,,,,,,,,544.974402199965,545.9949545999989,544.0370926000178,544.0370926000178,544.0370926000178,544.0370926000178,,new_sceneOut_44.png,173,5.0,0.930334800039418,,025,00,2024-11-28_15h45.04.680,Surprise recog test,2023.1.3,59.95372772353865,
173,0,173,0,,,,,,,,,,,,,,,,,,,,,,,,,,,,,,,,,,550.3827759999549,551.400582500035,545.9949545999989,545.9949545999989,545.9949545999989,545.9949545999989,,new_fruit_11.png,174,4.0,4.388453899999149,,025,00,2024-11-28_15h45.04.680,Surprise recog test,2023.1.3,59.95372772353865,
174,0,174,0,,,,,,,,,,,,,,,,,,,,,,,,,,,,,,,,,,552.9175424999557,553.9466262999922,551.400582500035,551.400582500035,551.400582500035,551.400582500035,,old_stationery_49.png,175,1.0,1.5177616000873968,,025,00,2024-11-28_15h45.04.680,Surprise recog test,2023.1.3,59.95372772353865,
175,0,175,0,,,,,,,,,,,,,,,,,,,,,,,,,,,,,,,,,,557.5127955999924,558.5470899000065,553.9466262999922,553.9466262999922,553.9466262999922,553.9466262999922,,old_fruit_9.png,176,3.0,3.5691702999174595,,025,00,2024-11-28_15h45.04.680,Surprise recog test,2023.1.3,59.95372772353865,
176,0,176,0,,,,,,,,,,,,,,,,,,,,,,,,,,,,,,,,,,560.2200508000096,561.2445403999882,558.5470899000065,558.5470899000065,558.5470899000065,558.5470899000065,,new_fruit_26.png,177,1.0,1.6762202000245452,,025,00,2024-11-28_15h45.04.680,Surprise recog test,2023.1.3,59.95372772353865,
177,0,177,0,,,,,,,,,,,,,,,,,,,,,,,,,,,,,,,,,,563.1803190999199,564.1904103999259,561.2445403999882,561.2445403999882,561.2445403999882,561.2445403999882,,old_sceneIn_45.png,178,5.0,1.9390887999907136,,025,00,2024-11-28_15h45.04.680,Surprise recog test,2023.1.3,59.95372772353865,
178,0,178,0,,,,,,,,,,,,,,,,,,,,,,,,,,,,,,,,,,564.9253304000013,565.9541846000357,564.1904103999259,564.1904103999259,564.1904103999259,564.1904103999259,,old_sceneIn_47.png,179,5.0,0.7344591999426484,,025,00,2024-11-28_15h45.04.680,Surprise recog test,2023.1.3,59.95372772353865,
179,0,179,0,,,,,,,,,,,,,,,,,,,,,,,,,,,,,,,,,,567.2992928000167,568.3033906000201,565.9541846000357,565.9541846000357,565.9541846000357,565.9541846000357,,old_stationery_48.png,180,1.0,1.3404540999326855,,025,00,2024-11-28_15h45.04.680,Surprise recog test,2023.1.3,59.95372772353865,
180,0,180,0,,,,,,,,,,,,,,,,,,,,,,,,,,,,,,,,,,569.1754112000344,570.2025075999554,568.3033906000201,568.3033906000201,568.3033906000201,568.3033906000201,,old_stationery_9.png,181,1.0,0.8652434999821708,,025,00,2024-11-28_15h45.04.680,Surprise recog test,2023.1.3,59.95372772353865,
181,0,181,0,,,,,,,,,,,,,,,,,,,,,,,,,,,,,,,,,,572.9539311999688,573.9706045000348,570.2025075999554,570.2025075999554,570.2025075999554,570.2025075999554,,old_fruit_37.png,182,5.0,2.74709270009771,,025,00,2024-11-28_15h45.04.680,Surprise recog test,2023.1.3,59.95372772353865,
182,0,182,0,,,,,,,,,,,,,,,,,,,,,,,,,,,,,,,,,,575.6097112999996,,573.9706045000348,573.9706045000348,573.9706045000348,573.9706045000348,,old_stationery_39.png,183,1.0,1.640694799949415,,025,00,2024-11-28_15h45.04.680,Surprise recog test,2023.1.3,59.95372772353865,
183,0,183,0,,,,,,,,,,,,,,,,,,,,,,,,,,,,,,,,,,577.9705143999308,578.9890613999451,576.6460514999926,576.6460514999926,576.6460514999926,576.6460514999926,,new_sceneIn_21.png,184,5.0,1.327722700079903,,025,00,2024-11-28_15h45.04.680,Surprise recog test,2023.1.3,59.95372772353865,
184,0,184,0,,,,,,,,,,,,,,,,,,,,,,,,,,,,,,,,,,579.7015037999954,580.7273478999268,578.9890613999451,578.9890613999451,578.9890613999451,578.9890613999451,,old_sceneOut_21.png,185,5.0,0.7132433999795467,,025,00,2024-11-28_15h45.04.680,Surprise recog test,2023.1.3,59.95372772353865,
185,0,185,0,,,,,,,,,,,,,,,,,,,,,,,,,,,,,,,,,,584.8646894999547,585.8791125999996,580.7273478999268,580.7273478999268,580.7273478999268,580.7273478999268,,old_fruit_2.png,186,3.0,4.136136300046928,,025,00,2024-11-28_15h45.04.680,Surprise recog test,2023.1.3,59.95372772353865,
186,0,186,0,,,,,,,,,,,,,,,,,,,,,,,,,,,,,,,,,,587.8880336999428,588.910182600026,585.8791125999996,585.8791125999996,585.8791125999996,585.8791125999996,,new_fruit_34.png,187,5.0,2.01110499992501,,025,00,2024-11-28_15h45.04.680,Surprise recog test,2023.1.3,59.95372772353865,
187,0,187,0,,,,,,,,,,,,,,,,,,,,,,,,,,,,,,,,,,589.7459268999519,590.755833299947,588.910182600026,588.910182600026,588.910182600026,588.910182600026,,old_sceneIn_38.png,188,5.0,0.8331861000042409,,025,00,2024-11-28_15h45.04.680,Surprise recog test,2023.1.3,59.95372772353865,
188,0,188,0,,,,,,,,,,,,,,,,,,,,,,,,,,,,,,,,,,594.5723309000023,595.5773191000335,590.755833299947,590.755833299947,590.755833299947,590.755833299947,,old_stationery_43.png,189,5.0,3.8118660000618547,,025,00,2024-11-28_15h45.04.680,Surprise recog test,2023.1.3,59.95372772353865,
189,0,189,0,,,,,,,,,,,,,,,,,,,,,,,,,,,,,,,,,,596.4733219000045,597.4787136999657,595.5773191000335,595.5773191000335,595.5773191000335,595.5773191000335,,new_sceneIn_20.png,190,5.0,0.8862108000321314,,025,00,2024-11-28_15h45.04.680,Surprise recog test,2023.1.3,59.95372772353865,
190,0,190,0,,,,,,,,,,,,,,,,,,,,,,,,,,,,,,,,,,598.2915639999555,599.2962715999456,597.4787136999657,597.4787136999657,597.4787136999657,597.4787136999657,,new_sceneOut_12.png,191,5.0,0.803057000041008,,025,00,2024-11-28_15h45.04.680,Surprise recog test,2023.1.3,59.95372772353865,
191,0,191,0,,,,,,,,,,,,,,,,,,,,,,,,,,,,,,,,,,602.8329152999213,603.8502798000118,599.2962715999456,599.2962715999456,599.2962715999456,599.2962715999456,,old_stationery_25.png,192,1.0,3.5332135999342427,,025,00,2024-11-28_15h45.04.680,Surprise recog test,2023.1.3,59.95372772353865,
192,0,192,0,,,,,,,,,,,,,,,,,,,,,,,,,,,,,,,,,,605.3807031000033,606.3860788999591,603.8502798000118,603.8502798000118,603.8502798000118,603.8502798000118,,old_sceneIn_46.png,193,5.0,1.520471700001508,,025,00,2024-11-28_15h45.04.680,Surprise recog test,2023.1.3,59.95372772353865,
193,0,193,0,,,,,,,,,,,,,,,,,,,,,,,,,,,,,,,,,,607.1822469999315,608.1864772000117,606.3860788999591,606.3860788999591,606.3860788999591,606.3860788999591,,new_sceneIn_24.png,194,5.0,0.7863326999358833,,025,00,2024-11-28_15h45.04.680,Surprise recog test,2023.1.3,59.95372772353865,
194,0,194,0,,,,,,,,,,,,,,,,,,,,,,,,,,,,,,,,,,610.017920800019,611.0229729999555,608.1864772000117,608.1864772000117,608.1864772000117,608.1864772000117,,new_stationery_12.png,195,5.0,1.820811799960211,,025,00,2024-11-28_15h45.04.680,Surprise recog test,2023.1.3,59.95372772353865,
195,0,195,0,,,,,,,,,,,,,,,,,,,,,,,,,,,,,,,,,,611.6858762999764,612.6906142999651,611.0229729999555,611.0229729999555,611.0229729999555,611.0229729999555,,old_sceneOut_49.png,196,5.0,0.6539527999702841,,025,00,2024-11-28_15h45.04.680,Surprise recog test,2023.1.3,59.95372772353865,
196,0,196,0,,,,,,,,,,,,,,,,,,,,,,,,,,,,,,,,,,613.3374063000083,614.3422106999205,612.6906142999651,612.6906142999651,612.6906142999651,612.6906142999651,,new_sceneOut_46.png,197,5.0,0.636802599998191,,025,00,2024-11-28_15h45.04.680,Surprise recog test,2023.1.3,59.95372772353865,
197,0,197,0,,,,,,,,,,,,,,,,,,,,,,,,,,,,,,,,,,615.4557035999605,616.4603010999272,614.3422106999205,614.3422106999205,614.3422106999205,614.3422106999205,,old_sceneOut_17.png,198,5.0,1.1034670999506488,,025,00,2024-11-28_15h45.04.680,Surprise recog test,2023.1.3,59.95372772353865,
198,0,198,0,,,,,,,,,,,,,,,,,,,,,,,,,,,,,,,,,,617.2906177999685,618.2959826999577,616.4603010999272,616.4603010999272,616.4603010999272,616.4603010999272,,old_sceneIn_36.png,199,5.0,0.8198611999396235,,025,00,2024-11-28_15h45.04.680,Surprise recog test,2023.1.3,59.95372772353865,
199,0,199,0,,,,,,,,,,,,,,,,,,,,,,,,,,,,,,,,,,619.0920638999669,620.0978765999898,618.2959826999577,618.2959826999577,618.2959826999577,618.2959826999577,,old_sceneIn_17.png,200,5.0,0.7866334000136703,,025,00,2024-11-28_15h45.04.680,Surprise recog test,2023.1.3,59.95372772353865,
200,0,200,0,,,,,,,,,,,,,,,,,,,,,,,,,,,,,,,,,,621.477438999922,622.4823153000325,620.0978765999898,620.0978765999898,620.0978765999898,620.0978765999898,,new_sceneIn_27.png,201,5.0,1.3703492999775335,,025,00,2024-11-28_15h45.04.680,Surprise recog test,2023.1.3,59.95372772353865,
201,0,201,0,,,,,,,,,,,,,,,,,,,,,,,,,,,,,,,,,,624.6800119000254,625.6855152000207,622.4823153000325,622.4823153000325,622.4823153000325,622.4823153000325,,new_stationery_48.png,202,5.0,2.1876040999777615,,025,00,2024-11-28_15h45.04.680,Surprise recog test,2023.1.3,59.95372772353865,
202,0,202,0,,,,,,,,,,,,,,,,,,,,,,,,,,,,,,,,,,626.6987372000003,627.7028367000166,625.6855152000207,625.6855152000207,625.6855152000207,625.6855152000207,,old_sceneIn_43.png,203,5.0,1.0030206000665203,,025,00,2024-11-28_15h45.04.680,Surprise recog test,2023.1.3,59.95372772353865,
203,0,203,0,,,,,,,,,,,,,,,,,,,,,,,,,,,,,,,,,,628.4332053000107,629.4380714999279,627.7028367000166,627.7028367000166,627.7028367000166,627.7028367000166,,new_sceneOut_8.png,204,5.0,0.7196540998993441,,025,00,2024-11-28_15h45.04.680,Surprise recog test,2023.1.3,59.95372772353865,
204,0,204,0,,,,,,,,,,,,,,,,,,,,,,,,,,,,,,,,,,630.6349020999623,631.6404933999293,629.4380714999279,629.4380714999279,629.4380714999279,629.4380714999279,,new_fruit_43.png,205,5.0,1.1868368999566883,,025,00,2024-11-28_15h45.04.680,Surprise recog test,2023.1.3,59.95372772353865,
205,0,205,0,,,,,,,,,,,,,,,,,,,,,,,,,,,,,,,,,,632.4864610999357,633.4919401999796,631.6404933999293,631.6404933999293,631.6404933999293,631.6404933999293,,old_sceneIn_37.png,206,5.0,0.8382483999012038,,025,00,2024-11-28_15h45.04.680,Surprise recog test,2023.1.3,59.95372772353865,
206,0,206,0,,,,,,,,,,,,,,,,,,,,,,,,,,,,,,,,,,634.7503404000308,635.7618458999787,633.4919401999796,633.4919401999796,633.4919401999796,633.4919401999796,,new_sceneIn_34.png,207,5.0,1.2521558000007644,,025,00,2024-11-28_15h45.04.680,Surprise recog test,2023.1.3,59.95372772353865,
207,0,207,0,,,,,,,,,,,,,,,,,,,,,,,,,,,,,,,,,,637.5455347999232,638.5767198000103,635.7618458999787,635.7618458999787,635.7618458999787,635.7618458999787,,old_stationery_33.png,208,1.0,1.7801272999495268,,025,00,2024-11-28_15h45.04.680,Surprise recog test,2023.1.3,59.95372772353865,
208,0,208,0,,,,,,,,,,,,,,,,,,,,,,,,,,,,,,,,,,640.201466999948,641.2178065000335,638.5767198000103,638.5767198000103,638.5767198000103,638.5767198000103,,new_stationery_29.png,209,5.0,1.6268944999901578,,025,00,2024-11-28_15h45.04.680,Surprise recog test,2023.1.3,59.95372772353865,
209,0,209,0,,,,,,,,,,,,,,,,,,,,,,,,,,,,,,,,,,642.3624302999815,643.3834573000204,641.2178065000335,641.2178065000335,641.2178065000335,641.2178065000335,,new_sceneIn_36.png,210,5.0,1.1397767999442294,,025,00,2024-11-28_15h45.04.680,Surprise recog test,2023.1.3,59.95372772353865,
210,0,210,0,,,,,,,,,,,,,,,,,,,,,,,,,,,,,,,,,,644.2007261000108,,643.3834573000204,643.3834573000204,643.3834573000204,643.3834573000204,,new_sceneOut_27.png,211,5.0,0.8200485999695957,,025,00,2024-11-28_15h45.04.680,Surprise recog test,2023.1.3,59.95372772353865,
211,0,211,0,,,,,,,,,,,,,,,,,,,,,,,,,,,,,,,,,,646.7228785000043,647.7533143999754,645.2357816000003,645.2357816000003,645.2357816000003,645.2357816000003,,old_sceneIn_32.png,212,5.0,1.4890391000080854,,025,00,2024-11-28_15h45.04.680,Surprise recog test,2023.1.3,59.95372772353865,
212,0,212,0,,,,,,,,,,,,,,,,,,,,,,,,,,,,,,,,,,649.3839352999348,650.4060232000193,647.7533143999754,647.7533143999754,647.7533143999754,647.7533143999754,,old_stationery_18.png,213,1.0,1.626841500052251,,025,00,2024-11-28_15h45.04.680,Surprise recog test,2023.1.3,59.95372772353865,
213,0,213,0,,,,,,,,,,,,,,,,,,,,,,,,,,,,,,,,,,654.6296385999303,655.6583313000156,650.4060232000193,650.4060232000193,650.4060232000193,650.4060232000193,,old_stationery_17.png,214,5.0,4.225684700068086,,025,00,2024-11-28_15h45.04.680,Surprise recog test,2023.1.3,59.95372772353865,
214,0,214,0,,,,,,,,,,,,,,,,,,,,,,,,,,,,,,,,,,656.6079170999583,657.6146125999512,655.6583313000156,655.6583313000156,655.6583313000156,655.6583313000156,,new_sceneIn_32.png,215,5.0,0.951493899920024,,025,00,2024-11-28_15h45.04.680,Surprise recog test,2023.1.3,59.95372772353865,
215,0,215,0,,,,,,,,,,,,,,,,,,,,,,,,,,,,,,,,,,658.677071299986,,657.6146125999512,657.6146125999512,657.6146125999512,657.6146125999512,,new_sceneOut_19.png,216,5.0,1.057578600011766,,025,00,2024-11-28_15h45.04.680,Surprise recog test,2023.1.3,59.95372772353865,
216,0,216,0,,,,,,,,,,,,,,,,,,,,,,,,,,,,,,,,,,661.1436320999637,662.1648566999938,659.6987596999388,659.6987596999388,659.6987596999388,659.6987596999388,,new_stationery_19.png,217,5.0,1.4372815999668092,,025,00,2024-11-28_15h45.04.680,Surprise recog test,2023.1.3,59.95372772353865,
217,0,217,0,,,,,,,,,,,,,,,,,,,,,,,,,,,,,,,,,,663.0889152999735,664.1035071000224,662.1648566999938,662.1648566999938,662.1648566999938,662.1648566999938,,old_sceneIn_18.png,218,5.0,0.9261553999967873,,025,00,2024-11-28_15h45.04.680,Surprise recog test,2023.1.3,59.95372772353865,
218,0,218,0,,,,,,,,,,,,,,,,,,,,,,,,,,,,,,,,,,666.9751552999951,668.0085997999413,664.1035071000224,664.1035071000224,664.1035071000224,664.1035071000224,,new_fruit_5.png,219,2.0,2.867644499987364,,025,00,2024-11-28_15h45.04.680,Surprise recog test,2023.1.3,59.95372772353865,
219,0,219,0,,,,,,,,,,,,,,,,,,,,,,,,,,,,,,,,,,669.6735504999524,670.6957720000064,668.0085997999413,668.0085997999413,668.0085997999413,668.0085997999413,,new_stationery_49.png,220,5.0,1.6678954999661073,,025,00,2024-11-28_15h45.04.680,Surprise recog test,2023.1.3,59.95372772353865,
220,0,220,0,,,,,,,,,,,,,,,,,,,,,,,,,,,,,,,,,,672.7048413000302,673.7110134999966,670.6957720000064,670.6957720000064,670.6957720000064,670.6957720000064,,old_fruit_39.png,221,1.0,2.003119200002402,,025,00,2024-11-28_15h45.04.680,Surprise recog test,2023.1.3,59.95372772353865,
221,0,221,0,,,,,,,,,,,,,,,,,,,,,,,,,,,,,,,,,,675.2921489999862,,673.7110134999966,673.7110134999966,673.7110134999966,673.7110134999966,,new_fruit_23.png,222,2.0,1.5746931000612676,,025,00,2024-11-28_15h45.04.680,Surprise recog test,2023.1.3,59.95372772353865,
222,0,222,0,,,,,,,,,,,,,,,,,,,,,,,,,,,,,,,,,,678.3866430999478,679.3993986999849,676.3226714000339,676.3226714000339,676.3226714000339,676.3226714000339,,old_fruit_4.png,223,4.0,2.063228000071831,,025,00,2024-11-28_15h45.04.680,Surprise recog test,2023.1.3,59.95372772353865,
223,0,223,0,,,,,,,,,,,,,,,,,,,,,,,,,,,,,,,,,,681.4849873000057,682.5024665999226,679.3993986999849,679.3993986999849,679.3993986999849,679.3993986999849,,old_stationery_6.png,224,1.0,2.079109799931757,,025,00,2024-11-28_15h45.04.680,Surprise recog test,2023.1.3,59.95372772353865,
224,0,224,0,,,,,,,,,,,,,,,,,,,,,,,,,,,,,,,,,,684.082283900003,,682.5024665999226,682.5024665999226,682.5024665999226,682.5024665999226,,old_sceneIn_22.png,225,5.0,1.5752603999571875,,025,00,2024-11-28_15h45.04.680,Surprise recog test,2023.1.3,59.95372772353865,
225,0,225,0,,,,,,,,,,,,,,,,,,,,,,,,,,,,,,,,,,686.4220919000218,687.4478540000273,685.1038938999409,685.1038938999409,685.1038938999409,685.1038938999409,,old_sceneIn_41.png,226,5.0,1.3142490000464022,,025,00,2024-11-28_15h45.04.680,Surprise recog test,2023.1.3,59.95372772353865,
226,0,226,0,,,,,,,,,,,,,,,,,,,,,,,,,,,,,,,,,,688.8665749999927,689.8755568999331,687.4478540000273,687.4478540000273,687.4478540000273,687.4478540000273,,new_stationery_1.png,227,5.0,1.4129383000545204,,025,00,2024-11-28_15h45.04.680,Surprise recog test,2023.1.3,59.95372772353865,
227,0,227,0,,,,,,,,,,,,,,,,,,,,,,,,,,,,,,,,,,691.0538286999799,,689.8755568999331,689.8755568999331,689.8755568999331,689.8755568999331,,new_stationery_25.png,228,5.0,1.1743194999871776,,025,00,2024-11-28_15h45.04.680,Surprise recog test,2023.1.3,59.95372772353865,
228,0,228,0,,,,,,,,,,,,,,,,,,,,,,,,,,,,,,,,,,692.7610327999573,693.793202699977,692.0874525000108,692.0874525000108,692.0874525000108,692.0874525000108,,new_sceneIn_2.png,229,5.0,0.672966800048016,,025,00,2024-11-28_15h45.04.680,Surprise recog test,2023.1.3,59.95372772353865,
229,0,229,0,,,,,,,,,,,,,,,,,,,,,,,,,,,,,,,,,,694.6336751999334,695.6582133999327,693.793202699977,693.793202699977,693.793202699977,693.793202699977,,new_sceneOut_45.png,230,5.0,0.8448588999453932,,025,00,2024-11-28_15h45.04.680,Surprise recog test,2023.1.3,59.95372772353865,
230,0,230,0,,,,,,,,,,,,,,,,,,,,,,,,,,,,,,,,,,696.7215544999344,697.7354945000261,695.6582133999327,695.6582133999327,695.6582133999327,695.6582133999327,,new_fruit_47.png,231,5.0,1.0653624000260606,,025,00,2024-11-28_15h45.04.680,Surprise recog test,2023.1.3,59.95372772353865,
231,0,231,0,,,,,,,,,,,,,,,,,,,,,,,,,,,,,,,,,,698.924988499959,699.931497399928,697.7354945000261,697.7354945000261,697.7354945000261,697.7354945000261,,new_fruit_50.png,232,5.0,1.1897317999973893,,025,00,2024-11-28_15h45.04.680,Surprise recog test,2023.1.3,59.95372772353865,
232,0,232,0,,,,,,,,,,,,,,,,,,,,,,,,,,,,,,,,,,701.2892172000138,702.3132927999832,699.931497399928,699.931497399928,699.931497399928,699.931497399928,,new_sceneIn_19.png,233,5.0,1.351426100009121,,025,00,2024-11-28_15h45.04.680,Surprise recog test,2023.1.3,59.95372772353865,
233,0,233,0,,,,,,,,,,,,,,,,,,,,,,,,,,,,,,,,,,706.2148387000198,707.2227682999801,702.3132927999832,702.3132927999832,702.3132927999832,702.3132927999832,,old_fruit_21.png,234,2.0,3.903286000015214,,025,00,2024-11-28_15h45.04.680,Surprise recog test,2023.1.3,59.95372772353865,
234,0,234,0,,,,,,,,,,,,,,,,,,,,,,,,,,,,,,,,,,709.7255644999677,710.7524551999522,707.2227682999801,707.2227682999801,707.2227682999801,707.2227682999801,,new_fruit_8.png,235,1.0,2.4954955000430346,,025,00,2024-11-28_15h45.04.680,Surprise recog test,2023.1.3,59.95372772353865,
235,0,235,0,,,,,,,,,,,,,,,,,,,,,,,,,,,,,,,,,,713.0427133999765,714.0742464999203,710.7524551999522,710.7524551999522,710.7524551999522,710.7524551999522,,new_fruit_46.png,236,5.0,2.291169499978423,,025,00,2024-11-28_15h45.04.680,Surprise recog test,2023.1.3,59.95372772353865,
236,0,236,0,,,,,,,,,,,,,,,,,,,,,,,,,,,,,,,,,,714.7734160999535,715.7931252999697,714.0742464999203,714.0742464999203,714.0742464999203,714.0742464999203,,new_sceneOut_48.png,237,5.0,0.7008309999946505,,025,00,2024-11-28_15h45.04.680,Surprise recog test,2023.1.3,59.95372772353865,
237,0,237,0,,,,,,,,,,,,,,,,,,,,,,,,,,,,,,,,,,717.2570826000301,718.2651614999631,715.7931252999697,715.7931252999697,715.7931252999697,715.7931252999697,,new_fruit_38.png,238,5.0,1.4656383000547066,,025,00,2024-11-28_15h45.04.680,Surprise recog test,2023.1.3,59.95372772353865,
238,0,238,0,,,,,,,,,,,,,,,,,,,,,,,,,,,,,,,,,,719.3887292,720.405519300024,718.2651614999631,718.2651614999631,718.2651614999631,718.2651614999631,,old_sceneOut_46.png,239,5.0,1.1192762000719085,,025,00,2024-11-28_15h45.04.680,Surprise recog test,2023.1.3,59.95372772353865,
239,0,239,0,,,,,,,,,,,,,,,,,,,,,,,,,,,,,,,,,,723.0919912999962,724.1034518999513,720.405519300024,720.405519300024,720.405519300024,720.405519300024,,new_fruit_19.png,240,4.0,2.6840685999486595,,025,00,2024-11-28_15h45.04.680,Surprise recog test,2023.1.3,59.95372772353865,
240,0,240,0,,,,,,,,,,,,,,,,,,,,,,,,,,,,,,,,,,725.3492614999413,,724.1034518999513,724.1034518999513,724.1034518999513,724.1034518999513,,old_sceneIn_6.png,241,5.0,1.2411336000077426,,025,00,2024-11-28_15h45.04.680,Surprise recog test,2023.1.3,59.95372772353865,
241,0,241,0,,,,,,,,,,,,,,,,,,,,,,,,,,,,,,,,,,728.003407799988,,726.3772374999244,726.3772374999244,726.3772374999244,726.3772374999244,,new_stationery_45.png,242,5.0,1.6271469000494108,,025,00,2024-11-28_15h45.04.680,Surprise recog test,2023.1.3,59.95372772353865,
242,0,242,0,,,,,,,,,,,,,,,,,,,,,,,,,,,,,,,,,,729.8661662000231,730.8848405999597,729.024047999992,729.024047999992,729.024047999992,729.024047999992,,new_sceneOut_10.png,243,5.0,0.8381163000594825,,025,00,2024-11-28_15h45.04.680,Surprise recog test,2023.1.3,59.95372772353865,
243,0,243,0,,,,,,,,,,,,,,,,,,,,,,,,,,,,,,,,,,732.7069106999552,,730.8848405999597,730.8848405999597,730.8848405999597,730.8848405999597,,old_fruit_44.png,244,5.0,1.8203997999662533,,025,00,2024-11-28_15h45.04.680,Surprise recog test,2023.1.3,59.95372772353865,
244,0,244,0,,,,,,,,,,,,,,,,,,,,,,,,,,,,,,,,,,734.7814751999686,735.8081177999265,733.7276264999527,733.7276264999527,733.7276264999527,733.7276264999527,,old_sceneOut_4.png,245,5.0,1.0470081999665126,,025,00,2024-11-28_15h45.04.680,Surprise recog test,2023.1.3,59.95372772353865,
245,0,245,0,,,,,,,,,,,,,,,,,,,,,,,,,,,,,,,,,,736.9486857999582,737.9650795999914,735.8081177999265,735.8081177999265,735.8081177999265,735.8081177999265,,new_sceneOut_39.png,246,5.0,1.1409752999898046,,025,00,2024-11-28_15h45.04.680,Surprise recog test,2023.1.3,59.95372772353865,
246,0,246,0,,,,,,,,,,,,,,,,,,,,,,,,,,,,,,,,,,739.5941309999907,,737.9650795999914,737.9650795999914,737.9650795999914,737.9650795999914,,new_fruit_35.png,247,2.0,1.624351599952206,,025,00,2024-11-28_15h45.04.680,Surprise recog test,2023.1.3,59.95372772353865,
247,0,247,0,,,,,,,,,,,,,,,,,,,,,,,,,,,,,,,,,,741.4626581999473,,740.6286879000254,740.6286879000254,740.6286879000254,740.6286879000254,,new_sceneIn_8.png,248,5.0,0.8356869999552146,,025,00,2024-11-28_15h45.04.680,Surprise recog test,2023.1.3,59.95372772353865,
248,0,248,0,,,,,,,,,,,,,,,,,,,,,,,,,,,,,,,,,,744.2878247000044,745.3153276999947,742.491001999937,742.491001999937,742.491001999937,742.491001999937,,new_fruit_9.png,249,1.0,1.7986383000388741,,025,00,2024-11-28_15h45.04.680,Surprise recog test,2023.1.3,59.95372772353865,
249,0,249,0,,,,,,,,,,,,,,,,,,,,,,,,,,,,,,,,,,746.8543627000181,747.8814818999963,745.3153276999947,745.3153276999947,745.3153276999947,745.3153276999947,,new_fruit_1.png,250,5.0,1.539937000023201,,025,00,2024-11-28_15h45.04.680,Surprise recog test,2023.1.3,59.95372772353865,
250,0,250,0,,,,,,,,,,,,,,,,,,,,,,,,,,,,,,,,,,749.6105318999616,750.6290272999322,747.8814818999963,747.8814818999963,747.8814818999963,747.8814818999963,,new_fruit_17.png,251,5.0,1.7298215000191703,,025,00,2024-11-28_15h45.04.680,Surprise recog test,2023.1.3,59.95372772353865,
251,0,251,0,,,,,,,,,,,,,,,,,,,,,,,,,,,,,,,,,,753.5950649000006,754.6205302999588,750.6290272999322,750.6290272999322,750.6290272999322,750.6290272999322,,old_fruit_20.png,252,4.0,2.9663931999821216,,025,00,2024-11-28_15h45.04.680,Surprise recog test,2023.1.3,59.95372772353865,
252,0,252,0,,,,,,,,,,,,,,,,,,,,,,,,,,,,,,,,,,755.8183061999734,756.8428525000345,754.6205302999588,754.6205302999588,754.6205302999588,754.6205302999588,,old_sceneOut_15.png,253,5.0,1.1970834999810904,,025,00,2024-11-28_15h45.04.680,Surprise recog test,2023.1.3,59.95372772353865,
253,0,253,0,,,,,,,,,,,,,,,,,,,,,,,,,,,,,,,,,,758.3494760999456,759.3657320999773,756.8428525000345,756.8428525000345,756.8428525000345,756.8428525000345,,old_fruit_40.png,254,1.0,1.503250600071624,,025,00,2024-11-28_15h45.04.680,Surprise recog test,2023.1.3,59.95372772353865,
254,0,254,0,,,,,,,,,,,,,,,,,,,,,,,,,,,,,,,,,,762.5512728999602,763.5872197999852,759.3657320999773,759.3657320999773,759.3657320999773,759.3657320999773,,new_fruit_14.png,255,5.0,3.1815859000198543,,025,00,2024-11-28_15h45.04.680,Surprise recog test,2023.1.3,59.95372772353865,
255,0,255,0,,,,,,,,,,,,,,,,,,,,,,,,,,,,,,,,,,764.9524899999378,765.9854790000245,763.5872197999852,763.5872197999852,763.5872197999852,763.5872197999852,,old_fruit_11.png,256,1.0,1.3679829000029713,,025,00,2024-11-28_15h45.04.680,Surprise recog test,2023.1.3,59.95372772353865,
256,0,256,0,,,,,,,,,,,,,,,,,,,,,,,,,,,,,,,,,,767.4530441999668,768.4748946999898,765.9854790000245,765.9854790000245,765.9854790000245,765.9854790000245,,old_sceneIn_26.png,257,5.0,1.470738900010474,,025,00,2024-11-28_15h45.04.680,Surprise recog test,2023.1.3,59.95372772353865,
257,0,257,0,,,,,,,,,,,,,,,,,,,,,,,,,,,,,,,,,,770.1130790000316,771.1372012000065,768.4748946999898,768.4748946999898,768.4748946999898,768.4748946999898,,new_fruit_39.png,258,3.0,1.6365555999800563,,025,00,2024-11-28_15h45.04.680,Surprise recog test,2023.1.3,59.95372772353865,
258,0,258,0,,,,,,,,,,,,,,,,,,,,,,,,,,,,,,,,,,772.4931804999942,773.5117989999708,771.1372012000065,771.1372012000065,771.1372012000065,771.1372012000065,,old_sceneIn_40.png,259,5.0,1.3582331000361592,,025,00,2024-11-28_15h45.04.680,Surprise recog test,2023.1.3,59.95372772353865,
259,0,259,0,,,,,,,,,,,,,,,,,,,,,,,,,,,,,,,,,,774.7044168999419,775.7178167999955,773.5117989999708,773.5117989999708,773.5117989999708,773.5117989999708,,new_sceneOut_21.png,260,5.0,1.1886234999401495,,025,00,2024-11-28_15h45.04.680,Surprise recog test,2023.1.3,59.95372772353865,
260,0,260,0,,,,,,,,,,,,,,,,,,,,,,,,,,,,,,,,,,777.4596383000026,,775.7178167999955,775.7178167999955,775.7178167999955,775.7178167999955,,old_stationery_14.png,261,1.0,1.7434588999021798,,025,00,2024-11-28_15h45.04.680,Surprise recog test,2023.1.3,59.95372772353865,
261,0,261,0,,,,,,,,,,,,,,,,,,,,,,,,,,,,,,,,,,779.8121920999838,,778.4811622999841,778.4811622999841,778.4811622999841,778.4811622999841,,new_sceneIn_44.png,262,5.0,1.3259335999609903,,025,00,2024-11-28_15h45.04.680,Surprise recog test,2023.1.3,59.95372772353865,
262,0,262,0,,,,,,,,,,,,,,,,,,,,,,,,,,,,,,,,,,781.9656472000061,782.9966492999811,780.8300219000084,780.8300219000084,780.8300219000084,780.8300219000084,,new_fruit_32.png,263,5.0,1.1322342000203207,,025,00,2024-11-28_15h45.04.680,Surprise recog test,2023.1.3,59.95372772353865,
263,0,263,0,,,,,,,,,,,,,,,,,,,,,,,,,,,,,,,,,,783.8342533999821,784.8678878999781,782.9966492999811,782.9966492999811,782.9966492999811,782.9966492999811,,old_sceneIn_7.png,264,5.0,0.8357269000262022,,025,00,2024-11-28_15h45.04.680,Surprise recog test,2023.1.3,59.95372772353865,
264,0,264,0,,,,,,,,,,,,,,,,,,,,,,,,,,,,,,,,,,785.5685759999324,786.6068739999318,784.8678878999781,784.8678878999781,784.8678878999781,784.8678878999781,,new_sceneOut_35.png,265,5.0,0.7046287000412121,,025,00,2024-11-28_15h45.04.680,Surprise recog test,2023.1.3,59.95372772353865,
265,0,265,0,,,,,,,,,,,,,,,,,,,,,,,,,,,,,,,,,,787.2817309999373,788.2868767000036,786.6068739999318,786.6068739999318,786.6068739999318,786.6068739999318,,old_sceneOut_7.png,266,5.0,0.6721843000268564,,025,00,2024-11-28_15h45.04.680,Surprise recog test,2023.1.3,59.95372772353865,
266,0,266,0,,,,,,,,,,,,,,,,,,,,,,,,,,,,,,,,,,789.0439682999859,790.0549058000324,788.2868767000036,788.2868767000036,788.2868767000036,788.2868767000036,,new_sceneIn_33.png,267,5.0,0.7496517999097705,,025,00,2024-11-28_15h45.04.680,Surprise recog test,2023.1.3,59.95372772353865,
267,0,267,0,,,,,,,,,,,,,,,,,,,,,,,,,,,,,,,,,,792.7886318999808,,790.0549058000324,790.0549058000324,790.0549058000324,790.0549058000324,,old_stationery_50.png,268,1.0,2.7304653000319377,,025,00,2024-11-28_15h45.04.680,Surprise recog test,2023.1.3,59.95372772353865,
268,0,268,0,,,,,,,,,,,,,,,,,,,,,,,,,,,,,,,,,,797.1950997000095,798.2273735000053,793.8103654999286,793.8103654999286,793.8103654999286,793.8103654999286,,old_fruit_17.png,269,4.0,3.3801331999711692,,025,00,2024-11-28_15h45.04.680,Surprise recog test,2023.1.3,59.95372772353865,
269,0,269,0,,,,,,,,,,,,,,,,,,,,,,,,,,,,,,,,,,799.9645184000256,800.9915580999805,798.2273735000053,798.2273735000053,798.2273735000053,798.2273735000053,,old_stationery_7.png,270,1.0,1.73749820003286,,025,00,2024-11-28_15h45.04.680,Surprise recog test,2023.1.3,59.95372772353865,
270,0,270,0,,,,,,,,,,,,,,,,,,,,,,,,,,,,,,,,,,802.1437740999972,803.1627617999911,800.9915580999805,800.9915580999805,800.9915580999805,800.9915580999805,,new_sceneOut_1.png,271,5.0,1.152659000013955,,025,00,2024-11-28_15h45.04.680,Surprise recog test,2023.1.3,59.95372772353865,
271,0,271,0,,,,,,,,,,,,,,,,,,,,,,,,,,,,,,,,,,805.0624116000254,806.0838408999844,803.1627617999911,803.1627617999911,803.1627617999911,803.1627617999911,,new_stationery_14.png,272,5.0,1.901265099993907,,025,00,2024-11-28_15h45.04.680,Surprise recog test,2023.1.3,59.95372772353865,
272,0,272,0,,,,,,,,,,,,,,,,,,,,,,,,,,,,,,,,,,808.3571654999396,809.3794414999429,806.0838408999844,806.0838408999844,806.0838408999844,806.0838408999844,,old_fruit_5.png,273,1.0,2.2768553000641987,,025,00,2024-11-28_15h45.04.680,Surprise recog test,2023.1.3,59.95372772353865,
273,0,273,0,,,,,,,,,,,,,,,,,,,,,,,,,,,,,,,,,,811.0351628999924,812.0429697999498,809.3794414999429,809.3794414999429,809.3794414999429,809.3794414999429,,new_stationery_37.png,274,5.0,1.6565755000337958,,025,00,2024-11-28_15h45.04.680,Surprise recog test,2023.1.3,59.95372772353865,
274,0,274,0,,,,,,,,,,,,,,,,,,,,,,,,,,,,,,,,,,812.8695664999541,813.8862366999965,812.0429697999498,812.0429697999498,812.0429697999498,812.0429697999498,,new_sceneIn_40.png,275,5.0,0.8148155999369919,,025,00,2024-11-28_15h45.04.680,Surprise recog test,2023.1.3,59.95372772353865,
275,0,275,0,,,,,,,,,,,,,,,,,,,,,,,,,,,,,,,,,,814.9643424999667,815.991746100015,813.8862366999965,813.8862366999965,813.8862366999965,813.8862366999965,,new_stationery_27.png,276,5.0,1.0778402999276295,,025,00,2024-11-28_15h45.04.680,Surprise recog test,2023.1.3,59.95372772353865,
276,0,276,0,,,,,,,,,,,,,,,,,,,,,,,,,,,,,,,,,,817.2028114999412,818.2259440999478,815.991746100015,815.991746100015,815.991746100015,815.991746100015,,new_stationery_41.png,277,5.0,1.2134193000383675,,025,00,2024-11-28_15h45.04.680,Surprise recog test,2023.1.3,59.95372772353865,
277,0,277,0,,,,,,,,,,,,,,,,,,,,,,,,,,,,,,,,,,820.2421824999619,821.2499533999944,818.2259440999478,818.2259440999478,818.2259440999478,818.2259440999478,,old_fruit_32.png,278,2.0,2.015088599990122,,025,00,2024-11-28_15h45.04.680,Surprise recog test,2023.1.3,59.95372772353865,
278,0,278,0,,,,,,,,,,,,,,,,,,,,,,,,,,,,,,,,,,822.5969403999625,,821.2499533999944,821.2499533999944,821.2499533999944,821.2499533999944,,old_sceneOut_5.png,279,5.0,1.3422073000110686,,025,00,2024-11-28_15h45.04.680,Surprise recog test,2023.1.3,59.95372772353865,
279,0,279,0,,,,,,,,,,,,,,,,,,,,,,,,,,,,,,,,,,824.6648759000236,,823.6306661999552,823.6306661999552,823.6306661999552,823.6306661999552,,new_sceneIn_11.png,280,5.0,1.036013799952343,,025,00,2024-11-28_15h45.04.680,Surprise recog test,2023.1.3,59.95372772353865,
280,0,280,0,,,,,,,,,,,,,,,,,,,,,,,,,,,,,,,,,,826.4110235000262,827.4341765999561,825.686947899987,825.686947899987,825.686947899987,825.686947899987,,old_sceneOut_33.png,281,5.0,0.7174309000838548,,025,00,2024-11-28_15h45.04.680,Surprise recog test,2023.1.3,59.95372772353865,
281,0,281,0,,,,,,,,,,,,,,,,,,,,,,,,,,,,,,,,,,830.9904748999979,832.0198968999321,827.4341765999561,827.4341765999561,827.4341765999561,827.4341765999561,,old_stationery_37.png,282,1.0,3.5595072000287473,,025,00,2024-11-28_15h45.04.680,Surprise recog test,2023.1.3,59.95372772353865,
282,0,282,0,,,,,,,,,,,,,,,,,,,,,,,,,,,,,,,,,,833.3868306999793,834.3935804999201,832.0198968999321,832.0198968999321,832.0198968999321,832.0198968999321,,old_sceneIn_27.png,283,5.0,1.3681389999110252,,025,00,2024-11-28_15h45.04.680,Surprise recog test,2023.1.3,59.95372772353865,
283,0,283,0,,,,,,,,,,,,,,,,,,,,,,,,,,,,,,,,,,835.0750976999989,,834.3935804999201,834.3935804999201,834.3935804999201,834.3935804999201,,old_sceneIn_48.png,284,5.0,0.6741950999712572,,025,00,2024-11-28_15h45.04.680,Surprise recog test,2023.1.3,59.95372772353865,
284,0,284,0,,,,,,,,,,,,,,,,,,,,,,,,,,,,,,,,,,836.7858234000159,837.7973480999935,836.0917119999649,836.0917119999649,836.0917119999649,836.0917119999649,,old_sceneOut_27.png,285,5.0,0.6878136999439448,,025,00,2024-11-28_15h45.04.680,Surprise recog test,2023.1.3,59.95372772353865,
285,0,285,0,,,,,,,,,,,,,,,,,,,,,,,,,,,,,,,,,,839.0744367999723,840.0820800999645,837.7973480999935,837.7973480999935,837.7973480999935,837.7973480999935,,new_stationery_4.png,286,5.0,1.2652727999957278,,025,00,2024-11-28_15h45.04.680,Surprise recog test,2023.1.3,59.95372772353865,
286,0,286,0,,,,,,,,,,,,,,,,,,,,,,,,,,,,,,,,,,840.8637922999915,841.8967100000009,840.0820800999645,840.0820800999645,840.0820800999645,840.0820800999645,,old_sceneOut_35.png,287,5.0,0.7769243000075221,,025,00,2024-11-28_15h45.04.680,Surprise recog test,2023.1.3,59.95372772353865,
287,0,287,0,,,,,,,,,,,,,,,,,,,,,,,,,,,,,,,,,,842.9573760000058,843.9801652999595,841.8967100000009,841.8967100000009,841.8967100000009,841.8967100000009,,new_sceneOut_40.png,288,5.0,1.0642984000733122,,025,00,2024-11-28_15h45.04.680,Surprise recog test,2023.1.3,59.95372772353865,
288,0,288,0,,,,,,,,,,,,,,,,,,,,,,,,,,,,,,,,,,845.1842712999787,,843.9801652999595,843.9801652999595,843.9801652999595,843.9801652999595,,old_sceneOut_36.png,289,5.0,1.2058885999722406,,025,00,2024-11-28_15h45.04.680,Surprise recog test,2023.1.3,59.95372772353865,
289,0,289,0,,,,,,,,,,,,,,,,,,,,,,,,,,,,,,,,,,848.3054301999509,849.3419237999478,846.2039903999539,846.2039903999539,846.2039903999539,846.2039903999539,,new_fruit_10.png,290,5.0,2.0976899000816047,,025,00,2024-11-28_15h45.04.680,Surprise recog test,2023.1.3,59.95372772353865,
290,0,290,0,,,,,,,,,,,,,,,,,,,,,,,,,,,,,,,,,,851.6488508000039,852.6750549999997,849.3419237999478,849.3419237999478,849.3419237999478,849.3419237999478,,new_stationery_2.png,291,5.0,2.310359700000845,,025,00,2024-11-28_15h45.04.680,Surprise recog test,2023.1.3,59.95372772353865,
291,0,291,0,,,,,,,,,,,,,,,,,,,,,,,,,,,,,,,,,,854.1286566000199,855.1447374999989,852.6750549999997,852.6750549999997,852.6750549999997,852.6750549999997,,new_sceneIn_14.png,292,5.0,1.4568139999173582,,025,00,2024-11-28_15h45.04.680,Surprise recog test,2023.1.3,59.95372772353865,
292,0,292,0,,,,,,,,,,,,,,,,,,,,,,,,,,,,,,,,,,857.7132483000169,858.7321197999408,855.1447374999989,855.1447374999989,855.1447374999989,855.1447374999989,,old_fruit_50.png,293,2.0,2.560698200017214,,025,00,2024-11-28_15h45.04.680,Surprise recog test,2023.1.3,59.95372772353865,
293,0,293,0,,,,,,,,,,,,,,,,,,,,,,,,,,,,,,,,,,859.8559170999797,860.877351699979,858.7321197999408,858.7321197999408,858.7321197999408,858.7321197999408,,old_sceneOut_12.png,294,5.0,1.1200252000708133,,025,00,2024-11-28_15h45.04.680,Surprise recog test,2023.1.3,59.95372772353865,
294,0,294,0,,,,,,,,,,,,,,,,,,,,,,,,,,,,,,,,,,864.2302025000099,865.2371001000283,860.877351699979,860.877351699979,860.877351699979,860.877351699979,,new_stationery_38.png,295,5.0,3.3540427999105304,,025,00,2024-11-28_15h45.04.680,Surprise recog test,2023.1.3,59.95372772353865,
295,0,295,0,,,,,,,,,,,,,,,,,,,,,,,,,,,,,,,,,,866.017127100029,,865.2371001000283,865.2371001000283,865.2371001000283,865.2371001000283,,new_sceneOut_5.png,296,5.0,0.7761503000510857,,025,00,2024-11-28_15h45.04.680,Surprise recog test,2023.1.3,59.95372772353865,
296,0,296,0,,,,,,,,,,,,,,,,,,,,,,,,,,,,,,,,,,870.4239929999458,871.4425556999631,867.0507948999293,867.0507948999293,867.0507948999293,867.0507948999293,,old_stationery_2.png,297,1.0,3.375290199997835,,025,00,2024-11-28_15h45.04.680,Surprise recog test,2023.1.3,59.95372772353865,
297,0,297,0,,,,,,,,,,,,,,,,,,,,,,,,,,,,,,,,,,872.708138499991,873.7336154999211,871.4425556999631,871.4425556999631,871.4425556999631,871.4425556999631,,new_sceneOut_43.png,298,5.0,1.2616745999548584,,025,00,2024-11-28_15h45.04.680,Surprise recog test,2023.1.3,59.95372772353865,
298,0,298,0,,,,,,,,,,,,,,,,,,,,,,,,,,,,,,,,,,875.6445708000101,876.673736799974,873.7336154999211,873.7336154999211,873.7336154999211,873.7336154999211,,new_fruit_28.png,299,5.0,1.91185310005676,,025,00,2024-11-28_15h45.04.680,Surprise recog test,2023.1.3,59.95372772353865,
299,0,299,0,,,,,,,,,,,,,,,,,,,,,,,,,,,,,,,,,,877.8695926999208,878.8920030000154,876.673736799974,876.673736799974,876.673736799974,876.673736799974,,new_stationery_32.png,300,5.0,1.1933828999754041,,025,00,2024-11-28_15h45.04.680,Surprise recog test,2023.1.3,59.95372772353865,
300,0,300,0,,,,,,,,,,,,,,,,,,,,,,,,,,,,,,,,,,879.817002799944,880.832863699994,878.8920030000154,878.8920030000154,878.8920030000154,878.8920030000154,,old_sceneOut_44.png,301,5.0,0.925856800051406,,025,00,2024-11-28_15h45.04.680,Surprise recog test,2023.1.3,59.95372772353865,
301,0,301,0,,,,,,,,,,,,,,,,,,,,,,,,,,,,,,,,,,881.5393772999523,882.5511791999452,880.832863699994,880.832863699994,880.832863699994,880.832863699994,,new_sceneOut_24.png,302,5.0,0.7018637000583112,,025,00,2024-11-28_15h45.04.680,Surprise recog test,2023.1.3,59.95372772353865,
302,0,302,0,,,,,,,,,,,,,,,,,,,,,,,,,,,,,,,,,,883.8583029999863,884.8741515999427,882.5511791999452,882.5511791999452,882.5511791999452,882.5511791999452,,new_sceneIn_17.png,303,5.0,1.2967371999984607,,025,00,2024-11-28_15h45.04.680,Surprise recog test,2023.1.3,59.95372772353865,
303,0,303,0,,,,,,,,,,,,,,,,,,,,,,,,,,,,,,,,,,886.0055154999718,887.0364962000167,884.8741515999427,884.8741515999427,884.8741515999427,884.8741515999427,,old_sceneIn_42.png,304,5.0,1.128835399984382,,025,00,2024-11-28_15h45.04.680,Surprise recog test,2023.1.3,59.95372772353865,
304,0,304,0,,,,,,,,,,,,,,,,,,,,,,,,,,,,,,,,,,888.21665019996,889.243104299996,887.0364962000167,887.0364962000167,887.0364962000167,887.0364962000167,,old_sceneOut_26.png,305,5.0,1.1810828000307083,,025,00,2024-11-28_15h45.04.680,Surprise recog test,2023.1.3,59.95372772353865,
305,0,305,0,,,,,,,,,,,,,,,,,,,,,,,,,,,,,,,,,,891.0887945999857,892.1199767999351,889.243104299996,889.243104299996,889.243104299996,889.243104299996,,old_sceneIn_11.png,306,5.0,1.8477101000025868,,025,00,2024-11-28_15h45.04.680,Surprise recog test,2023.1.3,59.95372772353865,
306,0,306,0,,,,,,,,,,,,,,,,,,,,,,,,,,,,,,,,,,895.9458551999414,896.9629959999584,892.1199767999351,892.1199767999351,892.1199767999351,892.1199767999351,,old_stationery_5.png,307,5.0,3.8290432000067085,,025,00,2024-11-28_15h45.04.680,Surprise recog test,2023.1.3,59.95372772353865,
307,0,307,0,,,,,,,,,,,,,,,,,,,,,,,,,,,,,,,,,,898.2002416999312,899.2289300999837,896.9629959999584,896.9629959999584,896.9629959999584,896.9629959999584,,new_sceneOut_17.png,308,5.0,1.2330667999340221,,025,00,2024-11-28_15h45.04.680,Surprise recog test,2023.1.3,59.95372772353865,
308,0,308,0,,,,,,,,,,,,,,,,,,,,,,,,,,,,,,,,,,900.5884224999463,901.6128145999974,899.2289300999837,899.2289300999837,899.2289300999837,899.2289300999837,,old_stationery_30.png,309,1.0,1.3614392000017688,,025,00,2024-11-28_15h45.04.680,Surprise recog test,2023.1.3,59.95372772353865,
309,0,309,0,,,,,,,,,,,,,,,,,,,,,,,,,,,,,,,,,,903.4749672999606,904.4860141000245,901.6128145999974,901.6128145999974,901.6128145999974,901.6128145999974,,new_stationery_42.png,310,5.0,1.861983499955386,,025,00,2024-11-28_15h45.04.680,Surprise recog test,2023.1.3,59.95372772353865,
310,0,310,0,,,,,,,,,,,,,,,,,,,,,,,,,,,,,,,,,,905.5294832999352,906.550390999997,904.4860141000245,904.4860141000245,904.4860141000245,904.4860141000245,,new_sceneIn_25.png,311,5.0,1.037606800091453,,025,00,2024-11-28_15h45.04.680,Surprise recog test,2023.1.3,59.95372772353865,
311,0,311,0,,,,,,,,,,,,,,,,,,,,,,,,,,,,,,,,,,908.0329127999721,909.0509696999798,906.550390999997,906.550390999997,906.550390999997,906.550390999997,,old_stationery_36.png,312,1.0,1.484154099947773,,025,00,2024-11-28_15h45.04.680,Surprise recog test,2023.1.3,59.95372772353865,
312,0,312,0,,,,,,,,,,,,,,,,,,,,,,,,,,,,,,,,,,910.4016217000317,911.4239857000066,909.0509696999798,909.0509696999798,909.0509696999798,909.0509696999798,,old_sceneOut_42.png,313,5.0,1.3525074999779463,,025,00,2024-11-28_15h45.04.680,Surprise recog test,2023.1.3,59.95372772353865,
313,0,313,0,,,,,,,,,,,,,,,,,,,,,,,,,,,,,,,,,,914.7790737999603,915.8114517999347,911.4239857000066,911.4239857000066,911.4239857000066,911.4239857000066,,new_fruit_3.png,314,4.0,3.359081399976276,,025,00,2024-11-28_15h45.04.680,Surprise recog test,2023.1.3,59.95372772353865,
314,0,314,0,,,,,,,,,,,,,,,,,,,,,,,,,,,,,,,,,,917.258876799955,,915.8114517999347,915.8114517999347,915.8114517999347,915.8114517999347,,old_stationery_29.png,315,1.0,1.4468636000528932,,025,00,2024-11-28_15h45.04.680,Surprise recog test,2023.1.3,59.95372772353865,
315,0,315,0,,,,,,,,,,,,,,,,,,,,,,,,,,,,,,,,,,920.7397115000058,921.7684243000112,918.2981861999724,918.2981861999724,918.2981861999724,918.2981861999724,,old_fruit_25.png,316,5.0,2.4459518999792635,,025,00,2024-11-28_15h45.04.680,Surprise recog test,2023.1.3,59.95372772353865,
316,0,316,0,,,,,,,,,,,,,,,,,,,,,,,,,,,,,,,,,,924.6975594999967,,921.7684243000112,921.7684243000112,921.7684243000112,921.7684243000112,,new_sceneIn_23.png,317,5.0,2.9321451000869274,,025,00,2024-11-28_15h45.04.680,Surprise recog test,2023.1.3,59.95372772353865,
317,0,317,0,,,,,,,,,,,,,,,,,,,,,,,,,,,,,,,,,,926.8804701999761,927.8983832999365,925.7323963999515,925.7323963999515,925.7323963999515,925.7323963999515,,old_sceneOut_47.png,318,5.0,1.149176000035368,,025,00,2024-11-28_15h45.04.680,Surprise recog test,2023.1.3,59.95372772353865,
318,0,318,0,,,,,,,,,,,,,,,,,,,,,,,,,,,,,,,,,,928.8428944000043,929.8720329999924,927.8983832999365,927.8983832999365,927.8983832999365,927.8983832999365,,new_fruit_29.png,319,5.0,0.9456722000613809,,025,00,2024-11-28_15h45.04.680,Surprise recog test,2023.1.3,59.95372772353865,
319,0,319,0,,,,,,,,,,,,,,,,,,,,,,,,,,,,,,,,,,930.6169693999691,931.6361629000166,929.8720329999924,929.8720329999924,929.8720329999924,929.8720329999924,,old_fruit_3.png,320,5.0,0.7451354999793693,,025,00,2024-11-28_15h45.04.680,Surprise recog test,2023.1.3,59.95372772353865,
320,0,320,0,,,,,,,,,,,,,,,,,,,,,,,,,,,,,,,,,,933.759387099999,934.7895675000036,931.6361629000166,931.6361629000166,931.6361629000166,931.6361629000166,,old_fruit_28.png,321,3.0,2.1254352000541985,,025,00,2024-11-28_15h45.04.680,Surprise recog test,2023.1.3,59.95372772353865,
321,0,321,0,,,,,,,,,,,,,,,,,,,,,,,,,,,,,,,,,,936.3531863000244,937.3781826000195,934.7895675000036,934.7895675000036,934.7895675000036,934.7895675000036,,old_sceneIn_49.png,322,5.0,1.5655507000628859,,025,00,2024-11-28_15h45.04.680,Surprise recog test,2023.1.3,59.95372772353865,
322,0,322,0,,,,,,,,,,,,,,,,,,,,,,,,,,,,,,,,,,938.5936700999737,,937.3781826000195,937.3781826000195,937.3781826000195,937.3781826000195,,old_sceneOut_25.png,323,5.0,1.2139713000506163,,025,00,2024-11-28_15h45.04.680,Surprise recog test,2023.1.3,59.95372772353865,
323,0,323,0,,,,,,,,,,,,,,,,,,,,,,,,,,,,,,,,,,940.709337899927,941.7178313999902,939.622208399931,939.622208399931,939.622208399931,939.622208399931,,old_fruit_6.png,324,5.0,1.088768000015989,,025,00,2024-11-28_15h45.04.680,Surprise recog test,2023.1.3,59.95372772353865,
324,0,324,0,,,,,,,,,,,,,,,,,,,,,,,,,,,,,,,,,,942.6827852999559,943.7014173999196,941.7178313999902,941.7178313999902,941.7178313999902,941.7178313999902,,new_stationery_3.png,325,5.0,0.9576672000112012,,025,00,2024-11-28_15h45.04.680,Surprise recog test,2023.1.3,59.95372772353865,
325,0,325,0,,,,,,,,,,,,,,,,,,,,,,,,,,,,,,,,,,945.5972508999985,946.616008699988,943.7014173999196,943.7014173999196,943.7014173999196,943.7014173999196,,old_stationery_23.png,326,1.0,1.8915325999259949,,025,00,2024-11-28_15h45.04.680,Surprise recog test,2023.1.3,59.95372772353865,
326,0,326,0,,,,,,,,,,,,,,,,,,,,,,,,,,,,,,,,,,948.0553131999914,949.0798717000289,946.616008699988,946.616008699988,946.616008699988,946.616008699988,,new_sceneIn_15.png,327,5.0,1.440681800013408,,025,00,2024-11-28_15h45.04.680,Surprise recog test,2023.1.3,59.95372772353865,
327,0,327,0,,,,,,,,,,,,,,,,,,,,,,,,,,,,,,,,,,950.2363856999436,,949.0798717000289,949.0798717000289,949.0798717000289,949.0798717000289,,new_sceneIn_4.png,328,5.0,1.1558870999142528,,025,00,2024-11-28_15h45.04.680,Surprise recog test,2023.1.3,59.95372772353865,
328,0,328,0,,,,,,,,,,,,,,,,,,,,,,,,,,,,,,,,,,952.3261701000156,953.3552148999879,951.2725906999549,951.2725906999549,951.2725906999549,951.2725906999549,,new_sceneOut_36.png,329,5.0,1.057659300044179,,025,00,2024-11-28_15h45.04.680,Surprise recog test,2023.1.3,59.95372772353865,
329,0,329,0,,,,,,,,,,,,,,,,,,,,,,,,,,,,,,,,,,954.8275569999823,955.8564807999646,953.3552148999879,953.3552148999879,953.3552148999879,953.3552148999879,,old_sceneOut_38.png,330,5.0,1.4755596000468358,,025,00,2024-11-28_15h45.04.680,Surprise recog test,2023.1.3,59.95372772353865,
330,0,330,0,,,,,,,,,,,,,,,,,,,,,,,,,,,,,,,,,,957.4225194000173,958.4382863999344,955.8564807999646,955.8564807999646,955.8564807999646,955.8564807999646,,old_stationery_12.png,331,1.0,1.560794800054282,,025,00,2024-11-28_15h45.04.680,Surprise recog test,2023.1.3,59.95372772353865,
331,0,331,0,,,,,,,,,,,,,,,,,,,,,,,,,,,,,,,,,,959.7937139000278,,958.4382863999344,958.4382863999344,958.4382863999344,958.4382863999344,,old_sceneOut_28.png,332,5.0,1.3577975999796763,,025,00,2024-11-28_15h45.04.680,Surprise recog test,2023.1.3,59.95372772353865,
332,0,332,0,,,,,,,,,,,,,,,,,,,,,,,,,,,,,,,,,,961.9615550999297,,960.8122331999475,960.8122331999475,960.8122331999475,960.8122331999475,,new_sceneOut_14.png,333,5.0,1.1436024999711663,,025,00,2024-11-28_15h45.04.680,Surprise recog test,2023.1.3,59.95372772353865,
333,0,333,0,,,,,,,,,,,,,,,,,,,,,,,,,,,,,,,,,,963.9612138000084,964.9682917000027,962.9921990999719,962.9921990999719,962.9921990999719,962.9921990999719,,new_sceneOut_2.png,334,5.0,0.9637048000004143,,025,00,2024-11-28_15h45.04.680,Surprise recog test,2023.1.3,59.95372772353865,
334,0,334,0,,,,,,,,,,,,,,,,,,,,,,,,,,,,,,,,,,968.6575211000163,969.6697735999478,964.9682917000027,964.9682917000027,964.9682917000027,964.9682917000027,,old_fruit_16.png,335,4.0,3.688038400025107,,025,00,2024-11-28_15h45.04.680,Surprise recog test,2023.1.3,59.95372772353865,
335,0,335,0,,,,,,,,,,,,,,,,,,,,,,,,,,,,,,,,,,970.8221730999649,971.8544436999364,969.6697735999478,969.6697735999478,969.6697735999478,969.6697735999478,,new_sceneOut_16.png,336,5.0,1.1466665000189096,,025,00,2024-11-28_15h45.04.680,Surprise recog test,2023.1.3,59.95372772353865,
336,0,336,0,,,,,,,,,,,,,,,,,,,,,,,,,,,,,,,,,,973.1750210999744,974.193465600023,971.8544436999364,971.8544436999364,971.8544436999364,971.8544436999364,,old_sceneOut_9.png,337,5.0,1.3235454000532627,,025,00,2024-11-28_15h45.04.680,Surprise recog test,2023.1.3,59.95372772353865,
337,0,337,0,,,,,,,,,,,,,,,,,,,,,,,,,,,,,,,,,,975.8381226999918,976.8578305999981,974.193465600023,974.193465600023,974.193465600023,974.193465600023,,old_fruit_8.png,338,1.0,1.640291800023988,,025,00,2024-11-28_15h45.04.680,Surprise recog test,2023.1.3,59.95372772353865,
338,0,338,0,,,,,,,,,,,,,,,,,,,,,,,,,,,,,,,,,,978.0899018000346,979.1091229999438,976.8578305999981,976.8578305999981,976.8578305999981,976.8578305999981,,new_sceneOut_18.png,339,5.0,1.2279070999938995,,025,00,2024-11-28_15h45.04.680,Surprise recog test,2023.1.3,59.95372772353865,
339,0,339,0,,,,,,,,,,,,,,,,,,,,,,,,,,,,,,,,,,980.6102424999699,981.6367975999601,979.1091229999438,979.1091229999438,979.1091229999438,979.1091229999438,,old_fruit_26.png,340,2.0,1.5013589999871328,,025,00,2024-11-28_15h45.04.680,Surprise recog test,2023.1.3,59.95372772353865,
340,0,340,0,,,,,,,,,,,,,,,,,,,,,,,,,,,,,,,,,,982.4713819000171,983.4809717999306,981.6367975999601,981.6367975999601,981.6367975999601,981.6367975999601,,new_sceneOut_26.png,341,5.0,0.8397291000001132,,025,00,2024-11-28_15h45.04.680,Surprise recog test,2023.1.3,59.95372772353865,
341,0,341,0,,,,,,,,,,,,,,,,,,,,,,,,,,,,,,,,,,985.1215154000092,986.1330795999384,983.4809717999306,983.4809717999306,983.4809717999306,983.4809717999306,,new_fruit_16.png,342,5.0,1.637194799957797,,025,00,2024-11-28_15h45.04.680,Surprise recog test,2023.1.3,59.95372772353865,
342,0,342,0,,,,,,,,,,,,,,,,,,,,,,,,,,,,,,,,,,987.1118124999339,988.1229654999916,986.1330795999384,986.1330795999384,986.1330795999384,986.1330795999384,,new_fruit_45.png,343,5.0,0.9746226000133902,,025,00,2024-11-28_15h45.04.680,Surprise recog test,2023.1.3,59.95372772353865,
343,0,343,0,,,,,,,,,,,,,,,,,,,,,,,,,,,,,,,,,,988.958403400029,989.9826243999414,988.1229654999916,988.1229654999916,988.1229654999916,988.1229654999916,,new_sceneOut_3.png,344,5.0,0.8320702000055462,,025,00,2024-11-28_15h45.04.680,Surprise recog test,2023.1.3,59.95372772353865,
344,0,344,0,,,,,,,,,,,,,,,,,,,,,,,,,,,,,,,,,,990.8834047999699,991.9035210999427,989.9826243999414,989.9826243999414,989.9826243999414,989.9826243999414,,new_sceneIn_18.png,345,5.0,0.9037604000186548,,025,00,2024-11-28_15h45.04.680,Surprise recog test,2023.1.3,59.95372772353865,
345,0,345,0,,,,,,,,,,,,,,,,,,,,,,,,,,,,,,,,,,993.2510208999738,994.2723320999648,991.9035210999427,991.9035210999427,991.9035210999427,991.9035210999427,,old_sceneIn_4.png,346,5.0,1.3495273999869823,,025,00,2024-11-28_15h45.04.680,Surprise recog test,2023.1.3,59.95372772353865,
346,0,346,0,,,,,,,,,,,,,,,,,,,,,,,,,,,,,,,,,,996.840584599995,,994.2723320999648,994.2723320999648,994.2723320999648,994.2723320999648,,new_stationery_43.png,347,5.0,2.5691418000496924,,025,00,2024-11-28_15h45.04.680,Surprise recog test,2023.1.3,59.95372772353865,
347,0,347,0,,,,,,,,,,,,,,,,,,,,,,,,,,,,,,,,,,999.0216644000029,1000.0441700000083,997.8772702999413,997.8772702999413,997.8772702999413,997.8772702999413,,new_fruit_2.png,348,5.0,1.1470078999409452,,025,00,2024-11-28_15h45.04.680,Surprise recog test,2023.1.3,59.95372772353865,
348,0,348,0,,,,,,,,,,,,,,,,,,,,,,,,,,,,,,,,,,1002.9297999999253,,1000.0441700000083,1000.0441700000083,1000.0441700000083,1000.0441700000083,,new_stationery_15.png,349,1.0,2.8852028000401333,,025,00,2024-11-28_15h45.04.680,Surprise recog test,2023.1.3,59.95372772353865,
349,0,349,0,,,,,,,,,,,,,,,,,,,,,,,,,,,,,,,,,,1005.5075979999965,1006.5331419999711,1003.9679707000032,1003.9679707000032,1003.9679707000032,1003.9679707000032,,new_fruit_15.png,350,5.0,1.543351599946618,,025,00,2024-11-28_15h45.04.680,Surprise recog test,2023.1.3,59.95372772353865,
350,0,350,0,,,,,,,,,,,,,,,,,,,,,,,,,,,,,,,,,,1007.2216971999733,1008.2502724999795,1006.5331419999711,1006.5331419999711,1006.5331419999711,1006.5331419999711,,old_sceneOut_30.png,351,5.0,0.6912643000250682,,025,00,2024-11-28_15h45.04.680,Surprise recog test,2023.1.3,59.95372772353865,
351,0,351,0,,,,,,,,,,,,,,,,,,,,,,,,,,,,,,,,,,1010.9655300999293,1011.9873131000204,1008.2502724999795,1008.2502724999795,1008.2502724999795,1008.2502724999795,,new_fruit_36.png,352,2.0,2.7173629000317305,,025,00,2024-11-28_15h45.04.680,Surprise recog test,2023.1.3,59.95372772353865,
352,0,352,0,,,,,,,,,,,,,,,,,,,,,,,,,,,,,,,,,,1013.3341222000308,1014.3518203999847,1011.9873131000204,1011.9873131000204,1011.9873131000204,1011.9873131000204,,old_fruit_36.png,353,5.0,1.348583700018935,,025,00,2024-11-28_15h45.04.680,Surprise recog test,2023.1.3,59.95372772353865,
353,0,353,0,,,,,,,,,,,,,,,,,,,,,,,,,,,,,,,,,,1014.9722265999299,,1014.3518203999847,1014.3518203999847,1014.3518203999847,1014.3518203999847,,new_sceneOut_38.png,354,5.0,0.6215242999605834,,025,00,2024-11-28_15h45.04.680,Surprise recog test,2023.1.3,59.95372772353865,
