trial_loop.thisRepN,trial_loop.thisTrialN,trial_loop.thisN,trial_loop.thisIndex,VAS_slider.started,VAS_text.started,VAS_notstressed_text.started,VAS_stressed_text.started,continue_input.started,continue_text.started,label0.started,label10.started,label20.started,label30.started,label40.started,label50.started,label60.started,label70.started,label80.started,label90.started,label100.started,VAS_slider.response,VAS_slider.rt,VAS_slider.history,Answer_VAS,continue_input.keys,instruction_text.started,continue_text_2.started,continue_input_2.started,continue_input_2.keys,continue_input_2.rt,continue_input_2.duration,example_text.started,example_slider_2.started,example_image.started,example_slider_2.response,example_slider_2.rt,fixcross.started,fixcross.stopped,front_square.started,stim_images.started,trial_inst_images.started,slider_images.started,thisImg,trial_count,slider_images.response,slider_images.rt,slider_images.stopped,outro.started,participant,condition,date,expName,psychopyVersion,frameRate,
,,,,28.246845800000003,28.246845800000003,28.246845800000003,28.246845800000003,28.246845800000003,28.246845800000003,28.246845800000003,28.246845800000003,28.246845800000003,28.246845800000003,28.246845800000003,28.246845800000003,28.246845800000003,28.246845800000003,28.246845800000003,28.246845800000003,28.246845800000003,5.0166666666666675,9.842441899999997,"[(5.0166666666666675, 9.842441899999997)]",5.0166666666666675,None,,,,,,,,,,,,,,,,,,,,,,,,026,10,2025-01-16_14h05.26.682,Surprise recog test,2023.1.3,59.944419534207476,
,,,,,,,,,,,,,,,,,,,,,,,,,,38.1227801,38.1227801,38.1227801,space,14.016359699999995,None,,,,,,,,,,,,,,,,,,026,10,2025-01-16_14h05.26.682,Surprise recog test,2023.1.3,59.944419534207476,
0,0,0,0,,,,,,,,,,,,,,,,,,,,,,,,,,,,,52.321173599999995,52.321173599999995,52.321173599999995,5.0,11.602308499999992,67.081979,68.09387360000001,64.8298329,64.8298329,64.8298329,64.8298329,new_sceneOut_35.png,1,2.0,2.255648899999983,,,026,10,2025-01-16_14h05.26.682,Surprise recog test,2023.1.3,59.944419534207476,
1,0,1,0,,,,,,,,,,,,,,,,,,,,,,,,,,,,,,,,,,71.24207550000001,72.24773610000001,68.09387360000001,68.09387360000001,68.09387360000001,68.09387360000001,old_stationery_8.png,2,2.0,3.1397790000000043,,,026,10,2025-01-16_14h05.26.682,Surprise recog test,2023.1.3,59.944419534207476,
2,0,2,0,,,,,,,,,,,,,,,,,,,,,,,,,,,,,,,,,,74.4612268,75.46707200000002,72.24773610000001,72.24773610000001,72.24773610000001,72.24773610000001,old_sceneOut_32.png,3,5.0,2.2057590000000005,,,026,10,2025-01-16_14h05.26.682,Surprise recog test,2023.1.3,59.944419534207476,
3,0,3,0,,,,,,,,,,,,,,,,,,,,,,,,,,,,,,,,,,78.16547680000001,79.169672,75.46707200000002,75.46707200000002,75.46707200000002,75.46707200000002,old_sceneOut_33.png,4,4.0,2.6942127000000085,,,026,10,2025-01-16_14h05.26.682,Surprise recog test,2023.1.3,59.944419534207476,
4,0,4,0,,,,,,,,,,,,,,,,,,,,,,,,,,,,,,,,,,80.8449101,81.8563262,79.169672,79.169672,79.169672,79.169672,new_stationery_26.png,5,5.0,1.6679115000000024,,,026,10,2025-01-16_14h05.26.682,Surprise recog test,2023.1.3,59.944419534207476,
5,0,5,0,,,,,,,,,,,,,,,,,,,,,,,,,,,,,,,,,,85.93154790000001,86.9419898,81.8563262,81.8563262,81.8563262,81.8563262,old_sceneIn_11.png,6,4.0,4.070562200000012,,,026,10,2025-01-16_14h05.26.682,Surprise recog test,2023.1.3,59.944419534207476,
6,0,6,0,,,,,,,,,,,,,,,,,,,,,,,,,,,,,,,,,,88.58392590000001,89.607142,86.9419898,86.9419898,86.9419898,86.9419898,new_sceneIn_4.png,7,5.0,1.6363899999999774,,,026,10,2025-01-16_14h05.26.682,Surprise recog test,2023.1.3,59.944419534207476,
7,0,7,0,,,,,,,,,,,,,,,,,,,,,,,,,,,,,,,,,,90.5683567,91.5835671,89.607142,89.607142,89.607142,89.607142,new_stationery_43.png,8,5.0,0.9586646000000201,,,026,10,2025-01-16_14h05.26.682,Surprise recog test,2023.1.3,59.944419534207476,
8,0,8,0,,,,,,,,,,,,,,,,,,,,,,,,,,,,,,,,,,93.2380654,94.25911900000001,91.5835671,91.5835671,91.5835671,91.5835671,old_fruit_13.png,9,1.0,1.6492688000000157,,,026,10,2025-01-16_14h05.26.682,Surprise recog test,2023.1.3,59.944419534207476,
9,0,9,0,,,,,,,,,,,,,,,,,,,,,,,,,,,,,,,,,,98.1476909,99.1524797,94.25911900000001,94.25911900000001,94.25911900000001,94.25911900000001,new_sceneIn_12.png,10,4.0,3.8880731999999796,,,026,10,2025-01-16_14h05.26.682,Surprise recog test,2023.1.3,59.944419534207476,
10,0,10,0,,,,,,,,,,,,,,,,,,,,,,,,,,,,,,,,,,100.6163898,101.6255169,99.1524797,99.1524797,99.1524797,99.1524797,old_fruit_12.png,11,1.0,1.453076799999991,,,026,10,2025-01-16_14h05.26.682,Surprise recog test,2023.1.3,59.944419534207476,
11,0,11,0,,,,,,,,,,,,,,,,,,,,,,,,,,,,,,,,,,105.234484,106.26649530000002,101.6255169,101.6255169,101.6255169,101.6255169,new_stationery_14.png,12,5.0,3.603282400000012,,,026,10,2025-01-16_14h05.26.682,Surprise recog test,2023.1.3,59.944419534207476,
12,0,12,0,,,,,,,,,,,,,,,,,,,,,,,,,,,,,,,,,,108.0944067,109.12047790000001,106.26649530000002,106.26649530000002,106.26649530000002,106.26649530000002,old_sceneOut_4.png,13,5.0,1.8322631000000058,,,026,10,2025-01-16_14h05.26.682,Surprise recog test,2023.1.3,59.944419534207476,
13,0,13,0,,,,,,,,,,,,,,,,,,,,,,,,,,,,,,,,,,110.58065230000001,111.60948359999999,109.12047790000001,109.12047790000001,109.12047790000001,109.12047790000001,new_stationery_40.png,14,5.0,1.4600209000000177,,,026,10,2025-01-16_14h05.26.682,Surprise recog test,2023.1.3,59.944419534207476,
14,0,14,0,,,,,,,,,,,,,,,,,,,,,,,,,,,,,,,,,,114.7913578,115.81492759999999,111.60948359999999,111.60948359999999,111.60948359999999,111.60948359999999,new_fruit_35.png,15,2.0,3.180924900000008,,,026,10,2025-01-16_14h05.26.682,Surprise recog test,2023.1.3,59.944419534207476,
15,0,15,0,,,,,,,,,,,,,,,,,,,,,,,,,,,,,,,,,,117.8640277,118.884338,115.81492759999999,115.81492759999999,115.81492759999999,115.81492759999999,new_sceneOut_49.png,16,3.0,2.0458064000000036,,,026,10,2025-01-16_14h05.26.682,Surprise recog test,2023.1.3,59.944419534207476,
16,0,16,0,,,,,,,,,,,,,,,,,,,,,,,,,,,,,,,,,,120.76559540000001,121.77744009999999,118.884338,118.884338,118.884338,118.884338,new_sceneIn_46.png,17,5.0,1.8817655999999943,,,026,10,2025-01-16_14h05.26.682,Surprise recog test,2023.1.3,59.944419534207476,
17,0,17,0,,,,,,,,,,,,,,,,,,,,,,,,,,,,,,,,,,124.8180737,125.82676540000001,121.77744009999999,121.77744009999999,121.77744009999999,121.77744009999999,new_stationery_31.png,18,4.0,3.0322855000000004,,,026,10,2025-01-16_14h05.26.682,Surprise recog test,2023.1.3,59.944419534207476,
18,0,18,0,,,,,,,,,,,,,,,,,,,,,,,,,,,,,,,,,,128.8282006,129.8441601,125.82676540000001,125.82676540000001,125.82676540000001,125.82676540000001,new_stationery_38.png,19,3.0,2.9995289999999954,,,026,10,2025-01-16_14h05.26.682,Surprise recog test,2023.1.3,59.944419534207476,
19,0,19,0,,,,,,,,,,,,,,,,,,,,,,,,,,,,,,,,,,131.7694295,132.80735829999998,129.8441601,129.8441601,129.8441601,129.8441601,new_sceneIn_40.png,20,5.0,1.920884099999995,,,026,10,2025-01-16_14h05.26.682,Surprise recog test,2023.1.3,59.944419534207476,
20,0,20,0,,,,,,,,,,,,,,,,,,,,,,,,,,,,,,,,,,133.84403229999998,134.8496513,132.80735829999998,132.80735829999998,132.80735829999998,132.80735829999998,old_stationery_16.png,21,5.0,1.0416097000000093,,,026,10,2025-01-16_14h05.26.682,Surprise recog test,2023.1.3,59.944419534207476,
21,0,21,0,,,,,,,,,,,,,,,,,,,,,,,,,,,,,,,,,,137.2072189,138.22218780000003,134.8496513,134.8496513,134.8496513,134.8496513,old_sceneIn_23.png,22,5.0,2.3493196999999952,,,026,10,2025-01-16_14h05.26.682,Surprise recog test,2023.1.3,59.944419534207476,
22,0,22,0,,,,,,,,,,,,,,,,,,,,,,,,,,,,,,,,,,142.5360546,143.55124990000002,138.22218780000003,138.22218780000003,138.22218780000003,138.22218780000003,new_fruit_8.png,23,5.0,4.309589299999999,,,026,10,2025-01-16_14h05.26.682,Surprise recog test,2023.1.3,59.944419534207476,
23,0,23,0,,,,,,,,,,,,,,,,,,,,,,,,,,,,,,,,,,145.2581106,,143.55124990000002,143.55124990000002,143.55124990000002,143.55124990000002,old_sceneOut_3.png,24,4.0,1.7070746999999926,,,026,10,2025-01-16_14h05.26.682,Surprise recog test,2023.1.3,59.944419534207476,
24,0,24,0,,,,,,,,,,,,,,,,,,,,,,,,,,,,,,,,,,147.83499719999998,148.86475009999998,146.28577489999998,146.28577489999998,146.28577489999998,146.28577489999998,new_sceneOut_42.png,25,4.0,1.5509533999999974,,,026,10,2025-01-16_14h05.26.682,Surprise recog test,2023.1.3,59.944419534207476,
25,0,25,0,,,,,,,,,,,,,,,,,,,,,,,,,,,,,,,,,,151.22905430000003,,148.86475009999998,148.86475009999998,148.86475009999998,148.86475009999998,new_stationery_13.png,26,5.0,2.3664179999999817,,,026,10,2025-01-16_14h05.26.682,Surprise recog test,2023.1.3,59.944419534207476,
26,0,26,0,,,,,,,,,,,,,,,,,,,,,,,,,,,,,,,,,,156.18061690000002,157.18576380000002,152.2600038,152.2600038,152.2600038,152.2600038,new_fruit_4.png,27,5.0,3.919291600000008,,,026,10,2025-01-16_14h05.26.682,Surprise recog test,2023.1.3,59.944419534207476,
27,0,27,0,,,,,,,,,,,,,,,,,,,,,,,,,,,,,,,,,,159.48832299999998,160.5268239,157.18576380000002,157.18576380000002,157.18576380000002,157.18576380000002,new_stationery_30.png,28,4.0,2.2995624000000134,,,026,10,2025-01-16_14h05.26.682,Surprise recog test,2023.1.3,59.944419534207476,
28,0,28,0,,,,,,,,,,,,,,,,,,,,,,,,,,,,,,,,,,162.7250892,163.74291060000002,160.5268239,160.5268239,160.5268239,160.5268239,new_stationery_11.png,29,5.0,2.2002475000000175,,,026,10,2025-01-16_14h05.26.682,Surprise recog test,2023.1.3,59.944419534207476,
29,0,29,0,,,,,,,,,,,,,,,,,,,,,,,,,,,,,,,,,,166.03766480000002,167.05670709999998,163.74291060000002,163.74291060000002,163.74291060000002,163.74291060000002,old_stationery_3.png,30,4.0,2.288611599999996,,,026,10,2025-01-16_14h05.26.682,Surprise recog test,2023.1.3,59.944419534207476,
30,0,30,0,,,,,,,,,,,,,,,,,,,,,,,,,,,,,,,,,,168.69411409999998,169.7133068,167.05670709999998,167.05670709999998,167.05670709999998,167.05670709999998,old_sceneOut_29.png,31,5.0,1.6397262999999782,,,026,10,2025-01-16_14h05.26.682,Surprise recog test,2023.1.3,59.944419534207476,
31,0,31,0,,,,,,,,,,,,,,,,,,,,,,,,,,,,,,,,,,171.6398193,172.6643694,169.7133068,169.7133068,169.7133068,169.7133068,new_stationery_3.png,32,3.0,1.9228279000000157,,,026,10,2025-01-16_14h05.26.682,Surprise recog test,2023.1.3,59.944419534207476,
32,0,32,0,,,,,,,,,,,,,,,,,,,,,,,,,,,,,,,,,,175.6672721,176.6976694,172.6643694,172.6643694,172.6643694,172.6643694,old_stationery_24.png,33,4.0,3.003141400000004,,,026,10,2025-01-16_14h05.26.682,Surprise recog test,2023.1.3,59.944419534207476,
33,0,33,0,,,,,,,,,,,,,,,,,,,,,,,,,,,,,,,,,,178.16060900000002,179.1735271,176.6976694,176.6976694,176.6976694,176.6976694,old_stationery_37.png,34,5.0,1.46459040000002,,,026,10,2025-01-16_14h05.26.682,Surprise recog test,2023.1.3,59.944419534207476,
34,0,34,0,,,,,,,,,,,,,,,,,,,,,,,,,,,,,,,,,,180.27899960000002,181.3143675,179.1735271,179.1735271,179.1735271,179.1735271,old_sceneOut_15.png,35,5.0,1.1040232000000287,,,026,10,2025-01-16_14h05.26.682,Surprise recog test,2023.1.3,59.944419534207476,
35,0,35,0,,,,,,,,,,,,,,,,,,,,,,,,,,,,,,,,,,183.2969779,184.3070219,181.3143675,181.3143675,181.3143675,181.3143675,new_sceneOut_1.png,36,4.0,1.988621299999977,,,026,10,2025-01-16_14h05.26.682,Surprise recog test,2023.1.3,59.944419534207476,
36,0,36,0,,,,,,,,,,,,,,,,,,,,,,,,,,,,,,,,,,188.3982853,189.42212190000004,184.3070219,184.3070219,184.3070219,184.3070219,new_sceneIn_8.png,37,4.0,4.086560800000029,,,026,10,2025-01-16_14h05.26.682,Surprise recog test,2023.1.3,59.944419534207476,
37,0,37,0,,,,,,,,,,,,,,,,,,,,,,,,,,,,,,,,,,191.64207680000004,192.6569791,189.42212190000004,189.42212190000004,189.42212190000004,189.42212190000004,old_sceneOut_22.png,38,5.0,2.2158450000000016,,,026,10,2025-01-16_14h05.26.682,Surprise recog test,2023.1.3,59.944419534207476,
38,0,38,0,,,,,,,,,,,,,,,,,,,,,,,,,,,,,,,,,,194.71792780000004,195.7414349,192.6569791,192.6569791,192.6569791,192.6569791,new_sceneOut_23.png,39,5.0,2.061514699999975,,,026,10,2025-01-16_14h05.26.682,Surprise recog test,2023.1.3,59.944419534207476,
39,0,39,0,,,,,,,,,,,,,,,,,,,,,,,,,,,,,,,,,,197.2322132,,195.7414349,195.7414349,195.7414349,195.7414349,new_fruit_28.png,40,4.0,1.4895521000000258,,,026,10,2025-01-16_14h05.26.682,Surprise recog test,2023.1.3,59.944419534207476,
40,0,40,0,,,,,,,,,,,,,,,,,,,,,,,,,,,,,,,,,,199.56854380000004,,198.2684446,198.2684446,198.2684446,198.2684446,new_sceneIn_3.png,41,5.0,1.299131100000011,,,026,10,2025-01-16_14h05.26.682,Surprise recog test,2023.1.3,59.944419534207476,
41,0,41,0,,,,,,,,,,,,,,,,,,,,,,,,,,,,,,,,,,205.35838060000003,206.3916415,200.60219670000004,200.60219670000004,200.60219670000004,200.60219670000004,old_fruit_50.png,42,2.0,4.758467900000028,,,026,10,2025-01-16_14h05.26.682,Surprise recog test,2023.1.3,59.944419534207476,
42,0,42,0,,,,,,,,,,,,,,,,,,,,,,,,,,,,,,,,,,207.68417770000002,208.69754420000004,206.3916415,206.3916415,206.3916415,206.3916415,old_stationery_30.png,43,5.0,1.295410400000037,,,026,10,2025-01-16_14h05.26.682,Surprise recog test,2023.1.3,59.944419534207476,
43,0,43,0,,,,,,,,,,,,,,,,,,,,,,,,,,,,,,,,,,209.9854201,210.9994282,208.69754420000004,208.69754420000004,208.69754420000004,208.69754420000004,old_stationery_45.png,44,5.0,1.2851909000000319,,,026,10,2025-01-16_14h05.26.682,Surprise recog test,2023.1.3,59.944419534207476,
44,0,44,0,,,,,,,,,,,,,,,,,,,,,,,,,,,,,,,,,,212.43558510000003,213.4605906,210.9994282,210.9994282,210.9994282,210.9994282,new_fruit_40.png,45,5.0,1.4321598000000222,,,026,10,2025-01-16_14h05.26.682,Surprise recog test,2023.1.3,59.944419534207476,
45,0,45,0,,,,,,,,,,,,,,,,,,,,,,,,,,,,,,,,,,214.4967211,,213.4605906,213.4605906,213.4605906,213.4605906,new_stationery_33.png,46,5.0,1.0358072999999877,,,026,10,2025-01-16_14h05.26.682,Surprise recog test,2023.1.3,59.944419534207476,
46,0,46,0,,,,,,,,,,,,,,,,,,,,,,,,,,,,,,,,,,216.53384570000003,,215.5339738,215.5339738,215.5339738,215.5339738,new_sceneOut_18.png,47,5.0,1.0038549999999873,,,026,10,2025-01-16_14h05.26.682,Surprise recog test,2023.1.3,59.944419534207476,
47,0,47,0,,,,,,,,,,,,,,,,,,,,,,,,,,,,,,,,,,220.29449450000004,221.3179255,217.56587840000003,217.56587840000003,217.56587840000003,217.56587840000003,old_fruit_32.png,48,4.0,2.7309282999999596,,,026,10,2025-01-16_14h05.26.682,Surprise recog test,2023.1.3,59.944419534207476,
48,0,48,0,,,,,,,,,,,,,,,,,,,,,,,,,,,,,,,,,,222.97284310000003,,221.3179255,221.3179255,221.3179255,221.3179255,old_sceneOut_2.png,49,4.0,1.6544058000000064,,,026,10,2025-01-16_14h05.26.682,Surprise recog test,2023.1.3,59.944419534207476,
49,0,49,0,,,,,,,,,,,,,,,,,,,,,,,,,,,,,,,,,,225.73714560000002,226.7503598,224.0003362,224.0003362,224.0003362,224.0003362,new_fruit_43.png,50,5.0,1.732863199999997,,,026,10,2025-01-16_14h05.26.682,Surprise recog test,2023.1.3,59.944419534207476,
50,0,50,0,,,,,,,,,,,,,,,,,,,,,,,,,,,,,,,,,,228.63938840000003,229.6437666,226.7503598,226.7503598,226.7503598,226.7503598,new_stationery_24.png,51,3.0,1.8823533000000339,,,026,10,2025-01-16_14h05.26.682,Surprise recog test,2023.1.3,59.944419534207476,
51,0,51,0,,,,,,,,,,,,,,,,,,,,,,,,,,,,,,,,,,233.62694420000003,234.63507070000003,229.6437666,229.6437666,229.6437666,229.6437666,old_stationery_22.png,52,5.0,3.9777324000000363,,,026,10,2025-01-16_14h05.26.682,Surprise recog test,2023.1.3,59.944419534207476,
52,0,52,0,,,,,,,,,,,,,,,,,,,,,,,,,,,,,,,,,,238.36426240000003,239.3700341,234.63507070000003,234.63507070000003,234.63507070000003,234.63507070000003,new_fruit_41.png,53,3.0,3.719373200000007,,,026,10,2025-01-16_14h05.26.682,Surprise recog test,2023.1.3,59.944419534207476,
53,0,53,0,,,,,,,,,,,,,,,,,,,,,,,,,,,,,,,,,,240.8161773,241.821124,239.3700341,239.3700341,239.3700341,239.3700341,new_fruit_10.png,54,5.0,1.4379950999999664,,,026,10,2025-01-16_14h05.26.682,Surprise recog test,2023.1.3,59.944419534207476,
54,0,54,0,,,,,,,,,,,,,,,,,,,,,,,,,,,,,,,,,,243.36754640000004,244.3737853,241.821124,241.821124,241.821124,241.821124,new_sceneOut_17.png,55,5.0,1.5429212000000234,,,026,10,2025-01-16_14h05.26.682,Surprise recog test,2023.1.3,59.944419534207476,
55,0,55,0,,,,,,,,,,,,,,,,,,,,,,,,,,,,,,,,,,245.3207494,246.33271590000004,244.3737853,244.3737853,244.3737853,244.3737853,old_sceneIn_12.png,56,5.0,0.941868999999997,,,026,10,2025-01-16_14h05.26.682,Surprise recog test,2023.1.3,59.944419534207476,
56,0,56,0,,,,,,,,,,,,,,,,,,,,,,,,,,,,,,,,,,247.366757,248.3770015,246.33271590000004,246.33271590000004,246.33271590000004,246.33271590000004,old_stationery_13.png,57,5.0,1.0313074000000029,,,026,10,2025-01-16_14h05.26.682,Surprise recog test,2023.1.3,59.944419534207476,
57,0,57,0,,,,,,,,,,,,,,,,,,,,,,,,,,,,,,,,,,250.0738649,251.08336730000002,248.3770015,248.3770015,248.3770015,248.3770015,new_sceneIn_49.png,58,5.0,1.689040699999964,,,026,10,2025-01-16_14h05.26.682,Surprise recog test,2023.1.3,59.944419534207476,
58,0,58,0,,,,,,,,,,,,,,,,,,,,,,,,,,,,,,,,,,253.8193989,254.83215180000002,251.08336730000002,251.08336730000002,251.08336730000002,251.08336730000002,old_stationery_20.png,59,5.0,2.7340310999999815,,,026,10,2025-01-16_14h05.26.682,Surprise recog test,2023.1.3,59.944419534207476,
59,0,59,0,,,,,,,,,,,,,,,,,,,,,,,,,,,,,,,,,,257.6780948,258.6974664,254.83215180000002,254.83215180000002,254.83215180000002,254.83215180000002,old_fruit_43.png,60,3.0,2.841437400000018,,,026,10,2025-01-16_14h05.26.682,Surprise recog test,2023.1.3,59.944419534207476,
60,0,60,0,,,,,,,,,,,,,,,,,,,,,,,,,,,,,,,,,,261.6938965,262.7097465,258.6974664,258.6974664,258.6974664,258.6974664,old_sceneIn_31.png,61,3.0,2.998684199999957,,,026,10,2025-01-16_14h05.26.682,Surprise recog test,2023.1.3,59.944419534207476,
61,0,61,0,,,,,,,,,,,,,,,,,,,,,,,,,,,,,,,,,,264.00330280000003,265.0153346,262.7097465,262.7097465,262.7097465,262.7097465,new_sceneIn_2.png,62,5.0,1.2887666999999965,,,026,10,2025-01-16_14h05.26.682,Surprise recog test,2023.1.3,59.944419534207476,
62,0,62,0,,,,,,,,,,,,,,,,,,,,,,,,,,,,,,,,,,266.1771997,267.19281950000004,265.0153346,265.0153346,265.0153346,265.0153346,old_sceneIn_16.png,63,5.0,1.1611002000000212,,,026,10,2025-01-16_14h05.26.682,Surprise recog test,2023.1.3,59.944419534207476,
63,0,63,0,,,,,,,,,,,,,,,,,,,,,,,,,,,,,,,,,,269.0117851,270.0417171,267.19281950000004,267.19281950000004,267.19281950000004,267.19281950000004,old_fruit_22.png,64,1.0,1.8142750000000092,,,026,10,2025-01-16_14h05.26.682,Surprise recog test,2023.1.3,59.944419534207476,
64,0,64,0,,,,,,,,,,,,,,,,,,,,,,,,,,,,,,,,,,271.5730448,272.5985868,270.0417171,270.0417171,270.0417171,270.0417171,new_fruit_21.png,65,1.0,1.5281497000000286,,,026,10,2025-01-16_14h05.26.682,Surprise recog test,2023.1.3,59.944419534207476,
65,0,65,0,,,,,,,,,,,,,,,,,,,,,,,,,,,,,,,,,,274.2646603,,272.5985868,272.5985868,272.5985868,272.5985868,new_fruit_1.png,66,4.0,1.6677799999999934,,,026,10,2025-01-16_14h05.26.682,Surprise recog test,2023.1.3,59.944419534207476,
66,0,66,0,,,,,,,,,,,,,,,,,,,,,,,,,,,,,,,,,,277.7883369,278.81694650000003,275.2849646,275.2849646,275.2849646,275.2849646,new_sceneOut_6.png,67,4.0,2.4994947999999795,,,026,10,2025-01-16_14h05.26.682,Surprise recog test,2023.1.3,59.944419534207476,
67,0,67,0,,,,,,,,,,,,,,,,,,,,,,,,,,,,,,,,,,281.2997914,282.3259201,278.81694650000003,278.81694650000003,278.81694650000003,278.81694650000003,old_stationery_1.png,68,5.0,2.4792339999999626,,,026,10,2025-01-16_14h05.26.682,Surprise recog test,2023.1.3,59.944419534207476,
68,0,68,0,,,,,,,,,,,,,,,,,,,,,,,,,,,,,,,,,,284.3229541,,282.3259201,282.3259201,282.3259201,282.3259201,new_fruit_47.png,69,5.0,1.999614500000007,,,026,10,2025-01-16_14h05.26.682,Surprise recog test,2023.1.3,59.944419534207476,
69,0,69,0,,,,,,,,,,,,,,,,,,,,,,,,,,,,,,,,,,287.2888699,288.3095599,285.3540644,285.3540644,285.3540644,285.3540644,old_sceneIn_5.png,70,5.0,1.9346014999999852,,,026,10,2025-01-16_14h05.26.682,Surprise recog test,2023.1.3,59.944419534207476,
70,0,70,0,,,,,,,,,,,,,,,,,,,,,,,,,,,,,,,,,,289.9499824,290.9615503,288.3095599,288.3095599,288.3095599,288.3095599,new_fruit_22.png,71,2.0,1.6418436999999813,,,026,10,2025-01-16_14h05.26.682,Surprise recog test,2023.1.3,59.944419534207476,
71,0,71,0,,,,,,,,,,,,,,,,,,,,,,,,,,,,,,,,,,292.7012411,293.7287175,290.9615503,290.9615503,290.9615503,290.9615503,new_fruit_45.png,72,4.0,1.7351439000000255,,,026,10,2025-01-16_14h05.26.682,Surprise recog test,2023.1.3,59.944419534207476,
72,0,72,0,,,,,,,,,,,,,,,,,,,,,,,,,,,,,,,,,,295.1892965,296.2077163,293.7287175,293.7287175,293.7287175,293.7287175,new_sceneOut_20.png,73,5.0,1.4617099999999823,,,026,10,2025-01-16_14h05.26.682,Surprise recog test,2023.1.3,59.944419534207476,
73,0,73,0,,,,,,,,,,,,,,,,,,,,,,,,,,,,,,,,,,298.3041595,299.3285881,296.2077163,296.2077163,296.2077163,296.2077163,new_sceneOut_28.png,74,4.0,2.0968290999999795,,,026,10,2025-01-16_14h05.26.682,Surprise recog test,2023.1.3,59.944419534207476,
74,0,74,0,,,,,,,,,,,,,,,,,,,,,,,,,,,,,,,,,,303.601536,304.6213725,299.3285881,299.3285881,299.3285881,299.3285881,old_stationery_6.png,75,3.0,4.273450700000012,,,026,10,2025-01-16_14h05.26.682,Surprise recog test,2023.1.3,59.944419534207476,
75,0,75,0,,,,,,,,,,,,,,,,,,,,,,,,,,,,,,,,,,306.2767361,307.2917777,304.6213725,304.6213725,304.6213725,304.6213725,old_fruit_6.png,76,1.0,1.6562164000000053,,,026,10,2025-01-16_14h05.26.682,Surprise recog test,2023.1.3,59.944419534207476,
76,0,76,0,,,,,,,,,,,,,,,,,,,,,,,,,,,,,,,,,,309.0260951,,307.2917777,307.2917777,307.2917777,307.2917777,old_sceneIn_27.png,77,5.0,1.7277885999999967,,,026,10,2025-01-16_14h05.26.682,Surprise recog test,2023.1.3,59.944419534207476,
77,0,77,0,,,,,,,,,,,,,,,,,,,,,,,,,,,,,,,,,,313.9364726,314.9490172,310.0498713,310.0498713,310.0498713,310.0498713,old_sceneOut_43.png,78,5.0,3.8860998999999765,,,026,10,2025-01-16_14h05.26.682,Surprise recog test,2023.1.3,59.944419534207476,
78,0,78,0,,,,,,,,,,,,,,,,,,,,,,,,,,,,,,,,,,316.3246701,317.3450752,314.9490172,314.9490172,314.9490172,314.9490172,old_sceneIn_25.png,79,5.0,1.3712988999999993,,,026,10,2025-01-16_14h05.26.682,Surprise recog test,2023.1.3,59.944419534207476,
79,0,79,0,,,,,,,,,,,,,,,,,,,,,,,,,,,,,,,,,,319.7094913,320.7229716,317.3450752,317.3450752,317.3450752,317.3450752,old_stationery_2.png,80,4.0,2.366722399999958,,,026,10,2025-01-16_14h05.26.682,Surprise recog test,2023.1.3,59.944419534207476,
80,0,80,0,,,,,,,,,,,,,,,,,,,,,,,,,,,,,,,,,,322.4487527,323.4733865,320.7229716,320.7229716,320.7229716,320.7229716,new_sceneIn_33.png,81,5.0,1.719287099999974,,,026,10,2025-01-16_14h05.26.682,Surprise recog test,2023.1.3,59.944419534207476,
81,0,81,0,,,,,,,,,,,,,,,,,,,,,,,,,,,,,,,,,,326.29643960000004,327.32853370000004,323.4733865,323.4733865,323.4733865,323.4733865,new_fruit_29.png,82,5.0,2.825613099999998,,,026,10,2025-01-16_14h05.26.682,Surprise recog test,2023.1.3,59.944419534207476,
82,0,82,0,,,,,,,,,,,,,,,,,,,,,,,,,,,,,,,,,,330.0934595,,327.32853370000004,327.32853370000004,327.32853370000004,327.32853370000004,old_fruit_34.png,83,4.0,2.765499499999976,,,026,10,2025-01-16_14h05.26.682,Surprise recog test,2023.1.3,59.944419534207476,
83,0,83,0,,,,,,,,,,,,,,,,,,,,,,,,,,,,,,,,,,333.04428740000003,334.0619582,331.1154144,331.1154144,331.1154144,331.1154144,old_fruit_2.png,84,1.0,1.9239684000000352,,,026,10,2025-01-16_14h05.26.682,Surprise recog test,2023.1.3,59.944419534207476,
84,0,84,0,,,,,,,,,,,,,,,,,,,,,,,,,,,,,,,,,,336.55868180000004,337.579694,334.0619582,334.0619582,334.0619582,334.0619582,new_sceneIn_7.png,85,4.0,2.498519799999997,,,026,10,2025-01-16_14h05.26.682,Surprise recog test,2023.1.3,59.944419534207476,
85,0,85,0,,,,,,,,,,,,,,,,,,,,,,,,,,,,,,,,,,339.2318042,340.2358319,337.579694,337.579694,337.579694,337.579694,new_sceneOut_8.png,86,5.0,1.6530349000000228,,,026,10,2025-01-16_14h05.26.682,Surprise recog test,2023.1.3,59.944419534207476,
86,0,86,0,,,,,,,,,,,,,,,,,,,,,,,,,,,,,,,,,,341.8983868,342.91924550000005,340.2358319,340.2358319,340.2358319,340.2358319,old_stationery_12.png,87,5.0,1.6585633000000257,,,026,10,2025-01-16_14h05.26.682,Surprise recog test,2023.1.3,59.944419534207476,
87,0,87,0,,,,,,,,,,,,,,,,,,,,,,,,,,,,,,,,,,344.312813,345.3419526,342.91924550000005,342.91924550000005,342.91924550000005,342.91924550000005,old_sceneOut_7.png,88,4.0,1.3956687000000443,,,026,10,2025-01-16_14h05.26.682,Surprise recog test,2023.1.3,59.944419534207476,
88,0,88,0,,,,,,,,,,,,,,,,,,,,,,,,,,,,,,,,,,346.7593772,347.77942240000004,345.3419526,345.3419526,345.3419526,345.3419526,old_sceneIn_6.png,89,5.0,1.417660499999954,,,026,10,2025-01-16_14h05.26.682,Surprise recog test,2023.1.3,59.944419534207476,
89,0,89,0,,,,,,,,,,,,,,,,,,,,,,,,,,,,,,,,,,350.32194810000004,351.3390473,347.77942240000004,347.77942240000004,347.77942240000004,347.77942240000004,old_fruit_37.png,90,4.0,2.530139599999984,,,026,10,2025-01-16_14h05.26.682,Surprise recog test,2023.1.3,59.944419534207476,
90,0,90,0,,,,,,,,,,,,,,,,,,,,,,,,,,,,,,,,,,354.3313771,,351.3390473,351.3390473,351.3390473,351.3390473,new_stationery_25.png,91,4.0,2.994056700000044,,,026,10,2025-01-16_14h05.26.682,Surprise recog test,2023.1.3,59.944419534207476,
91,0,91,0,,,,,,,,,,,,,,,,,,,,,,,,,,,,,,,,,,358.88107510000003,359.8977487,355.35970330000004,355.35970330000004,355.35970330000004,355.35970330000004,new_sceneIn_37.png,92,3.0,3.522620599999982,,,026,10,2025-01-16_14h05.26.682,Surprise recog test,2023.1.3,59.944419534207476,
92,0,92,0,,,,,,,,,,,,,,,,,,,,,,,,,,,,,,,,,,361.9158011,362.9277096,359.8977487,359.8977487,359.8977487,359.8977487,new_stationery_23.png,93,4.0,2.0185001000000398,,,026,10,2025-01-16_14h05.26.682,Surprise recog test,2023.1.3,59.944419534207476,
93,0,93,0,,,,,,,,,,,,,,,,,,,,,,,,,,,,,,,,,,364.62761620000003,365.6401804,362.9277096,362.9277096,362.9277096,362.9277096,old_sceneIn_45.png,94,5.0,1.6996217999999885,,,026,10,2025-01-16_14h05.26.682,Surprise recog test,2023.1.3,59.944419534207476,
94,0,94,0,,,,,,,,,,,,,,,,,,,,,,,,,,,,,,,,,,367.2967396,368.31125360000004,365.6401804,365.6401804,365.6401804,365.6401804,new_sceneOut_25.png,95,4.0,1.6522666999999842,,,026,10,2025-01-16_14h05.26.682,Surprise recog test,2023.1.3,59.944419534207476,
95,0,95,0,,,,,,,,,,,,,,,,,,,,,,,,,,,,,,,,,,370.4156138,371.4333742,368.31125360000004,368.31125360000004,368.31125360000004,368.31125360000004,new_sceneOut_50.png,96,5.0,2.099486899999988,,,026,10,2025-01-16_14h05.26.682,Surprise recog test,2023.1.3,59.944419534207476,
96,0,96,0,,,,,,,,,,,,,,,,,,,,,,,,,,,,,,,,,,374.5067017,375.5255057,371.4333742,371.4333742,371.4333742,371.4333742,old_stationery_38.png,97,3.0,3.0686547999999902,,,026,10,2025-01-16_14h05.26.682,Surprise recog test,2023.1.3,59.944419534207476,
97,0,97,0,,,,,,,,,,,,,,,,,,,,,,,,,,,,,,,,,,377.82546360000003,378.8392724,375.5255057,375.5255057,375.5255057,375.5255057,old_sceneIn_2.png,98,5.0,2.3012681999999813,,,026,10,2025-01-16_14h05.26.682,Surprise recog test,2023.1.3,59.944419534207476,
98,0,98,0,,,,,,,,,,,,,,,,,,,,,,,,,,,,,,,,,,380.5492873,381.55682870000004,378.8392724,378.8392724,378.8392724,378.8392724,old_sceneIn_47.png,99,5.0,1.7002323000000388,,,026,10,2025-01-16_14h05.26.682,Surprise recog test,2023.1.3,59.944419534207476,
99,0,99,0,,,,,,,,,,,,,,,,,,,,,,,,,,,,,,,,,,383.79747030000004,384.8214914,381.55682870000004,381.55682870000004,381.55682870000004,381.55682870000004,new_stationery_32.png,100,4.0,2.236050700000021,,,026,10,2025-01-16_14h05.26.682,Surprise recog test,2023.1.3,59.944419534207476,
100,0,100,0,,,,,,,,,,,,,,,,,,,,,,,,,,,,,,,,,,386.33682780000004,387.3456766,384.8214914,384.8214914,384.8214914,384.8214914,new_sceneIn_50.png,101,4.0,1.515081699999996,,,026,10,2025-01-16_14h05.26.682,Surprise recog test,2023.1.3,59.944419534207476,
101,0,101,0,,,,,,,,,,,,,,,,,,,,,,,,,,,,,,,,,,390.5504718,391.58465520000004,387.3456766,387.3456766,387.3456766,387.3456766,old_fruit_16.png,102,4.0,3.1984842999999614,,,026,10,2025-01-16_14h05.26.682,Surprise recog test,2023.1.3,59.944419534207476,
102,0,102,0,,,,,,,,,,,,,,,,,,,,,,,,,,,,,,,,,,395.150751,396.1752612,391.58465520000004,391.58465520000004,391.58465520000004,391.58465520000004,new_stationery_34.png,103,5.0,3.5701356999999803,,,026,10,2025-01-16_14h05.26.682,Surprise recog test,2023.1.3,59.944419534207476,
103,0,103,0,,,,,,,,,,,,,,,,,,,,,,,,,,,,,,,,,,397.3894773,398.4157985,396.1752612,396.1752612,396.1752612,396.1752612,old_sceneOut_28.png,104,5.0,1.2126592999999843,,,026,10,2025-01-16_14h05.26.682,Surprise recog test,2023.1.3,59.944419534207476,
104,0,104,0,,,,,,,,,,,,,,,,,,,,,,,,,,,,,,,,,,399.39476210000004,400.4064373,398.4157985,398.4157985,398.4157985,398.4157985,new_sceneOut_22.png,105,5.0,0.9817670999999564,,,026,10,2025-01-16_14h05.26.682,Surprise recog test,2023.1.3,59.944419534207476,
105,0,105,0,,,,,,,,,,,,,,,,,,,,,,,,,,,,,,,,,,401.46332820000003,402.483339,400.4064373,400.4064373,400.4064373,400.4064373,new_sceneIn_38.png,106,5.0,1.0502202000000125,,,026,10,2025-01-16_14h05.26.682,Surprise recog test,2023.1.3,59.944419534207476,
106,0,106,0,,,,,,,,,,,,,,,,,,,,,,,,,,,,,,,,,,403.88646930000004,404.9099949,402.483339,402.483339,402.483339,402.483339,old_sceneOut_10.png,107,5.0,1.4026135000000295,,,026,10,2025-01-16_14h05.26.682,Surprise recog test,2023.1.3,59.944419534207476,
107,0,107,0,,,,,,,,,,,,,,,,,,,,,,,,,,,,,,,,,,406.3942794,407.4195507,404.9099949,404.9099949,404.9099949,404.9099949,new_sceneIn_42.png,108,5.0,1.484308800000008,,,026,10,2025-01-16_14h05.26.682,Surprise recog test,2023.1.3,59.944419534207476,
108,0,108,0,,,,,,,,,,,,,,,,,,,,,,,,,,,,,,,,,,410.6092617,411.6205814,407.4195507,407.4195507,407.4195507,407.4195507,new_fruit_48.png,109,4.0,3.191171899999972,,,026,10,2025-01-16_14h05.26.682,Surprise recog test,2023.1.3,59.944419534207476,
109,0,109,0,,,,,,,,,,,,,,,,,,,,,,,,,,,,,,,,,,413.4946532,414.51406990000004,411.6205814,411.6205814,411.6205814,411.6205814,new_sceneIn_13.png,110,5.0,1.8722882999999797,,,026,10,2025-01-16_14h05.26.682,Surprise recog test,2023.1.3,59.944419534207476,
110,0,110,0,,,,,,,,,,,,,,,,,,,,,,,,,,,,,,,,,,415.45522470000003,416.4686027,414.51406990000004,414.51406990000004,414.51406990000004,414.51406990000004,new_sceneIn_14.png,111,5.0,0.9426396000000068,,,026,10,2025-01-16_14h05.26.682,Surprise recog test,2023.1.3,59.944419534207476,
111,0,111,0,,,,,,,,,,,,,,,,,,,,,,,,,,,,,,,,,,418.78270150000003,,416.4686027,416.4686027,416.4686027,416.4686027,old_fruit_29.png,112,5.0,2.311904800000036,,,026,10,2025-01-16_14h05.26.682,Surprise recog test,2023.1.3,59.944419534207476,
112,0,112,0,,,,,,,,,,,,,,,,,,,,,,,,,,,,,,,,,,422.1003797,423.11921900000004,419.8114795,419.8114795,419.8114795,419.8114795,new_stationery_1.png,113,4.0,2.285578799999996,,,026,10,2025-01-16_14h05.26.682,Surprise recog test,2023.1.3,59.944419534207476,
113,0,113,0,,,,,,,,,,,,,,,,,,,,,,,,,,,,,,,,,,424.25008410000004,425.2663729,423.11921900000004,423.11921900000004,423.11921900000004,423.11921900000004,old_sceneIn_26.png,114,4.0,1.1347880999999802,,,026,10,2025-01-16_14h05.26.682,Surprise recog test,2023.1.3,59.944419534207476,
114,0,114,0,,,,,,,,,,,,,,,,,,,,,,,,,,,,,,,,,,426.6877961,427.6972264,425.2663729,425.2663729,425.2663729,425.2663729,new_sceneIn_34.png,115,5.0,1.4194135000000188,,,026,10,2025-01-16_14h05.26.682,Surprise recog test,2023.1.3,59.944419534207476,
115,0,115,0,,,,,,,,,,,,,,,,,,,,,,,,,,,,,,,,,,429.50157709999996,430.52294330000007,427.6972264,427.6972264,427.6972264,427.6972264,old_fruit_35.png,116,1.0,1.8004995000000008,,,026,10,2025-01-16_14h05.26.682,Surprise recog test,2023.1.3,59.944419534207476,
116,0,116,0,,,,,,,,,,,,,,,,,,,,,,,,,,,,,,,,,,432.1462908,,430.52294330000007,430.52294330000007,430.52294330000007,430.52294330000007,new_stationery_8.png,117,4.0,1.6254377000000204,,,026,10,2025-01-16_14h05.26.682,Surprise recog test,2023.1.3,59.944419534207476,
117,0,117,0,,,,,,,,,,,,,,,,,,,,,,,,,,,,,,,,,,434.92050830000005,435.94687039999997,433.1674163,433.1674163,433.1674163,433.1674163,new_fruit_23.png,118,3.0,1.7466604999999618,,,026,10,2025-01-16_14h05.26.682,Surprise recog test,2023.1.3,59.944419534207476,
118,0,118,0,,,,,,,,,,,,,,,,,,,,,,,,,,,,,,,,,,437.9897482,439.0048647,435.94687039999997,435.94687039999997,435.94687039999997,435.94687039999997,new_stationery_22.png,119,4.0,2.04538679999996,,,026,10,2025-01-16_14h05.26.682,Surprise recog test,2023.1.3,59.944419534207476,
119,0,119,0,,,,,,,,,,,,,,,,,,,,,,,,,,,,,,,,,,441.4238252,442.44013900000004,439.0048647,439.0048647,439.0048647,439.0048647,old_sceneOut_12.png,120,5.0,2.4144450999999663,,,026,10,2025-01-16_14h05.26.682,Surprise recog test,2023.1.3,59.944419534207476,
120,0,120,0,,,,,,,,,,,,,,,,,,,,,,,,,,,,,,,,,,444.6386182,,442.44013900000004,442.44013900000004,442.44013900000004,442.44013900000004,new_fruit_20.png,121,4.0,2.1964962999999216,,,026,10,2025-01-16_14h05.26.682,Surprise recog test,2023.1.3,59.944419534207476,
121,0,121,0,,,,,,,,,,,,,,,,,,,,,,,,,,,,,,,,,,449.3229569,450.3429846,445.66953710000007,445.66953710000007,445.66953710000007,445.66953710000007,new_fruit_13.png,122,4.0,3.6496890000000803,,,026,10,2025-01-16_14h05.26.682,Surprise recog test,2023.1.3,59.944419534207476,
122,0,122,0,,,,,,,,,,,,,,,,,,,,,,,,,,,,,,,,,,454.03516850000005,455.06705980000004,450.3429846,450.3429846,450.3429846,450.3429846,new_stationery_9.png,123,3.0,3.691930500000012,,,026,10,2025-01-16_14h05.26.682,Surprise recog test,2023.1.3,59.944419534207476,
123,0,123,0,,,,,,,,,,,,,,,,,,,,,,,,,,,,,,,,,,457.1262293,458.13944000000004,455.06705980000004,455.06705980000004,455.06705980000004,455.06705980000004,old_sceneIn_1.png,124,5.0,2.0614638000000696,,,026,10,2025-01-16_14h05.26.682,Surprise recog test,2023.1.3,59.944419534207476,
124,0,124,0,,,,,,,,,,,,,,,,,,,,,,,,,,,,,,,,,,459.798494,460.81422940000004,458.13944000000004,458.13944000000004,458.13944000000004,458.13944000000004,new_sceneIn_27.png,125,4.0,1.6586802999999009,,,026,10,2025-01-16_14h05.26.682,Surprise recog test,2023.1.3,59.944419534207476,
125,0,125,0,,,,,,,,,,,,,,,,,,,,,,,,,,,,,,,,,,462.4656434,463.4878582,460.81422940000004,460.81422940000004,460.81422940000004,460.81422940000004,new_sceneIn_36.png,126,5.0,1.6529391999999916,,,026,10,2025-01-16_14h05.26.682,Surprise recog test,2023.1.3,59.944419534207476,
126,0,126,0,,,,,,,,,,,,,,,,,,,,,,,,,,,,,,,,,,465.3949891,466.4191995,463.4878582,463.4878582,463.4878582,463.4878582,old_sceneIn_35.png,127,5.0,1.9083871000000272,,,026,10,2025-01-16_14h05.26.682,Surprise recog test,2023.1.3,59.944419534207476,
127,0,127,0,,,,,,,,,,,,,,,,,,,,,,,,,,,,,,,,,,468.39581880000003,469.42304160000003,466.4191995,466.4191995,466.4191995,466.4191995,old_sceneOut_31.png,128,4.0,1.9778542000000243,,,026,10,2025-01-16_14h05.26.682,Surprise recog test,2023.1.3,59.944419534207476,
128,0,128,0,,,,,,,,,,,,,,,,,,,,,,,,,,,,,,,,,,470.9828851,472.00403500000004,469.42304160000003,469.42304160000003,469.42304160000003,469.42304160000003,new_stationery_16.png,129,4.0,1.5602424000001065,,,026,10,2025-01-16_14h05.26.682,Surprise recog test,2023.1.3,59.944419534207476,
129,0,129,0,,,,,,,,,,,,,,,,,,,,,,,,,,,,,,,,,,473.54320770000004,474.56082520000007,472.00403500000004,472.00403500000004,472.00403500000004,472.00403500000004,old_sceneOut_19.png,130,5.0,1.5371973999999682,,,026,10,2025-01-16_14h05.26.682,Surprise recog test,2023.1.3,59.944419534207476,
130,0,130,0,,,,,,,,,,,,,,,,,,,,,,,,,,,,,,,,,,475.44799320000004,,474.56082520000007,474.56082520000007,474.56082520000007,474.56082520000007,old_sceneOut_18.png,131,5.0,0.8858642000000145,,,026,10,2025-01-16_14h05.26.682,Surprise recog test,2023.1.3,59.944419534207476,
131,0,131,0,,,,,,,,,,,,,,,,,,,,,,,,,,,,,,,,,,477.80865670000003,478.828404,476.4758922,476.4758922,476.4758922,476.4758922,new_sceneOut_45.png,132,5.0,1.3340845000000172,,,026,10,2025-01-16_14h05.26.682,Surprise recog test,2023.1.3,59.944419534207476,
132,0,132,0,,,,,,,,,,,,,,,,,,,,,,,,,,,,,,,,,,479.7488337,480.7532288,478.828404,478.828404,478.828404,478.828404,old_sceneIn_39.png,133,5.0,0.9222006999999621,,,026,10,2025-01-16_14h05.26.682,Surprise recog test,2023.1.3,59.944419534207476,
133,0,133,0,,,,,,,,,,,,,,,,,,,,,,,,,,,,,,,,,,482.59116460000007,483.6120627,480.7532288,480.7532288,480.7532288,480.7532288,new_fruit_11.png,134,4.0,1.8334274999999707,,,026,10,2025-01-16_14h05.26.682,Surprise recog test,2023.1.3,59.944419534207476,
134,0,134,0,,,,,,,,,,,,,,,,,,,,,,,,,,,,,,,,,,485.9757975,487.00048300000003,483.6120627,483.6120627,483.6120627,483.6120627,new_sceneIn_1.png,135,5.0,2.3619833999999855,,,026,10,2025-01-16_14h05.26.682,Surprise recog test,2023.1.3,59.944419534207476,
135,0,135,0,,,,,,,,,,,,,,,,,,,,,,,,,,,,,,,,,,490.3156772,491.33078439999997,487.00048300000003,487.00048300000003,487.00048300000003,487.00048300000003,new_stationery_47.png,136,5.0,3.313636200000019,,,026,10,2025-01-16_14h05.26.682,Surprise recog test,2023.1.3,59.944419534207476,
136,0,136,0,,,,,,,,,,,,,,,,,,,,,,,,,,,,,,,,,,492.40706880000005,493.42397619999997,491.33078439999997,491.33078439999997,491.33078439999997,491.33078439999997,new_sceneOut_39.png,137,5.0,1.0736189000000422,,,026,10,2025-01-16_14h05.26.682,Surprise recog test,2023.1.3,59.944419534207476,
137,0,137,0,,,,,,,,,,,,,,,,,,,,,,,,,,,,,,,,,,496.7962993,497.8038589,493.42397619999997,493.42397619999997,493.42397619999997,493.42397619999997,new_sceneOut_44.png,138,3.0,3.37152930000002,,,026,10,2025-01-16_14h05.26.682,Surprise recog test,2023.1.3,59.944419534207476,
138,0,138,0,,,,,,,,,,,,,,,,,,,,,,,,,,,,,,,,,,500.8214769,501.8535613,497.8038589,497.8038589,497.8038589,497.8038589,old_fruit_27.png,139,3.0,3.0169442999999774,,,026,10,2025-01-16_14h05.26.682,Surprise recog test,2023.1.3,59.944419534207476,
139,0,139,0,,,,,,,,,,,,,,,,,,,,,,,,,,,,,,,,,,504.07498240000007,505.08991690000005,501.8535613,501.8535613,501.8535613,501.8535613,old_fruit_31.png,140,3.0,2.2219008000000713,,,026,10,2025-01-16_14h05.26.682,Surprise recog test,2023.1.3,59.944419534207476,
140,0,140,0,,,,,,,,,,,,,,,,,,,,,,,,,,,,,,,,,,506.549164,507.5608105,505.08991690000005,505.08991690000005,505.08991690000005,505.08991690000005,new_sceneIn_24.png,141,4.0,1.45555980000006,,,026,10,2025-01-16_14h05.26.682,Surprise recog test,2023.1.3,59.944419534207476,
141,0,141,0,,,,,,,,,,,,,,,,,,,,,,,,,,,,,,,,,,508.5453469,509.57530510000004,507.5608105,507.5608105,507.5608105,507.5608105,new_sceneOut_16.png,142,4.0,0.9808239000000185,,,026,10,2025-01-16_14h05.26.682,Surprise recog test,2023.1.3,59.944419534207476,
142,0,142,0,,,,,,,,,,,,,,,,,,,,,,,,,,,,,,,,,,510.6007078,511.6274648,509.57530510000004,509.57530510000004,509.57530510000004,509.57530510000004,old_sceneOut_13.png,143,4.0,1.0251870000000736,,,026,10,2025-01-16_14h05.26.682,Surprise recog test,2023.1.3,59.944419534207476,
143,0,143,0,,,,,,,,,,,,,,,,,,,,,,,,,,,,,,,,,,515.1147960000001,,511.6274648,511.6274648,511.6274648,511.6274648,new_stationery_12.png,144,3.0,3.4887136999999484,,,026,10,2025-01-16_14h05.26.682,Surprise recog test,2023.1.3,59.944419534207476,
144,0,144,0,,,,,,,,,,,,,,,,,,,,,,,,,,,,,,,,,,517.9301219,518.9388693,516.131928,516.131928,516.131928,516.131928,new_sceneOut_30.png,145,4.0,1.7942037999999911,,,026,10,2025-01-16_14h05.26.682,Surprise recog test,2023.1.3,59.944419534207476,
145,0,145,0,,,,,,,,,,,,,,,,,,,,,,,,,,,,,,,,,,520.5781173,521.5973733000001,518.9388693,518.9388693,518.9388693,518.9388693,new_stationery_29.png,146,5.0,1.6350661000000173,,,026,10,2025-01-16_14h05.26.682,Surprise recog test,2023.1.3,59.944419534207476,
146,0,146,0,,,,,,,,,,,,,,,,,,,,,,,,,,,,,,,,,,523.8501713,524.8648518,521.5973733000001,521.5973733000001,521.5973733000001,521.5973733000001,new_sceneOut_32.png,147,2.0,2.2546972999999753,,,026,10,2025-01-16_14h05.26.682,Surprise recog test,2023.1.3,59.944419534207476,
147,0,147,0,,,,,,,,,,,,,,,,,,,,,,,,,,,,,,,,,,527.3665263,528.3933575,524.8648518,524.8648518,524.8648518,524.8648518,new_fruit_36.png,148,2.0,2.502476099999967,,,026,10,2025-01-16_14h05.26.682,Surprise recog test,2023.1.3,59.944419534207476,
148,0,148,0,,,,,,,,,,,,,,,,,,,,,,,,,,,,,,,,,,530.8247796,531.8444079,528.3933575,528.3933575,528.3933575,528.3933575,old_sceneIn_40.png,149,4.0,2.4343152000000146,,,026,10,2025-01-16_14h05.26.682,Surprise recog test,2023.1.3,59.944419534207476,
149,0,149,0,,,,,,,,,,,,,,,,,,,,,,,,,,,,,,,,,,533.554621,534.5795666,531.8444079,531.8444079,531.8444079,531.8444079,old_sceneOut_36.png,150,5.0,1.711965599999985,,,026,10,2025-01-16_14h05.26.682,Surprise recog test,2023.1.3,59.944419534207476,
150,0,150,0,,,,,,,,,,,,,,,,,,,,,,,,,,,,,,,,,,536.3343937,537.3631746,534.5795666,534.5795666,534.5795666,534.5795666,old_fruit_36.png,151,1.0,1.7549445000000787,,,026,10,2025-01-16_14h05.26.682,Surprise recog test,2023.1.3,59.944419534207476,
151,0,151,0,,,,,,,,,,,,,,,,,,,,,,,,,,,,,,,,,,539.7272944,540.7449108000001,537.3631746,537.3631746,537.3631746,537.3631746,new_fruit_34.png,152,4.0,2.3645050000000083,,,026,10,2025-01-16_14h05.26.682,Surprise recog test,2023.1.3,59.944419534207476,
152,0,152,0,,,,,,,,,,,,,,,,,,,,,,,,,,,,,,,,,,543.7730575,544.8065952000001,540.7449108000001,540.7449108000001,540.7449108000001,540.7449108000001,old_stationery_27.png,153,3.0,3.0241686000000527,,,026,10,2025-01-16_14h05.26.682,Surprise recog test,2023.1.3,59.944419534207476,
153,0,153,0,,,,,,,,,,,,,,,,,,,,,,,,,,,,,,,,,,547.6105885000001,548.6367287,544.8065952000001,544.8065952000001,544.8065952000001,544.8065952000001,old_stationery_46.png,154,3.0,2.8051067000000103,,,026,10,2025-01-16_14h05.26.682,Surprise recog test,2023.1.3,59.944419534207476,
154,0,154,0,,,,,,,,,,,,,,,,,,,,,,,,,,,,,,,,,,549.9992837,551.0116342,548.6367287,548.6367287,548.6367287,548.6367287,old_sceneOut_1.png,155,4.0,1.3619873000000098,,,026,10,2025-01-16_14h05.26.682,Surprise recog test,2023.1.3,59.944419534207476,
155,0,155,0,,,,,,,,,,,,,,,,,,,,,,,,,,,,,,,,,,553.0926519,554.1050365,551.0116342,551.0116342,551.0116342,551.0116342,old_stationery_5.png,156,5.0,2.07658129999993,,,026,10,2025-01-16_14h05.26.682,Surprise recog test,2023.1.3,59.944419534207476,
156,0,156,0,,,,,,,,,,,,,,,,,,,,,,,,,,,,,,,,,,556.9457004,557.9537992,554.1050365,554.1050365,554.1050365,554.1050365,new_fruit_9.png,157,2.0,2.8414466000000402,,,026,10,2025-01-16_14h05.26.682,Surprise recog test,2023.1.3,59.944419534207476,
157,0,157,0,,,,,,,,,,,,,,,,,,,,,,,,,,,,,,,,,,559.7848727,,557.9537992,557.9537992,557.9537992,557.9537992,old_fruit_30.png,158,1.0,1.8271833000000015,,,026,10,2025-01-16_14h05.26.682,Surprise recog test,2023.1.3,59.944419534207476,
158,0,158,0,,,,,,,,,,,,,,,,,,,,,,,,,,,,,,,,,,562.4731492,563.4997356,560.8172527,560.8172527,560.8172527,560.8172527,new_sceneIn_20.png,159,4.0,1.6586124000000382,,,026,10,2025-01-16_14h05.26.682,Surprise recog test,2023.1.3,59.944419534207476,
159,0,159,0,,,,,,,,,,,,,,,,,,,,,,,,,,,,,,,,,,564.8394234,,563.4997356,563.4997356,563.4997356,563.4997356,new_sceneOut_41.png,160,4.0,1.3414132000000336,,,026,10,2025-01-16_14h05.26.682,Surprise recog test,2023.1.3,59.944419534207476,
160,0,160,0,,,,,,,,,,,,,,,,,,,,,,,,,,,,,,,,,,568.9454055,569.9764008,565.8753598000001,565.8753598000001,565.8753598000001,565.8753598000001,old_sceneOut_49.png,161,4.0,3.0716600000000653,,,026,10,2025-01-16_14h05.26.682,Surprise recog test,2023.1.3,59.944419534207476,
161,0,161,0,,,,,,,,,,,,,,,,,,,,,,,,,,,,,,,,,,572.2443966000001,,569.9764008,569.9764008,569.9764008,569.9764008,new_stationery_46.png,162,5.0,2.2682342000000517,,,026,10,2025-01-16_14h05.26.682,Surprise recog test,2023.1.3,59.944419534207476,
162,0,162,0,,,,,,,,,,,,,,,,,,,,,,,,,,,,,,,,,,575.38733,576.4136162,573.271972,573.271972,573.271972,573.271972,new_sceneOut_38.png,163,4.0,2.116680599999995,,,026,10,2025-01-16_14h05.26.682,Surprise recog test,2023.1.3,59.944419534207476,
163,0,163,0,,,,,,,,,,,,,,,,,,,,,,,,,,,,,,,,,,579.1164631,,576.4136162,576.4136162,576.4136162,576.4136162,new_sceneIn_19.png,164,3.0,2.704716200000007,,,026,10,2025-01-16_14h05.26.682,Surprise recog test,2023.1.3,59.944419534207476,
164,0,164,0,,,,,,,,,,,,,,,,,,,,,,,,,,,,,,,,,,584.1995511,585.2180749,580.1516924,580.1516924,580.1516924,580.1516924,old_fruit_10.png,165,3.0,4.050071099999968,,,026,10,2025-01-16_14h05.26.682,Surprise recog test,2023.1.3,59.944419534207476,
165,0,165,0,,,,,,,,,,,,,,,,,,,,,,,,,,,,,,,,,,588.5899006,589.6038373,585.2180749,585.2180749,585.2180749,585.2180749,new_stationery_4.png,166,4.0,3.3713033000000223,,,026,10,2025-01-16_14h05.26.682,Surprise recog test,2023.1.3,59.944419534207476,
166,0,166,0,,,,,,,,,,,,,,,,,,,,,,,,,,,,,,,,,,591.309101,592.3228292,589.6038373,589.6038373,589.6038373,589.6038373,old_sceneOut_20.png,167,5.0,1.7050884000000224,,,026,10,2025-01-16_14h05.26.682,Surprise recog test,2023.1.3,59.944419534207476,
167,0,167,0,,,,,,,,,,,,,,,,,,,,,,,,,,,,,,,,,,593.990821,595.0083044,592.3228292,592.3228292,592.3228292,592.3228292,new_sceneOut_26.png,168,5.0,1.6660545999999385,,,026,10,2025-01-16_14h05.26.682,Surprise recog test,2023.1.3,59.944419534207476,
168,0,168,0,,,,,,,,,,,,,,,,,,,,,,,,,,,,,,,,,,598.5047965,599.5183932,595.0083044,595.0083044,595.0083044,595.0083044,new_fruit_7.png,169,4.0,3.4904526999999916,,,026,10,2025-01-16_14h05.26.682,Surprise recog test,2023.1.3,59.944419534207476,
169,0,169,0,,,,,,,,,,,,,,,,,,,,,,,,,,,,,,,,,,601.4733243000001,602.4889691,599.5183932,599.5183932,599.5183932,599.5183932,new_sceneOut_40.png,170,3.0,1.9511917999999469,,,026,10,2025-01-16_14h05.26.682,Surprise recog test,2023.1.3,59.944419534207476,
170,0,170,0,,,,,,,,,,,,,,,,,,,,,,,,,,,,,,,,,,605.552226,606.5700360000001,602.4889691,602.4889691,602.4889691,602.4889691,old_stationery_35.png,171,5.0,3.0581525000000056,,,026,10,2025-01-16_14h05.26.682,Surprise recog test,2023.1.3,59.944419534207476,
171,0,171,0,,,,,,,,,,,,,,,,,,,,,,,,,,,,,,,,,,608.4721455,609.4880172000001,606.5700360000001,606.5700360000001,606.5700360000001,606.5700360000001,new_fruit_19.png,172,5.0,1.900252499999965,,,026,10,2025-01-16_14h05.26.682,Surprise recog test,2023.1.3,59.944419534207476,
172,0,172,0,,,,,,,,,,,,,,,,,,,,,,,,,,,,,,,,,,611.3919159000001,612.401204,609.4880172000001,609.4880172000001,609.4880172000001,609.4880172000001,old_stationery_40.png,173,2.0,1.9058048999999073,,,026,10,2025-01-16_14h05.26.682,Surprise recog test,2023.1.3,59.944419534207476,
173,0,173,0,,,,,,,,,,,,,,,,,,,,,,,,,,,,,,,,,,614.151492,615.1747227,612.401204,612.401204,612.401204,612.401204,old_sceneOut_16.png,174,4.0,1.7471245000000408,,,026,10,2025-01-16_14h05.26.682,Surprise recog test,2023.1.3,59.944419534207476,
174,0,174,0,,,,,,,,,,,,,,,,,,,,,,,,,,,,,,,,,,617.0963864,618.1153039000001,615.1747227,615.1747227,615.1747227,615.1747227,new_sceneOut_12.png,175,4.0,1.9208507999999256,,,026,10,2025-01-16_14h05.26.682,Surprise recog test,2023.1.3,59.944419534207476,
175,0,175,0,,,,,,,,,,,,,,,,,,,,,,,,,,,,,,,,,,619.8474177,620.8523116,618.1153039000001,618.1153039000001,618.1153039000001,618.1153039000001,new_sceneOut_33.png,176,3.0,1.7311196999999083,,,026,10,2025-01-16_14h05.26.682,Surprise recog test,2023.1.3,59.944419534207476,
176,0,176,0,,,,,,,,,,,,,,,,,,,,,,,,,,,,,,,,,,623.3828898,624.40552,620.8523116,620.8523116,620.8523116,620.8523116,new_stationery_42.png,177,5.0,2.5244908000000805,,,026,10,2025-01-16_14h05.26.682,Surprise recog test,2023.1.3,59.944419534207476,
177,0,177,0,,,,,,,,,,,,,,,,,,,,,,,,,,,,,,,,,,626.0340982,627.0439553,624.40552,624.40552,624.40552,624.40552,new_stationery_19.png,178,5.0,1.6318113999999468,,,026,10,2025-01-16_14h05.26.682,Surprise recog test,2023.1.3,59.944419534207476,
178,0,178,0,,,,,,,,,,,,,,,,,,,,,,,,,,,,,,,,,,628.4013491000001,629.4206392,627.0439553,627.0439553,627.0439553,627.0439553,new_sceneIn_31.png,179,5.0,1.3534294000000955,,,026,10,2025-01-16_14h05.26.682,Surprise recog test,2023.1.3,59.944419534207476,
179,0,179,0,,,,,,,,,,,,,,,,,,,,,,,,,,,,,,,,,,630.9544453,631.9657944,629.4206392,629.4206392,629.4206392,629.4206392,new_sceneOut_27.png,180,5.0,1.535906700000055,,,026,10,2025-01-16_14h05.26.682,Surprise recog test,2023.1.3,59.944419534207476,
180,0,180,0,,,,,,,,,,,,,,,,,,,,,,,,,,,,,,,,,,634.4606745,635.4799731,631.9657944,631.9657944,631.9657944,631.9657944,old_sceneIn_34.png,181,3.0,2.4887160999999196,,,026,10,2025-01-16_14h05.26.682,Surprise recog test,2023.1.3,59.944419534207476,
181,0,181,0,,,,,,,,,,,,,,,,,,,,,,,,,,,,,,,,,,638.901862,639.9365265,635.4799731,635.4799731,635.4799731,635.4799731,old_sceneOut_37.png,182,4.0,3.4232887999999093,,,026,10,2025-01-16_14h05.26.682,Surprise recog test,2023.1.3,59.944419534207476,
182,0,182,0,,,,,,,,,,,,,,,,,,,,,,,,,,,,,,,,,,643.9914425000001,645.0299049,639.9365265,639.9365265,639.9365265,639.9365265,new_sceneIn_35.png,183,3.0,4.058319900000015,,,026,10,2025-01-16_14h05.26.682,Surprise recog test,2023.1.3,59.944419534207476,
183,0,183,0,,,,,,,,,,,,,,,,,,,,,,,,,,,,,,,,,,648.5505369,649.5744614,645.0299049,645.0299049,645.0299049,645.0299049,old_sceneIn_41.png,184,3.0,3.5242435000000114,,,026,10,2025-01-16_14h05.26.682,Surprise recog test,2023.1.3,59.944419534207476,
184,0,184,0,,,,,,,,,,,,,,,,,,,,,,,,,,,,,,,,,,651.4335029,652.4626243,649.5744614,649.5744614,649.5744614,649.5744614,new_fruit_33.png,185,5.0,1.860896700000012,,,026,10,2025-01-16_14h05.26.682,Surprise recog test,2023.1.3,59.944419534207476,
185,0,185,0,,,,,,,,,,,,,,,,,,,,,,,,,,,,,,,,,,654.2478633000001,,652.4626243,652.4626243,652.4626243,652.4626243,new_fruit_25.png,186,1.0,1.786234400000012,,,026,10,2025-01-16_14h05.26.682,Surprise recog test,2023.1.3,59.944419534207476,
186,0,186,0,,,,,,,,,,,,,,,,,,,,,,,,,,,,,,,,,,657.5503413,,655.2655120000001,655.2655120000001,655.2655120000001,655.2655120000001,old_sceneIn_42.png,187,3.0,2.2819540000000416,,,026,10,2025-01-16_14h05.26.682,Surprise recog test,2023.1.3,59.944419534207476,
187,0,187,0,,,,,,,,,,,,,,,,,,,,,,,,,,,,,,,,,,661.0990551,662.1061146000001,658.5780932,658.5780932,658.5780932,658.5780932,old_fruit_46.png,188,3.0,2.5166926999999077,,,026,10,2025-01-16_14h05.26.682,Surprise recog test,2023.1.3,59.944419534207476,
188,0,188,0,,,,,,,,,,,,,,,,,,,,,,,,,,,,,,,,,,664.2247638,665.250528,662.1061146000001,662.1061146000001,662.1061146000001,662.1061146000001,new_fruit_26.png,189,2.0,2.1140075999999226,,,026,10,2025-01-16_14h05.26.682,Surprise recog test,2023.1.3,59.944419534207476,
189,0,189,0,,,,,,,,,,,,,,,,,,,,,,,,,,,,,,,,,,666.7240623,,665.250528,665.250528,665.250528,665.250528,new_sceneIn_47.png,190,4.0,1.4760181999999986,,,026,10,2025-01-16_14h05.26.682,Surprise recog test,2023.1.3,59.944419534207476,
190,0,190,0,,,,,,,,,,,,,,,,,,,,,,,,,,,,,,,,,,669.5717463,670.5906276000001,667.745887,667.745887,667.745887,667.745887,old_sceneIn_38.png,191,5.0,1.8212121999999908,,,026,10,2025-01-16_14h05.26.682,Surprise recog test,2023.1.3,59.944419534207476,
191,0,191,0,,,,,,,,,,,,,,,,,,,,,,,,,,,,,,,,,,672.2284893,,670.5906276000001,670.5906276000001,670.5906276000001,670.5906276000001,new_sceneIn_16.png,192,5.0,1.6409071999999014,,,026,10,2025-01-16_14h05.26.682,Surprise recog test,2023.1.3,59.944419534207476,
192,0,192,0,,,,,,,,,,,,,,,,,,,,,,,,,,,,,,,,,,675.019042,676.0429302,673.2455620000001,673.2455620000001,673.2455620000001,673.2455620000001,old_sceneIn_17.png,193,4.0,1.7694389000000683,,,026,10,2025-01-16_14h05.26.682,Surprise recog test,2023.1.3,59.944419534207476,
193,0,193,0,,,,,,,,,,,,,,,,,,,,,,,,,,,,,,,,,,677.8217894000001,678.8384602,676.0429302,676.0429302,676.0429302,676.0429302,new_stationery_35.png,194,1.0,1.7799923000000035,,,026,10,2025-01-16_14h05.26.682,Surprise recog test,2023.1.3,59.944419534207476,
194,0,194,0,,,,,,,,,,,,,,,,,,,,,,,,,,,,,,,,,,681.9244833,682.9473065,678.8384602,678.8384602,678.8384602,678.8384602,new_sceneIn_39.png,195,5.0,3.0817572999999356,,,026,10,2025-01-16_14h05.26.682,Surprise recog test,2023.1.3,59.944419534207476,
195,0,195,0,,,,,,,,,,,,,,,,,,,,,,,,,,,,,,,,,,684.6519496,685.672083,682.9473065,682.9473065,682.9473065,682.9473065,new_stationery_28.png,196,3.0,1.701179199999956,,,026,10,2025-01-16_14h05.26.682,Surprise recog test,2023.1.3,59.944419534207476,
196,0,196,0,,,,,,,,,,,,,,,,,,,,,,,,,,,,,,,,,,687.0707331,688.0922123,685.672083,685.672083,685.672083,685.672083,old_sceneIn_28.png,197,4.0,1.3986426000000165,,,026,10,2025-01-16_14h05.26.682,Surprise recog test,2023.1.3,59.944419534207476,
197,0,197,0,,,,,,,,,,,,,,,,,,,,,,,,,,,,,,,,,,689.4829749,690.5153768,688.0922123,688.0922123,688.0922123,688.0922123,new_sceneOut_24.png,198,4.0,1.3926083999999719,,,026,10,2025-01-16_14h05.26.682,Surprise recog test,2023.1.3,59.944419534207476,
198,0,198,0,,,,,,,,,,,,,,,,,,,,,,,,,,,,,,,,,,692.2382259,693.2482394,690.5153768,690.5153768,690.5153768,690.5153768,old_sceneOut_17.png,199,5.0,1.7278162000000066,,,026,10,2025-01-16_14h05.26.682,Surprise recog test,2023.1.3,59.944419534207476,
199,0,199,0,,,,,,,,,,,,,,,,,,,,,,,,,,,,,,,,,,696.3116979,697.3203368000001,693.2482394,693.2482394,693.2482394,693.2482394,new_fruit_30.png,200,4.0,3.053740599999969,,,026,10,2025-01-16_14h05.26.682,Surprise recog test,2023.1.3,59.944419534207476,
200,0,200,0,,,,,,,,,,,,,,,,,,,,,,,,,,,,,,,,,,698.8764879,699.9031644,697.3203368000001,697.3203368000001,697.3203368000001,697.3203368000001,old_sceneOut_14.png,201,5.0,1.5502476000000343,,,026,10,2025-01-16_14h05.26.682,Surprise recog test,2023.1.3,59.944419534207476,
201,0,201,0,,,,,,,,,,,,,,,,,,,,,,,,,,,,,,,,,,703.0096262000001,704.0231893,699.9031644,699.9031644,699.9031644,699.9031644,old_fruit_26.png,202,3.0,3.110492700000009,,,026,10,2025-01-16_14h05.26.682,Surprise recog test,2023.1.3,59.944419534207476,
202,0,202,0,,,,,,,,,,,,,,,,,,,,,,,,,,,,,,,,,,705.8112883,706.8286808,704.0231893,704.0231893,704.0231893,704.0231893,old_sceneOut_44.png,203,4.0,1.7855549999999312,,,026,10,2025-01-16_14h05.26.682,Surprise recog test,2023.1.3,59.944419534207476,
203,0,203,0,,,,,,,,,,,,,,,,,,,,,,,,,,,,,,,,,,709.7216271,710.7369346,706.8286808,706.8286808,706.8286808,706.8286808,new_sceneIn_44.png,204,5.0,2.887330700000007,,,026,10,2025-01-16_14h05.26.682,Surprise recog test,2023.1.3,59.944419534207476,
204,0,204,0,,,,,,,,,,,,,,,,,,,,,,,,,,,,,,,,,,714.3734218000001,715.3907473,710.7369346,710.7369346,710.7369346,710.7369346,old_sceneIn_37.png,205,2.0,3.634447800000089,,,026,10,2025-01-16_14h05.26.682,Surprise recog test,2023.1.3,59.944419534207476,
205,0,205,0,,,,,,,,,,,,,,,,,,,,,,,,,,,,,,,,,,718.2763996,719.2842108,715.3907473,715.3907473,715.3907473,715.3907473,old_stationery_15.png,206,5.0,2.8842069999999467,,,026,10,2025-01-16_14h05.26.682,Surprise recog test,2023.1.3,59.944419534207476,
206,0,206,0,,,,,,,,,,,,,,,,,,,,,,,,,,,,,,,,,,721.3504301,722.3633946,719.2842108,719.2842108,719.2842108,719.2842108,old_stationery_29.png,207,3.0,2.058584300000007,,,026,10,2025-01-16_14h05.26.682,Surprise recog test,2023.1.3,59.944419534207476,
207,0,207,0,,,,,,,,,,,,,,,,,,,,,,,,,,,,,,,,,,725.0159001000001,726.0353504,722.3633946,722.3633946,722.3633946,722.3633946,old_sceneOut_35.png,208,3.0,2.6533014999999978,,,026,10,2025-01-16_14h05.26.682,Surprise recog test,2023.1.3,59.944419534207476,
208,0,208,0,,,,,,,,,,,,,,,,,,,,,,,,,,,,,,,,,,729.3093192,,726.0353504,726.0353504,726.0353504,726.0353504,new_sceneIn_10.png,209,3.0,3.2772823000000244,,,026,10,2025-01-16_14h05.26.682,Surprise recog test,2023.1.3,59.944419534207476,
209,0,209,0,,,,,,,,,,,,,,,,,,,,,,,,,,,,,,,,,,732.1574127,733.1717732,730.3369337,730.3369337,730.3369337,730.3369337,old_stationery_43.png,210,4.0,1.8200819999999567,,,026,10,2025-01-16_14h05.26.682,Surprise recog test,2023.1.3,59.944419534207476,
210,0,210,0,,,,,,,,,,,,,,,,,,,,,,,,,,,,,,,,,,735.9977278,,733.1717732,733.1717732,733.1717732,733.1717732,old_stationery_42.png,211,4.0,2.8260719999999537,,,026,10,2025-01-16_14h05.26.682,Surprise recog test,2023.1.3,59.944419534207476,
211,0,211,0,,,,,,,,,,,,,,,,,,,,,,,,,,,,,,,,,,739.5537741,740.5836057,737.0382908,737.0382908,737.0382908,737.0382908,new_fruit_42.png,212,5.0,2.520550299999968,,,026,10,2025-01-16_14h05.26.682,Surprise recog test,2023.1.3,59.944419534207476,
212,0,212,0,,,,,,,,,,,,,,,,,,,,,,,,,,,,,,,,,,743.2365191,,740.5836057,740.5836057,740.5836057,740.5836057,old_sceneOut_46.png,213,4.0,2.653877399999942,,,026,10,2025-01-16_14h05.26.682,Surprise recog test,2023.1.3,59.944419534207476,
213,0,213,0,,,,,,,,,,,,,,,,,,,,,,,,,,,,,,,,,,746.0619473,747.0936738,744.2709627,744.2709627,744.2709627,744.2709627,new_sceneOut_43.png,214,2.0,1.7934999999999945,,,026,10,2025-01-16_14h05.26.682,Surprise recog test,2023.1.3,59.944419534207476,
214,0,214,0,,,,,,,,,,,,,,,,,,,,,,,,,,,,,,,,,,748.880317,749.9081313,747.0936738,747.0936738,747.0936738,747.0936738,new_stationery_10.png,215,4.0,1.792206100000044,,,026,10,2025-01-16_14h05.26.682,Surprise recog test,2023.1.3,59.944419534207476,
215,0,215,0,,,,,,,,,,,,,,,,,,,,,,,,,,,,,,,,,,751.6232149,752.6434756,749.9081313,749.9081313,749.9081313,749.9081313,old_sceneIn_30.png,216,4.0,1.7164937999999665,,,026,10,2025-01-16_14h05.26.682,Surprise recog test,2023.1.3,59.944419534207476,
216,0,216,0,,,,,,,,,,,,,,,,,,,,,,,,,,,,,,,,,,754.8793643,,752.6434756,752.6434756,752.6434756,752.6434756,new_sceneOut_46.png,217,3.0,2.2356168000000025,,,026,10,2025-01-16_14h05.26.682,Surprise recog test,2023.1.3,59.944419534207476,
217,0,217,0,,,,,,,,,,,,,,,,,,,,,,,,,,,,,,,,,,758.3438541,759.3555121,755.9016133,755.9016133,755.9016133,755.9016133,old_sceneIn_32.png,218,4.0,2.4383803999999145,,,026,10,2025-01-16_14h05.26.682,Surprise recog test,2023.1.3,59.944419534207476,
218,0,218,0,,,,,,,,,,,,,,,,,,,,,,,,,,,,,,,,,,761.8918753,762.9202374,759.3555121,759.3555121,759.3555121,759.3555121,old_fruit_44.png,219,3.0,2.532397500000002,,,026,10,2025-01-16_14h05.26.682,Surprise recog test,2023.1.3,59.944419534207476,
219,0,219,0,,,,,,,,,,,,,,,,,,,,,,,,,,,,,,,,,,765.758365,766.7894032,762.9202374,762.9202374,762.9202374,762.9202374,old_fruit_48.png,220,2.0,2.841150500000026,,,026,10,2025-01-16_14h05.26.682,Surprise recog test,2023.1.3,59.944419534207476,
220,0,220,0,,,,,,,,,,,,,,,,,,,,,,,,,,,,,,,,,,768.9750185,,766.7894032,766.7894032,766.7894032,766.7894032,new_fruit_18.png,221,4.0,2.1865255999999818,,,026,10,2025-01-16_14h05.26.682,Surprise recog test,2023.1.3,59.944419534207476,
221,0,221,0,,,,,,,,,,,,,,,,,,,,,,,,,,,,,,,,,,771.3215043,772.3412941,770.0035146,770.0035146,770.0035146,770.0035146,new_sceneIn_43.png,222,5.0,1.317487099999994,,,026,10,2025-01-16_14h05.26.682,Surprise recog test,2023.1.3,59.944419534207476,
222,0,222,0,,,,,,,,,,,,,,,,,,,,,,,,,,,,,,,,,,773.7199652,774.7541078,772.3412941,772.3412941,772.3412941,772.3412941,old_sceneIn_15.png,223,4.0,1.378148299999907,,,026,10,2025-01-16_14h05.26.682,Surprise recog test,2023.1.3,59.944419534207476,
223,0,223,0,,,,,,,,,,,,,,,,,,,,,,,,,,,,,,,,,,779.4076922,780.4337107,774.7541078,774.7541078,774.7541078,774.7541078,new_fruit_3.png,224,4.0,4.658392400000025,,,026,10,2025-01-16_14h05.26.682,Surprise recog test,2023.1.3,59.944419534207476,
224,0,224,0,,,,,,,,,,,,,,,,,,,,,,,,,,,,,,,,,,782.8681324,783.8749984,780.4337107,780.4337107,780.4337107,780.4337107,old_stationery_21.png,225,3.0,2.4369820000000573,,,026,10,2025-01-16_14h05.26.682,Surprise recog test,2023.1.3,59.944419534207476,
225,0,225,0,,,,,,,,,,,,,,,,,,,,,,,,,,,,,,,,,,785.2906129,786.3181458,783.8749984,783.8749984,783.8749984,783.8749984,old_stationery_32.png,226,4.0,1.4118525999999747,,,026,10,2025-01-16_14h05.26.682,Surprise recog test,2023.1.3,59.944419534207476,
226,0,226,0,,,,,,,,,,,,,,,,,,,,,,,,,,,,,,,,,,790.243322,,786.3181458,786.3181458,786.3181458,786.3181458,new_stationery_36.png,227,4.0,3.926176899999973,,,026,10,2025-01-16_14h05.26.682,Surprise recog test,2023.1.3,59.944419534207476,
227,0,227,0,,,,,,,,,,,,,,,,,,,,,,,,,,,,,,,,,,793.1359474,794.1562283000001,791.2605519,791.2605519,791.2605519,791.2605519,new_fruit_46.png,228,5.0,1.8713063999999804,,,026,10,2025-01-16_14h05.26.682,Surprise recog test,2023.1.3,59.944419534207476,
228,0,228,0,,,,,,,,,,,,,,,,,,,,,,,,,,,,,,,,,,796.5570495000001,797.5771685,794.1562283000001,794.1562283000001,794.1562283000001,794.1562283000001,old_sceneIn_13.png,229,4.0,2.4015024000000267,,,026,10,2025-01-16_14h05.26.682,Surprise recog test,2023.1.3,59.944419534207476,
229,0,229,0,,,,,,,,,,,,,,,,,,,,,,,,,,,,,,,,,,799.7016211,,797.5771685,797.5771685,797.5771685,797.5771685,new_sceneOut_9.png,230,5.0,2.122267899999997,,,026,10,2025-01-16_14h05.26.682,Surprise recog test,2023.1.3,59.944419534207476,
230,0,230,0,,,,,,,,,,,,,,,,,,,,,,,,,,,,,,,,,,802.1761416,803.2022198,800.7277666,800.7277666,800.7277666,800.7277666,old_sceneOut_21.png,231,5.0,1.4447724000000335,,,026,10,2025-01-16_14h05.26.682,Surprise recog test,2023.1.3,59.944419534207476,
231,0,231,0,,,,,,,,,,,,,,,,,,,,,,,,,,,,,,,,,,804.7197394,805.738156,803.2022198,803.2022198,803.2022198,803.2022198,old_stationery_41.png,232,4.0,1.519790999999941,,,026,10,2025-01-16_14h05.26.682,Surprise recog test,2023.1.3,59.944419534207476,
232,0,232,0,,,,,,,,,,,,,,,,,,,,,,,,,,,,,,,,,,808.100732,809.1276433,805.738156,805.738156,805.738156,805.738156,old_stationery_25.png,233,4.0,2.3621703000000025,,,026,10,2025-01-16_14h05.26.682,Surprise recog test,2023.1.3,59.944419534207476,
233,0,233,0,,,,,,,,,,,,,,,,,,,,,,,,,,,,,,,,,,812.2092441,813.2221582,809.1276433,809.1276433,809.1276433,809.1276433,new_sceneIn_32.png,234,4.0,3.0821988999999803,,,026,10,2025-01-16_14h05.26.682,Surprise recog test,2023.1.3,59.944419534207476,
234,0,234,0,,,,,,,,,,,,,,,,,,,,,,,,,,,,,,,,,,814.7156467,815.747719,813.2221582,813.2221582,813.2221582,813.2221582,old_fruit_4.png,235,1.0,1.492228999999952,,,026,10,2025-01-16_14h05.26.682,Surprise recog test,2023.1.3,59.944419534207476,
235,0,235,0,,,,,,,,,,,,,,,,,,,,,,,,,,,,,,,,,,816.9787956,817.9989955,815.747719,815.747719,815.747719,815.747719,old_sceneOut_9.png,236,4.0,1.2337969000000157,,,026,10,2025-01-16_14h05.26.682,Surprise recog test,2023.1.3,59.944419534207476,
236,0,236,0,,,,,,,,,,,,,,,,,,,,,,,,,,,,,,,,,,822.0750619,823.1046835,817.9989955,817.9989955,817.9989955,817.9989955,old_fruit_42.png,237,4.0,4.07889949999992,,,026,10,2025-01-16_14h05.26.682,Surprise recog test,2023.1.3,59.944419534207476,
237,0,237,0,,,,,,,,,,,,,,,,,,,,,,,,,,,,,,,,,,825.1165037000001,826.1256674,823.1046835,823.1046835,823.1046835,823.1046835,new_sceneIn_22.png,238,5.0,2.011980900000026,,,026,10,2025-01-16_14h05.26.682,Surprise recog test,2023.1.3,59.944419534207476,
238,0,238,0,,,,,,,,,,,,,,,,,,,,,,,,,,,,,,,,,,829.3437893,830.3609730000001,826.1256674,826.1256674,826.1256674,826.1256674,new_stationery_15.png,239,3.0,3.2157621000000063,,,026,10,2025-01-16_14h05.26.682,Surprise recog test,2023.1.3,59.944419534207476,
239,0,239,0,,,,,,,,,,,,,,,,,,,,,,,,,,,,,,,,,,831.4071812,832.4113135,830.3609730000001,830.3609730000001,830.3609730000001,830.3609730000001,old_stationery_33.png,240,4.0,1.0364575999999488,,,026,10,2025-01-16_14h05.26.682,Surprise recog test,2023.1.3,59.944419534207476,
240,0,240,0,,,,,,,,,,,,,,,,,,,,,,,,,,,,,,,,,,833.7090535,834.7137176,832.4113135,832.4113135,832.4113135,832.4113135,old_stationery_7.png,241,5.0,1.2870499000000564,,,026,10,2025-01-16_14h05.26.682,Surprise recog test,2023.1.3,59.944419534207476,
241,0,241,0,,,,,,,,,,,,,,,,,,,,,,,,,,,,,,,,,,836.044611,837.0493264,834.7137176,834.7137176,834.7137176,834.7137176,old_sceneIn_21.png,242,5.0,1.320094499999982,,,026,10,2025-01-16_14h05.26.682,Surprise recog test,2023.1.3,59.944419534207476,
242,0,242,0,,,,,,,,,,,,,,,,,,,,,,,,,,,,,,,,,,838.6466243,839.6508006,837.0493264,837.0493264,837.0493264,837.0493264,old_sceneIn_49.png,243,5.0,1.5885209000000486,,,026,10,2025-01-16_14h05.26.682,Surprise recog test,2023.1.3,59.944419534207476,
243,0,243,0,,,,,,,,,,,,,,,,,,,,,,,,,,,,,,,,,,842.2829313,843.2888800000001,839.6508006,839.6508006,839.6508006,839.6508006,new_stationery_48.png,244,5.0,2.6216280999999526,,,026,10,2025-01-16_14h05.26.682,Surprise recog test,2023.1.3,59.944419534207476,
244,0,244,0,,,,,,,,,,,,,,,,,,,,,,,,,,,,,,,,,,845.4855265,846.4913399000001,843.2888800000001,843.2888800000001,843.2888800000001,843.2888800000001,new_sceneIn_11.png,245,4.0,2.1877320999999483,,,026,10,2025-01-16_14h05.26.682,Surprise recog test,2023.1.3,59.944419534207476,
245,0,245,0,,,,,,,,,,,,,,,,,,,,,,,,,,,,,,,,,,848.8216651,849.8258712,846.4913399000001,846.4913399000001,846.4913399000001,846.4913399000001,new_sceneOut_14.png,246,4.0,2.321119500000009,,,026,10,2025-01-16_14h05.26.682,Surprise recog test,2023.1.3,59.944419534207476,
246,0,246,0,,,,,,,,,,,,,,,,,,,,,,,,,,,,,,,,,,851.7240774,852.7288262000001,849.8258712,849.8258712,849.8258712,849.8258712,old_fruit_9.png,247,4.0,1.8879234000000906,,,026,10,2025-01-16_14h05.26.682,Surprise recog test,2023.1.3,59.944419534207476,
247,0,247,0,,,,,,,,,,,,,,,,,,,,,,,,,,,,,,,,,,854.1131876000001,,852.7288262000001,852.7288262000001,852.7288262000001,852.7288262000001,old_sceneOut_30.png,248,5.0,1.3788213999999925,,,026,10,2025-01-16_14h05.26.682,Surprise recog test,2023.1.3,59.944419534207476,
248,0,248,0,,,,,,,,,,,,,,,,,,,,,,,,,,,,,,,,,,858.1127793,859.1178714,855.1346902,855.1346902,855.1346902,855.1346902,new_sceneIn_5.png,249,5.0,2.9704814000000397,,,026,10,2025-01-16_14h05.26.682,Surprise recog test,2023.1.3,59.944419534207476,
249,0,249,0,,,,,,,,,,,,,,,,,,,,,,,,,,,,,,,,,,860.698232,861.703572,859.1178714,859.1178714,859.1178714,859.1178714,old_sceneIn_3.png,250,4.0,1.5714443000000529,,,026,10,2025-01-16_14h05.26.682,Surprise recog test,2023.1.3,59.944419534207476,
250,0,250,0,,,,,,,,,,,,,,,,,,,,,,,,,,,,,,,,,,862.7666081,863.7719067,861.703572,861.703572,861.703572,861.703572,old_sceneOut_25.png,251,4.0,1.053352700000005,,,026,10,2025-01-16_14h05.26.682,Surprise recog test,2023.1.3,59.944419534207476,
251,0,251,0,,,,,,,,,,,,,,,,,,,,,,,,,,,,,,,,,,866.5866034000001,867.5909583,863.7719067,863.7719067,863.7719067,863.7719067,old_sceneOut_24.png,252,4.0,2.804845699999987,,,026,10,2025-01-16_14h05.26.682,Surprise recog test,2023.1.3,59.944419534207476,
252,0,252,0,,,,,,,,,,,,,,,,,,,,,,,,,,,,,,,,,,872.0410754000001,873.0455154,867.5909583,867.5909583,867.5909583,867.5909583,old_fruit_33.png,253,4.0,4.439590399999929,,,026,10,2025-01-16_14h05.26.682,Surprise recog test,2023.1.3,59.944419534207476,
253,0,253,0,,,,,,,,,,,,,,,,,,,,,,,,,,,,,,,,,,876.3445820000001,877.3497307,873.0455154,873.0455154,873.0455154,873.0455154,old_sceneOut_42.png,254,4.0,3.2886157999998886,,,026,10,2025-01-16_14h05.26.682,Surprise recog test,2023.1.3,59.944419534207476,
254,0,254,0,,,,,,,,,,,,,,,,,,,,,,,,,,,,,,,,,,879.4304275000001,880.4342345,877.3497307,877.3497307,877.3497307,877.3497307,old_fruit_1.png,255,5.0,2.070945599999959,,,026,10,2025-01-16_14h05.26.682,Surprise recog test,2023.1.3,59.944419534207476,
255,0,255,0,,,,,,,,,,,,,,,,,,,,,,,,,,,,,,,,,,883.6839658,884.6902341,880.4342345,880.4342345,880.4342345,880.4342345,old_sceneIn_43.png,256,5.0,3.238897800000018,,,026,10,2025-01-16_14h05.26.682,Surprise recog test,2023.1.3,59.944419534207476,
256,0,256,0,,,,,,,,,,,,,,,,,,,,,,,,,,,,,,,,,,886.3194677,887.3234805000001,884.6902341,884.6902341,884.6902341,884.6902341,new_fruit_12.png,257,4.0,1.6204183999999486,,,026,10,2025-01-16_14h05.26.682,Surprise recog test,2023.1.3,59.944419534207476,
257,0,257,0,,,,,,,,,,,,,,,,,,,,,,,,,,,,,,,,,,889.638926,890.6435604000001,887.3234805000001,887.3234805000001,887.3234805000001,887.3234805000001,old_fruit_15.png,258,3.0,2.304623900000024,,,026,10,2025-01-16_14h05.26.682,Surprise recog test,2023.1.3,59.944419534207476,
258,0,258,0,,,,,,,,,,,,,,,,,,,,,,,,,,,,,,,,,,892.4579009,893.4642452,890.6435604000001,890.6435604000001,890.6435604000001,890.6435604000001,new_fruit_16.png,259,5.0,1.8042775999999776,,,026,10,2025-01-16_14h05.26.682,Surprise recog test,2023.1.3,59.944419534207476,
259,0,259,0,,,,,,,,,,,,,,,,,,,,,,,,,,,,,,,,,,896.8452243,897.8502959,893.4642452,893.4642452,893.4642452,893.4642452,new_fruit_17.png,260,4.0,3.371736700000042,,,026,10,2025-01-16_14h05.26.682,Surprise recog test,2023.1.3,59.944419534207476,
260,0,260,0,,,,,,,,,,,,,,,,,,,,,,,,,,,,,,,,,,900.6147368000001,901.6193067,897.8502959,897.8502959,897.8502959,897.8502959,old_sceneIn_19.png,261,4.0,2.7545714999999973,,,026,10,2025-01-16_14h05.26.682,Surprise recog test,2023.1.3,59.944419534207476,
261,0,261,0,,,,,,,,,,,,,,,,,,,,,,,,,,,,,,,,,,903.5187764,904.5263433,901.6193067,901.6193067,901.6193067,901.6193067,old_sceneOut_5.png,262,5.0,1.8939498999999387,,,026,10,2025-01-16_14h05.26.682,Surprise recog test,2023.1.3,59.944419534207476,
262,0,262,0,,,,,,,,,,,,,,,,,,,,,,,,,,,,,,,,,,906.9545865,907.9597915,904.5263433,904.5263433,904.5263433,904.5263433,old_sceneIn_7.png,263,3.0,2.4265616000000136,,,026,10,2025-01-16_14h05.26.682,Surprise recog test,2023.1.3,59.944419534207476,
263,0,263,0,,,,,,,,,,,,,,,,,,,,,,,,,,,,,,,,,,910.823179,911.8475319,907.9597915,907.9597915,907.9597915,907.9597915,new_stationery_41.png,264,4.0,2.8568341999999802,,,026,10,2025-01-16_14h05.26.682,Surprise recog test,2023.1.3,59.944419534207476,
264,0,264,0,,,,,,,,,,,,,,,,,,,,,,,,,,,,,,,,,,913.2536846,914.2668445,911.8475319,911.8475319,911.8475319,911.8475319,new_stationery_39.png,265,5.0,1.4056947000000264,,,026,10,2025-01-16_14h05.26.682,Surprise recog test,2023.1.3,59.944419534207476,
265,0,265,0,,,,,,,,,,,,,,,,,,,,,,,,,,,,,,,,,,915.7107234,916.7295834,914.2668445,914.2668445,914.2668445,914.2668445,new_stationery_18.png,266,4.0,1.4327853999999434,,,026,10,2025-01-16_14h05.26.682,Surprise recog test,2023.1.3,59.944419534207476,
266,0,266,0,,,,,,,,,,,,,,,,,,,,,,,,,,,,,,,,,,918.7966265,919.8119655,916.7295834,916.7295834,916.7295834,916.7295834,new_sceneOut_15.png,267,4.0,2.0645232999999052,,,026,10,2025-01-16_14h05.26.682,Surprise recog test,2023.1.3,59.944419534207476,
267,0,267,0,,,,,,,,,,,,,,,,,,,,,,,,,,,,,,,,,,922.7215988,923.7534268,919.8119655,919.8119655,919.8119655,919.8119655,old_stationery_48.png,268,3.0,2.9082680999999866,,,026,10,2025-01-16_14h05.26.682,Surprise recog test,2023.1.3,59.944419534207476,
268,0,268,0,,,,,,,,,,,,,,,,,,,,,,,,,,,,,,,,,,926.7644054,927.7901126,923.7534268,923.7534268,923.7534268,923.7534268,new_sceneIn_25.png,269,5.0,3.0129819999999654,,,026,10,2025-01-16_14h05.26.682,Surprise recog test,2023.1.3,59.944419534207476,
269,0,269,0,,,,,,,,,,,,,,,,,,,,,,,,,,,,,,,,,,930.8812909000001,931.9065309,927.7901126,927.7901126,927.7901126,927.7901126,new_sceneIn_28.png,270,5.0,3.0945401000000174,,,026,10,2025-01-16_14h05.26.682,Surprise recog test,2023.1.3,59.944419534207476,
270,0,270,0,,,,,,,,,,,,,,,,,,,,,,,,,,,,,,,,,,933.7846782,934.8009764,931.9065309,931.9065309,931.9065309,931.9065309,old_stationery_34.png,271,4.0,1.8803469000000632,,,026,10,2025-01-16_14h05.26.682,Surprise recog test,2023.1.3,59.944419534207476,
271,0,271,0,,,,,,,,,,,,,,,,,,,,,,,,,,,,,,,,,,936.345228,937.3642106,934.8009764,934.8009764,934.8009764,934.8009764,old_stationery_39.png,272,4.0,1.5364819999999781,,,026,10,2025-01-16_14h05.26.682,Surprise recog test,2023.1.3,59.944419534207476,
272,0,272,0,,,,,,,,,,,,,,,,,,,,,,,,,,,,,,,,,,941.9645539,942.9861003999999,937.3642106,937.3642106,937.3642106,937.3642106,new_fruit_15.png,273,3.0,4.6022930000000315,,,026,10,2025-01-16_14h05.26.682,Surprise recog test,2023.1.3,59.944419534207476,
273,0,273,0,,,,,,,,,,,,,,,,,,,,,,,,,,,,,,,,,,945.8952566,946.9283106,942.9861003999999,942.9861003999999,942.9861003999999,942.9861003999999,old_sceneIn_50.png,274,5.0,2.91162949999989,,,026,10,2025-01-16_14h05.26.682,Surprise recog test,2023.1.3,59.944419534207476,
274,0,274,0,,,,,,,,,,,,,,,,,,,,,,,,,,,,,,,,,,948.2148894,949.2401014,946.9283106,946.9283106,946.9283106,946.9283106,old_sceneOut_27.png,275,5.0,1.2910008999999718,,,026,10,2025-01-16_14h05.26.682,Surprise recog test,2023.1.3,59.944419534207476,
275,0,275,0,,,,,,,,,,,,,,,,,,,,,,,,,,,,,,,,,,950.8976974,951.9291725,949.2401014,949.2401014,949.2401014,949.2401014,new_sceneIn_45.png,276,4.0,1.6546674999999595,,,026,10,2025-01-16_14h05.26.682,Surprise recog test,2023.1.3,59.944419534207476,
276,0,276,0,,,,,,,,,,,,,,,,,,,,,,,,,,,,,,,,,,954.1016562,955.1185596,951.9291725,951.9291725,951.9291725,951.9291725,new_stationery_45.png,277,5.0,2.1751087999998617,,,026,10,2025-01-16_14h05.26.682,Surprise recog test,2023.1.3,59.944419534207476,
277,0,277,0,,,,,,,,,,,,,,,,,,,,,,,,,,,,,,,,,,959.1969065999999,960.2055720999999,955.1185596,955.1185596,955.1185596,955.1185596,old_fruit_23.png,278,4.0,4.071974099999807,,,026,10,2025-01-16_14h05.26.682,Surprise recog test,2023.1.3,59.944419534207476,
278,0,278,0,,,,,,,,,,,,,,,,,,,,,,,,,,,,,,,,,,961.3827902,962.3902638,960.2055720999999,960.2055720999999,960.2055720999999,960.2055720999999,old_sceneIn_8.png,279,4.0,1.1729425000000901,,,026,10,2025-01-16_14h05.26.682,Surprise recog test,2023.1.3,59.944419534207476,
279,0,279,0,,,,,,,,,,,,,,,,,,,,,,,,,,,,,,,,,,965.9107392000001,966.9406526,962.3902638,962.3902638,962.3902638,962.3902638,new_fruit_49.png,280,3.0,3.515659400000004,,,026,10,2025-01-16_14h05.26.682,Surprise recog test,2023.1.3,59.944419534207476,
280,0,280,0,,,,,,,,,,,,,,,,,,,,,,,,,,,,,,,,,,968.5054402999999,969.5245447,966.9406526,966.9406526,966.9406526,966.9406526,new_fruit_44.png,281,4.0,1.5667128000000048,,,026,10,2025-01-16_14h05.26.682,Surprise recog test,2023.1.3,59.944419534207476,
281,0,281,0,,,,,,,,,,,,,,,,,,,,,,,,,,,,,,,,,,970.6897913,971.7038613,969.5245447,969.5245447,969.5245447,969.5245447,old_sceneOut_38.png,282,4.0,1.161620300000095,,,026,10,2025-01-16_14h05.26.682,Surprise recog test,2023.1.3,59.944419534207476,
282,0,282,0,,,,,,,,,,,,,,,,,,,,,,,,,,,,,,,,,,974.5605229,975.5812237,971.7038613,971.7038613,971.7038613,971.7038613,new_sceneOut_34.png,283,4.0,2.8562873000000764,,,026,10,2025-01-16_14h05.26.682,Surprise recog test,2023.1.3,59.944419534207476,
283,0,283,0,,,,,,,,,,,,,,,,,,,,,,,,,,,,,,,,,,977.5808623,978.5992693999999,975.5812237,975.5812237,975.5812237,975.5812237,new_sceneOut_3.png,284,3.0,2.0017259999999624,,,026,10,2025-01-16_14h05.26.682,Surprise recog test,2023.1.3,59.944419534207476,
284,0,284,0,,,,,,,,,,,,,,,,,,,,,,,,,,,,,,,,,,982.2834647,983.2972434000001,978.5992693999999,978.5992693999999,978.5992693999999,978.5992693999999,old_stationery_9.png,285,2.0,3.684640500000114,,,026,10,2025-01-16_14h05.26.682,Surprise recog test,2023.1.3,59.944419534207476,
285,0,285,0,,,,,,,,,,,,,,,,,,,,,,,,,,,,,,,,,,988.3042975000001,,983.2972434000001,983.2972434000001,983.2972434000001,983.2972434000001,old_stationery_50.png,286,None,None,988.2893303999999,,026,10,2025-01-16_14h05.26.682,Surprise recog test,2023.1.3,59.944419534207476,
286,0,286,0,,,,,,,,,,,,,,,,,,,,,,,,,,,,,,,,,,991.4504771,992.4656866,989.3224536,989.3224536,989.3224536,989.3224536,old_sceneIn_10.png,287,4.0,2.1293091000000004,,,026,10,2025-01-16_14h05.26.682,Surprise recog test,2023.1.3,59.944419534207476,
287,0,287,0,,,,,,,,,,,,,,,,,,,,,,,,,,,,,,,,,,993.7360812,994.7619047999999,992.4656866,992.4656866,992.4656866,992.4656866,new_stationery_2.png,288,4.0,1.2654242999999497,,,026,10,2025-01-16_14h05.26.682,Surprise recog test,2023.1.3,59.944419534207476,
288,0,288,0,,,,,,,,,,,,,,,,,,,,,,,,,,,,,,,,,,996.5867800000001,997.6148028,994.7619047999999,994.7619047999999,994.7619047999999,994.7619047999999,old_sceneIn_33.png,289,4.0,1.8271664999999757,,,026,10,2025-01-16_14h05.26.682,Surprise recog test,2023.1.3,59.944419534207476,
289,0,289,0,,,,,,,,,,,,,,,,,,,,,,,,,,,,,,,,,,999.9409943999999,1000.9680369,997.6148028,997.6148028,997.6148028,997.6148028,old_sceneIn_29.png,290,5.0,2.325922399999854,,,026,10,2025-01-16_14h05.26.682,Surprise recog test,2023.1.3,59.944419534207476,
290,0,290,0,,,,,,,,,,,,,,,,,,,,,,,,,,,,,,,,,,1002.5498086,1003.5686731999999,1000.9680369,1000.9680369,1000.9680369,1000.9680369,new_stationery_50.png,291,4.0,1.5781560999998874,,,026,10,2025-01-16_14h05.26.682,Surprise recog test,2023.1.3,59.944419534207476,
291,0,291,0,,,,,,,,,,,,,,,,,,,,,,,,,,,,,,,,,,1006.2958974999999,1007.3293391,1003.5686731999999,1003.5686731999999,1003.5686731999999,1003.5686731999999,old_fruit_39.png,292,4.0,2.7271432999998524,,,026,10,2025-01-16_14h05.26.682,Surprise recog test,2023.1.3,59.944419534207476,
292,0,292,0,,,,,,,,,,,,,,,,,,,,,,,,,,,,,,,,,,1009.6136121,1010.6415529000001,1007.3293391,1007.3293391,1007.3293391,1007.3293391,old_stationery_10.png,293,5.0,2.2880433000000266,,,026,10,2025-01-16_14h05.26.682,Surprise recog test,2023.1.3,59.944419534207476,
293,0,293,0,,,,,,,,,,,,,,,,,,,,,,,,,,,,,,,,,,1013.1800996,1014.2063541,1010.6415529000001,1010.6415529000001,1010.6415529000001,1010.6415529000001,old_fruit_18.png,294,3.0,2.540817600000082,,,026,10,2025-01-16_14h05.26.682,Surprise recog test,2023.1.3,59.944419534207476,
294,0,294,0,,,,,,,,,,,,,,,,,,,,,,,,,,,,,,,,,,1015.5485421999999,1016.5770625,1014.2063541,1014.2063541,1014.2063541,1014.2063541,old_sceneOut_48.png,295,4.0,1.3425887999999304,,,026,10,2025-01-16_14h05.26.682,Surprise recog test,2023.1.3,59.944419534207476,
295,0,295,0,,,,,,,,,,,,,,,,,,,,,,,,,,,,,,,,,,1019.9237456000001,1020.9501539,1016.5770625,1016.5770625,1016.5770625,1016.5770625,old_fruit_5.png,296,2.0,3.348306599999887,,,026,10,2025-01-16_14h05.26.682,Surprise recog test,2023.1.3,59.944419534207476,
296,0,296,0,,,,,,,,,,,,,,,,,,,,,,,,,,,,,,,,,,1023.1666851,1024.1853023,1020.9501539,1020.9501539,1020.9501539,1020.9501539,new_sceneIn_41.png,297,5.0,2.2159685999999965,,,026,10,2025-01-16_14h05.26.682,Surprise recog test,2023.1.3,59.944419534207476,
297,0,297,0,,,,,,,,,,,,,,,,,,,,,,,,,,,,,,,,,,1026.2116265,1027.2237043,1024.1853023,1024.1853023,1024.1853023,1024.1853023,new_fruit_2.png,298,3.0,2.0245477999999366,,,026,10,2025-01-16_14h05.26.682,Surprise recog test,2023.1.3,59.944419534207476,
298,0,298,0,,,,,,,,,,,,,,,,,,,,,,,,,,,,,,,,,,1028.2132706,1029.2414167,1027.2237043,1027.2237043,1027.2237043,1027.2237043,old_fruit_11.png,299,3.0,0.9859503000000132,,,026,10,2025-01-16_14h05.26.682,Surprise recog test,2023.1.3,59.944419534207476,
299,0,299,0,,,,,,,,,,,,,,,,,,,,,,,,,,,,,,,,,,1031.1474234,1032.1842713,1029.2414167,1029.2414167,1029.2414167,1029.2414167,new_fruit_6.png,300,4.0,1.9091863000001013,,,026,10,2025-01-16_14h05.26.682,Surprise recog test,2023.1.3,59.944419534207476,
300,0,300,0,,,,,,,,,,,,,,,,,,,,,,,,,,,,,,,,,,1033.6453737,,1032.1842713,1032.1842713,1032.1842713,1032.1842713,new_stationery_27.png,301,5.0,1.46437549999996,,,026,10,2025-01-16_14h05.26.682,Surprise recog test,2023.1.3,59.944419534207476,
301,0,301,0,,,,,,,,,,,,,,,,,,,,,,,,,,,,,,,,,,1036.6115555000001,1037.6328482000001,1034.6776333,1034.6776333,1034.6776333,1034.6776333,old_fruit_25.png,302,1.0,1.9357946000000084,,,026,10,2025-01-16_14h05.26.682,Surprise recog test,2023.1.3,59.944419534207476,
302,0,302,0,,,,,,,,,,,,,,,,,,,,,,,,,,,,,,,,,,1038.9965143,1040.0035262000001,1037.6328482000001,1037.6328482000001,1037.6328482000001,1037.6328482000001,old_sceneIn_22.png,303,4.0,1.3594547999998667,,,026,10,2025-01-16_14h05.26.682,Surprise recog test,2023.1.3,59.944419534207476,
303,0,303,0,,,,,,,,,,,,,,,,,,,,,,,,,,,,,,,,,,1041.5819582,1042.5869495,1040.0035262000001,1040.0035262000001,1040.0035262000001,1040.0035262000001,old_fruit_20.png,304,3.0,1.570047700000032,,,026,10,2025-01-16_14h05.26.682,Surprise recog test,2023.1.3,59.944419534207476,
304,0,304,0,,,,,,,,,,,,,,,,,,,,,,,,,,,,,,,,,,1044.2341127,1045.2396699,1042.5869495,1042.5869495,1042.5869495,1042.5869495,old_fruit_17.png,305,4.0,1.6374930000001768,,,026,10,2025-01-16_14h05.26.682,Surprise recog test,2023.1.3,59.944419534207476,
305,0,305,0,,,,,,,,,,,,,,,,,,,,,,,,,,,,,,,,,,1046.2691279,1047.2744245000001,1045.2396699,1045.2396699,1045.2396699,1045.2396699,new_sceneOut_2.png,306,4.0,1.0211097999999765,,,026,10,2025-01-16_14h05.26.682,Surprise recog test,2023.1.3,59.944419534207476,
306,0,306,0,,,,,,,,,,,,,,,,,,,,,,,,,,,,,,,,,,1048.5543603,1049.5595198,1047.2744245000001,1047.2744245000001,1047.2744245000001,1047.2744245000001,new_sceneOut_48.png,307,5.0,1.2702546999998958,,,026,10,2025-01-16_14h05.26.682,Surprise recog test,2023.1.3,59.944419534207476,
307,0,307,0,,,,,,,,,,,,,,,,,,,,,,,,,,,,,,,,,,1051.423442,1052.4278201,1049.5595198,1049.5595198,1049.5595198,1049.5595198,old_stationery_26.png,308,3.0,1.8535268000000542,,,026,10,2025-01-16_14h05.26.682,Surprise recog test,2023.1.3,59.944419534207476,
308,0,308,0,,,,,,,,,,,,,,,,,,,,,,,,,,,,,,,,,,1055.0852939000001,1056.1012825,1052.4278201,1052.4278201,1052.4278201,1052.4278201,old_fruit_41.png,309,3.0,2.6520594999999503,,,026,10,2025-01-16_14h05.26.682,Surprise recog test,2023.1.3,59.944419534207476,
309,0,309,0,,,,,,,,,,,,,,,,,,,,,,,,,,,,,,,,,,1057.4451117,1058.451174,1056.1012825,1056.1012825,1056.1012825,1056.1012825,old_sceneOut_11.png,310,4.0,1.3364618000000519,,,026,10,2025-01-16_14h05.26.682,Surprise recog test,2023.1.3,59.944419534207476,
310,0,310,0,,,,,,,,,,,,,,,,,,,,,,,,,,,,,,,,,,1061.3317624000001,1062.3363327,1058.451174,1058.451174,1058.451174,1058.451174,old_sceneIn_14.png,311,4.0,2.871801499999947,,,026,10,2025-01-16_14h05.26.682,Surprise recog test,2023.1.3,59.944419534207476,
311,0,311,0,,,,,,,,,,,,,,,,,,,,,,,,,,,,,,,,,,1063.7504155,1064.7550738,1062.3363327,1062.3363327,1062.3363327,1062.3363327,new_sceneIn_29.png,312,5.0,1.4044005999999172,,,026,10,2025-01-16_14h05.26.682,Surprise recog test,2023.1.3,59.944419534207476,
312,0,312,0,,,,,,,,,,,,,,,,,,,,,,,,,,,,,,,,,,1066.1523261,1067.1568239,1064.7550738,1064.7550738,1064.7550738,1064.7550738,new_fruit_32.png,313,5.0,1.3871014999999716,,,026,10,2025-01-16_14h05.26.682,Surprise recog test,2023.1.3,59.944419534207476,
313,0,313,0,,,,,,,,,,,,,,,,,,,,,,,,,,,,,,,,,,1068.7878347,1069.7924962,1067.1568239,1067.1568239,1067.1568239,1067.1568239,old_fruit_3.png,314,2.0,1.6208000999999967,,,026,10,2025-01-16_14h05.26.682,Surprise recog test,2023.1.3,59.944419534207476,
314,0,314,0,,,,,,,,,,,,,,,,,,,,,,,,,,,,,,,,,,1073.3916734,1074.3977644,1069.7924962,1069.7924962,1069.7924962,1069.7924962,old_stationery_36.png,315,3.0,3.5888903000000028,,,026,10,2025-01-16_14h05.26.682,Surprise recog test,2023.1.3,59.944419534207476,
315,0,315,0,,,,,,,,,,,,,,,,,,,,,,,,,,,,,,,,,,1075.4934416,1076.4983161,1074.3977644,1074.3977644,1074.3977644,1074.3977644,new_sceneIn_15.png,316,4.0,1.088075099999969,,,026,10,2025-01-16_14h05.26.682,Surprise recog test,2023.1.3,59.944419534207476,
316,0,316,0,,,,,,,,,,,,,,,,,,,,,,,,,,,,,,,,,,1079.6969125,1080.7019107,1076.4983161,1076.4983161,1076.4983161,1076.4983161,old_sceneIn_44.png,317,4.0,3.1897973999998612,,,026,10,2025-01-16_14h05.26.682,Surprise recog test,2023.1.3,59.944419534207476,
317,0,317,0,,,,,,,,,,,,,,,,,,,,,,,,,,,,,,,,,,1083.3166436,1084.3231783,1080.7019107,1080.7019107,1080.7019107,1080.7019107,old_stationery_23.png,318,4.0,2.6048966999999266,,,026,10,2025-01-16_14h05.26.682,Surprise recog test,2023.1.3,59.944419534207476,
318,0,318,0,,,,,,,,,,,,,,,,,,,,,,,,,,,,,,,,,,1086.6204549,1087.6373806,1084.3231783,1084.3231783,1084.3231783,1084.3231783,new_sceneOut_10.png,319,5.0,2.2925003999998808,,,026,10,2025-01-16_14h05.26.682,Surprise recog test,2023.1.3,59.944419534207476,
319,0,319,0,,,,,,,,,,,,,,,,,,,,,,,,,,,,,,,,,,1089.1232533,1090.1413927,1087.6373806,1087.6373806,1087.6373806,1087.6373806,new_sceneOut_19.png,320,4.0,1.488064900000154,,,026,10,2025-01-16_14h05.26.682,Surprise recog test,2023.1.3,59.944419534207476,
320,0,320,0,,,,,,,,,,,,,,,,,,,,,,,,,,,,,,,,,,1093.5086504,1094.5159946,1090.1413927,1090.1413927,1090.1413927,1090.1413927,old_sceneOut_26.png,321,4.0,3.3668619000000035,,,026,10,2025-01-16_14h05.26.682,Surprise recog test,2023.1.3,59.944419534207476,
321,0,321,0,,,,,,,,,,,,,,,,,,,,,,,,,,,,,,,,,,1097.7279314,1098.7496486,1094.5159946,1094.5159946,1094.5159946,1094.5159946,new_fruit_37.png,322,4.0,3.207932400000118,,,026,10,2025-01-16_14h05.26.682,Surprise recog test,2023.1.3,59.944419534207476,
322,0,322,0,,,,,,,,,,,,,,,,,,,,,,,,,,,,,,,,,,1101.2196026,1102.2406419000001,1098.7496486,1098.7496486,1098.7496486,1098.7496486,old_sceneOut_47.png,323,5.0,2.4720188999999664,,,026,10,2025-01-16_14h05.26.682,Surprise recog test,2023.1.3,59.944419534207476,
323,0,323,0,,,,,,,,,,,,,,,,,,,,,,,,,,,,,,,,,,1103.815588,1104.8388663,1102.2406419000001,1102.2406419000001,1102.2406419000001,1102.2406419000001,new_sceneOut_7.png,324,3.0,1.5687617999999475,,,026,10,2025-01-16_14h05.26.682,Surprise recog test,2023.1.3,59.944419534207476,
324,0,324,0,,,,,,,,,,,,,,,,,,,,,,,,,,,,,,,,,,1106.2275626,1107.2422416,1104.8388663,1104.8388663,1104.8388663,1104.8388663,old_stationery_4.png,325,4.0,1.3921075000000656,,,026,10,2025-01-16_14h05.26.682,Surprise recog test,2023.1.3,59.944419534207476,
325,0,325,0,,,,,,,,,,,,,,,,,,,,,,,,,,,,,,,,,,1108.7433024,1109.7753315,1107.2422416,1107.2422416,1107.2422416,1107.2422416,old_stationery_28.png,326,3.0,1.4982469999999921,,,026,10,2025-01-16_14h05.26.682,Surprise recog test,2023.1.3,59.944419534207476,
326,0,326,0,,,,,,,,,,,,,,,,,,,,,,,,,,,,,,,,,,1111.1482339,1112.1652439,1109.7753315,1109.7753315,1109.7753315,1109.7753315,old_stationery_17.png,327,5.0,1.3744411999998647,,,026,10,2025-01-16_14h05.26.682,Surprise recog test,2023.1.3,59.944419534207476,
327,0,327,0,,,,,,,,,,,,,,,,,,,,,,,,,,,,,,,,,,1114.2433325,1115.2514099,1112.1652439,1112.1652439,1112.1652439,1112.1652439,new_fruit_39.png,328,4.0,2.0711281999999755,,,026,10,2025-01-16_14h05.26.682,Surprise recog test,2023.1.3,59.944419534207476,
328,0,328,0,,,,,,,,,,,,,,,,,,,,,,,,,,,,,,,,,,1116.7627064,1117.7691335,1115.2514099,1115.2514099,1115.2514099,1115.2514099,new_sceneOut_47.png,329,5.0,1.5057635999999093,,,026,10,2025-01-16_14h05.26.682,Surprise recog test,2023.1.3,59.944419534207476,
329,0,329,0,,,,,,,,,,,,,,,,,,,,,,,,,,,,,,,,,,1120.9906821,1122.0111803,1117.7691335,1117.7691335,1117.7691335,1117.7691335,old_sceneOut_23.png,330,4.0,3.216959999999972,,,026,10,2025-01-16_14h05.26.682,Surprise recog test,2023.1.3,59.944419534207476,
330,0,330,0,,,,,,,,,,,,,,,,,,,,,,,,,,,,,,,,,,1123.8525637,,1122.0111803,1122.0111803,1122.0111803,1122.0111803,new_sceneOut_5.png,331,4.0,1.8418929000001754,,,026,10,2025-01-16_14h05.26.682,Surprise recog test,2023.1.3,59.944419534207476,
331,0,331,0,,,,,,,,,,,,,,,,,,,,,,,,,,,,,,,,,,1126.4230129,,1124.8749465,1124.8749465,1124.8749465,1124.8749465,old_fruit_8.png,332,1.0,1.541849799999909,,,026,10,2025-01-16_14h05.26.682,Surprise recog test,2023.1.3,59.944419534207476,
332,0,332,0,,,,,,,,,,,,,,,,,,,,,,,,,,,,,,,,,,1128.8768343,1129.9041675,1127.443379,1127.443379,1127.443379,1127.443379,new_fruit_50.png,333,3.0,1.4276473999998416,,,026,10,2025-01-16_14h05.26.682,Surprise recog test,2023.1.3,59.944419534207476,
333,0,333,0,,,,,,,,,,,,,,,,,,,,,,,,,,,,,,,,,,1132.5555634,1133.5725799,1129.9041675,1129.9041675,1129.9041675,1129.9041675,new_stationery_7.png,334,4.0,2.652644899999814,,,026,10,2025-01-16_14h05.26.682,Surprise recog test,2023.1.3,59.944419534207476,
334,0,334,0,,,,,,,,,,,,,,,,,,,,,,,,,,,,,,,,,,1135.0315303,1136.05225,1133.5725799,1133.5725799,1133.5725799,1133.5725799,new_stationery_49.png,335,5.0,1.460171199999877,,,026,10,2025-01-16_14h05.26.682,Surprise recog test,2023.1.3,59.944419534207476,
335,0,335,0,,,,,,,,,,,,,,,,,,,,,,,,,,,,,,,,,,1137.4966388,1138.5170384,1136.05225,1136.05225,1136.05225,1136.05225,old_stationery_44.png,336,5.0,1.439676499999905,,,026,10,2025-01-16_14h05.26.682,Surprise recog test,2023.1.3,59.944419534207476,
336,0,336,0,,,,,,,,,,,,,,,,,,,,,,,,,,,,,,,,,,1140.1979259,1141.2056395,1138.5170384,1138.5170384,1138.5170384,1138.5170384,old_sceneOut_34.png,337,3.0,1.6841749000000164,,,026,10,2025-01-16_14h05.26.682,Surprise recog test,2023.1.3,59.944419534207476,
337,0,337,0,,,,,,,,,,,,,,,,,,,,,,,,,,,,,,,,,,1142.9225123,1143.952975,1141.2056395,1141.2056395,1141.2056395,1141.2056395,new_sceneOut_11.png,338,4.0,1.7131733999999597,,,026,10,2025-01-16_14h05.26.682,Surprise recog test,2023.1.3,59.944419534207476,
338,0,338,0,,,,,,,,,,,,,,,,,,,,,,,,,,,,,,,,,,1148.1539746,1149.174955,1143.952975,1143.952975,1143.952975,1143.952975,old_fruit_47.png,339,3.0,4.197117700000035,,,026,10,2025-01-16_14h05.26.682,Surprise recog test,2023.1.3,59.944419534207476,
339,0,339,0,,,,,,,,,,,,,,,,,,,,,,,,,,,,,,,,,,1151.2364041,1152.2477264,1149.174955,1149.174955,1149.174955,1149.174955,new_sceneOut_4.png,340,4.0,2.0614583999999923,,,026,10,2025-01-16_14h05.26.682,Surprise recog test,2023.1.3,59.944419534207476,
340,0,340,0,,,,,,,,,,,,,,,,,,,,,,,,,,,,,,,,,,1155.0232349,1156.0456778,1152.2477264,1152.2477264,1152.2477264,1152.2477264,old_fruit_45.png,341,4.0,2.771792000000005,,,026,10,2025-01-16_14h05.26.682,Surprise recog test,2023.1.3,59.944419534207476,
341,0,341,0,,,,,,,,,,,,,,,,,,,,,,,,,,,,,,,,,,1157.2491129,,1156.0456778,1156.0456778,1156.0456778,1156.0456778,new_sceneIn_6.png,342,5.0,1.2051171000000522,,,026,10,2025-01-16_14h05.26.682,Surprise recog test,2023.1.3,59.944419534207476,
342,0,342,0,,,,,,,,,,,,,,,,,,,,,,,,,,,,,,,,,,1159.9364429,1160.9771680000001,1158.2694692,1158.2694692,1158.2694692,1158.2694692,old_fruit_19.png,343,3.0,1.6638585999999123,,,026,10,2025-01-16_14h05.26.682,Surprise recog test,2023.1.3,59.944419534207476,
343,0,343,0,,,,,,,,,,,,,,,,,,,,,,,,,,,,,,,,,,1162.2554832,1163.2870387,1160.9771680000001,1160.9771680000001,1160.9771680000001,1160.9771680000001,old_fruit_28.png,344,2.0,1.2843156000001272,,,026,10,2025-01-16_14h05.26.682,Surprise recog test,2023.1.3,59.944419534207476,
344,0,344,0,,,,,,,,,,,,,,,,,,,,,,,,,,,,,,,,,,1167.0887712,,1163.2870387,1163.2870387,1163.2870387,1163.2870387,new_fruit_38.png,345,3.0,3.8040980000000673,,,026,10,2025-01-16_14h05.26.682,Surprise recog test,2023.1.3,59.944419534207476,
345,0,345,0,,,,,,,,,,,,,,,,,,,,,,,,,,,,,,,,,,1170.3671623,1171.3938446,1168.1104916,1168.1104916,1168.1104916,1168.1104916,old_fruit_14.png,346,1.0,2.2519185999999536,,,026,10,2025-01-16_14h05.26.682,Surprise recog test,2023.1.3,59.944419534207476,
346,0,346,0,,,,,,,,,,,,,,,,,,,,,,,,,,,,,,,,,,1173.0009448,1174.0180376,1171.3938446,1171.3938446,1171.3938446,1171.3938446,new_stationery_20.png,347,4.0,1.607443099999955,,,026,10,2025-01-16_14h05.26.682,Surprise recog test,2023.1.3,59.944419534207476,
347,0,347,0,,,,,,,,,,,,,,,,,,,,,,,,,,,,,,,,,,1176.8446215000001,1177.8534015,1174.0180376,1174.0180376,1174.0180376,1174.0180376,old_fruit_21.png,348,2.0,2.8213270000001103,,,026,10,2025-01-16_14h05.26.682,Surprise recog test,2023.1.3,59.944419534207476,
348,0,348,0,,,,,,,,,,,,,,,,,,,,,,,,,,,,,,,,,,1178.968636,1179.9994768,1177.8534015,1177.8534015,1177.8534015,1177.8534015,new_sceneIn_9.png,349,4.0,1.1115657000000283,,,026,10,2025-01-16_14h05.26.682,Surprise recog test,2023.1.3,59.944419534207476,
349,0,349,0,,,,,,,,,,,,,,,,,,,,,,,,,,,,,,,,,,1182.8730159,1183.9018054,1179.9994768,1179.9994768,1179.9994768,1179.9994768,old_fruit_40.png,350,3.0,2.876600099999905,,,026,10,2025-01-16_14h05.26.682,Surprise recog test,2023.1.3,59.944419534207476,
350,0,350,0,,,,,,,,,,,,,,,,,,,,,,,,,,,,,,,,,,1185.7310666,1186.7435174,1183.9018054,1183.9018054,1183.9018054,1183.9018054,new_fruit_24.png,351,5.0,1.829559300000028,,,026,10,2025-01-16_14h05.26.682,Surprise recog test,2023.1.3,59.944419534207476,
351,0,351,0,,,,,,,,,,,,,,,,,,,,,,,,,,,,,,,,,,1188.464523,1189.4771588,1186.7435174,1186.7435174,1186.7435174,1186.7435174,old_fruit_38.png,352,1.0,1.7142974999999296,,,026,10,2025-01-16_14h05.26.682,Surprise recog test,2023.1.3,59.944419534207476,
352,0,352,0,,,,,,,,,,,,,,,,,,,,,,,,,,,,,,,,,,1190.864432,1191.8905072,1189.4771588,1189.4771588,1189.4771588,1189.4771588,new_fruit_14.png,353,3.0,1.3845562999999856,,,026,10,2025-01-16_14h05.26.682,Surprise recog test,2023.1.3,59.944419534207476,
353,0,353,0,,,,,,,,,,,,,,,,,,,,,,,,,,,,,,,,,,1193.2209168,1194.2464002,1191.8905072,1191.8905072,1191.8905072,1191.8905072,new_stationery_17.png,354,4.0,1.3297092999998767,,,026,10,2025-01-16_14h05.26.682,Surprise recog test,2023.1.3,59.944419534207476,
354,0,354,0,,,,,,,,,,,,,,,,,,,,,,,,,,,,,,,,,,1195.5622247000001,,1194.2464002,1194.2464002,1194.2464002,1194.2464002,old_stationery_31.png,355,4.0,1.318757900000037,,,026,10,2025-01-16_14h05.26.682,Surprise recog test,2023.1.3,59.944419534207476,
355,0,355,0,,,,,,,,,,,,,,,,,,,,,,,,,,,,,,,,,,1201.3067086,1202.3294692,1196.5897633,1196.5897633,1196.5897633,1196.5897633,old_sceneIn_4.png,356,4.0,4.718596499999876,,,026,10,2025-01-16_14h05.26.682,Surprise recog test,2023.1.3,59.944419534207476,
356,0,356,0,,,,,,,,,,,,,,,,,,,,,,,,,,,,,,,,,,1203.2536352,,1202.3294692,1202.3294692,1202.3294692,1202.3294692,new_sceneOut_31.png,357,4.0,0.9261550999999599,,,026,10,2025-01-16_14h05.26.682,Surprise recog test,2023.1.3,59.944419534207476,
357,0,357,0,,,,,,,,,,,,,,,,,,,,,,,,,,,,,,,,,,1205.7237514,1206.7511427,1204.2829354,1204.2829354,1204.2829354,1204.2829354,old_fruit_7.png,358,2.0,1.4428487000000132,,,026,10,2025-01-16_14h05.26.682,Surprise recog test,2023.1.3,59.944419534207476,
358,0,358,0,,,,,,,,,,,,,,,,,,,,,,,,,,,,,,,,,,1208.302399,1209.3198273,1206.7511427,1206.7511427,1206.7511427,1206.7511427,old_sceneOut_39.png,359,5.0,1.546976500000028,,,026,10,2025-01-16_14h05.26.682,Surprise recog test,2023.1.3,59.944419534207476,
359,0,359,0,,,,,,,,,,,,,,,,,,,,,,,,,,,,,,,,,,1210.7820614,1211.8053982000001,1209.3198273,1209.3198273,1209.3198273,1209.3198273,new_sceneOut_29.png,360,4.0,1.4646072000000459,,,026,10,2025-01-16_14h05.26.682,Surprise recog test,2023.1.3,59.944419534207476,
360,0,360,0,,,,,,,,,,,,,,,,,,,,,,,,,,,,,,,,,,1214.0140937,1215.0458332,1211.8053982000001,1211.8053982000001,1211.8053982000001,1211.8053982000001,old_stationery_11.png,361,3.0,2.207006900000124,,,026,10,2025-01-16_14h05.26.682,Surprise recog test,2023.1.3,59.944419534207476,
361,0,361,0,,,,,,,,,,,,,,,,,,,,,,,,,,,,,,,,,,1217.2034315,1218.2283912,1215.0458332,1215.0458332,1215.0458332,1215.0458332,new_sceneIn_21.png,362,4.0,2.1574617999999646,,,026,10,2025-01-16_14h05.26.682,Surprise recog test,2023.1.3,59.944419534207476,
362,0,362,0,,,,,,,,,,,,,,,,,,,,,,,,,,,,,,,,,,1219.849578,,1218.2283912,1218.2283912,1218.2283912,1218.2283912,old_stationery_18.png,363,3.0,1.616327100000035,,,026,10,2025-01-16_14h05.26.682,Surprise recog test,2023.1.3,59.944419534207476,
363,0,363,0,,,,,,,,,,,,,,,,,,,,,,,,,,,,,,,,,,1222.5417326,1223.5725475,1220.8827488,1220.8827488,1220.8827488,1220.8827488,new_sceneIn_48.png,364,4.0,1.6579397000000426,,,026,10,2025-01-16_14h05.26.682,Surprise recog test,2023.1.3,59.944419534207476,
364,0,364,0,,,,,,,,,,,,,,,,,,,,,,,,,,,,,,,,,,1225.3936397,1226.4261065,1223.5725475,1223.5725475,1223.5725475,1223.5725475,new_sceneIn_18.png,365,4.0,1.823345700000118,,,026,10,2025-01-16_14h05.26.682,Surprise recog test,2023.1.3,59.944419534207476,
365,0,365,0,,,,,,,,,,,,,,,,,,,,,,,,,,,,,,,,,,1228.0622622,1229.0920825,1226.4261065,1226.4261065,1226.4261065,1226.4261065,old_sceneOut_50.png,366,2.0,1.639295299999958,,,026,10,2025-01-16_14h05.26.682,Surprise recog test,2023.1.3,59.944419534207476,
366,0,366,0,,,,,,,,,,,,,,,,,,,,,,,,,,,,,,,,,,1230.3766317,,1229.0920825,1229.0920825,1229.0920825,1229.0920825,new_stationery_37.png,367,4.0,1.288966599999867,,,026,10,2025-01-16_14h05.26.682,Surprise recog test,2023.1.3,59.944419534207476,
367,0,367,0,,,,,,,,,,,,,,,,,,,,,,,,,,,,,,,,,,1233.2272719,,1231.4014022000001,1231.4014022000001,1231.4014022000001,1231.4014022000001,old_sceneOut_45.png,368,4.0,1.8251935000000685,,,026,10,2025-01-16_14h05.26.682,Surprise recog test,2023.1.3,59.944419534207476,
368,0,368,0,,,,,,,,,,,,,,,,,,,,,,,,,,,,,,,,,,1235.6163937000001,1236.6414255,1234.2634515,1234.2634515,1234.2634515,1234.2634515,new_stationery_5.png,369,5.0,1.3567850999997972,,,026,10,2025-01-16_14h05.26.682,Surprise recog test,2023.1.3,59.944419534207476,
369,0,369,0,,,,,,,,,,,,,,,,,,,,,,,,,,,,,,,,,,1238.0866821,1239.1193551000001,1236.6414255,1236.6414255,1236.6414255,1236.6414255,old_sceneIn_36.png,370,5.0,1.4428401000000122,,,026,10,2025-01-16_14h05.26.682,Surprise recog test,2023.1.3,59.944419534207476,
370,0,370,0,,,,,,,,,,,,,,,,,,,,,,,,,,,,,,,,,,1240.3640194,1241.368723,1239.1193551000001,1239.1193551000001,1239.1193551000001,1239.1193551000001,new_stationery_6.png,371,5.0,1.247526599999901,,,026,10,2025-01-16_14h05.26.682,Surprise recog test,2023.1.3,59.944419534207476,
371,0,371,0,,,,,,,,,,,,,,,,,,,,,,,,,,,,,,,,,,1245.3264533,1246.3400136,1241.368723,1241.368723,1241.368723,1241.368723,new_sceneIn_17.png,372,4.0,3.9525109000001066,,,026,10,2025-01-16_14h05.26.682,Surprise recog test,2023.1.3,59.944419534207476,
372,0,372,0,,,,,,,,,,,,,,,,,,,,,,,,,,,,,,,,,,1248.1168855,1249.1413715,1246.3400136,1246.3400136,1246.3400136,1246.3400136,old_sceneIn_46.png,373,5.0,1.7727472999999918,,,026,10,2025-01-16_14h05.26.682,Surprise recog test,2023.1.3,59.944419534207476,
373,0,373,0,,,,,,,,,,,,,,,,,,,,,,,,,,,,,,,,,,1250.5663699,1251.5923886,1249.1413715,1249.1413715,1249.1413715,1249.1413715,old_sceneIn_20.png,374,4.0,1.4275993000001108,,,026,10,2025-01-16_14h05.26.682,Surprise recog test,2023.1.3,59.944419534207476,
374,0,374,0,,,,,,,,,,,,,,,,,,,,,,,,,,,,,,,,,,1254.8617408,,1251.5923886,1251.5923886,1251.5923886,1251.5923886,new_sceneIn_23.png,375,3.0,3.2690004000000954,,,026,10,2025-01-16_14h05.26.682,Surprise recog test,2023.1.3,59.944419534207476,
375,0,375,0,,,,,,,,,,,,,,,,,,,,,,,,,,,,,,,,,,1257.5664826,1258.5974816,1255.8938208,1255.8938208,1255.8938208,1255.8938208,new_sceneIn_30.png,376,5.0,1.6745498999998745,,,026,10,2025-01-16_14h05.26.682,Surprise recog test,2023.1.3,59.944419534207476,
376,0,376,0,,,,,,,,,,,,,,,,,,,,,,,,,,,,,,,,,,1260.0133303,1261.0222039,1258.5974816,1258.5974816,1258.5974816,1258.5974816,old_stationery_19.png,377,5.0,1.4150368999999046,,,026,10,2025-01-16_14h05.26.682,Surprise recog test,2023.1.3,59.944419534207476,
377,0,377,0,,,,,,,,,,,,,,,,,,,,,,,,,,,,,,,,,,1262.7524977,,1261.0222039,1261.0222039,1261.0222039,1261.0222039,old_sceneOut_40.png,378,4.0,1.724113799999941,,,026,10,2025-01-16_14h05.26.682,Surprise recog test,2023.1.3,59.944419534207476,
378,0,378,0,,,,,,,,,,,,,,,,,,,,,,,,,,,,,,,,,,1266.1046152000001,,1263.7740392,1263.7740392,1263.7740392,1263.7740392,new_fruit_5.png,379,4.0,2.324309200000016,,,026,10,2025-01-16_14h05.26.682,Surprise recog test,2023.1.3,59.944419534207476,
379,0,379,0,,,,,,,,,,,,,,,,,,,,,,,,,,,,,,,,,,1269.6780347000001,1270.6961109000001,1267.1265581,1267.1265581,1267.1265581,1267.1265581,new_sceneIn_26.png,380,4.0,2.5462643000000753,,,026,10,2025-01-16_14h05.26.682,Surprise recog test,2023.1.3,59.944419534207476,
380,0,380,0,,,,,,,,,,,,,,,,,,,,,,,,,,,,,,,,,,1273.2464622,1274.2807505,1270.6961109000001,1270.6961109000001,1270.6961109000001,1270.6961109000001,old_sceneIn_18.png,381,4.0,2.5460533000000396,,,026,10,2025-01-16_14h05.26.682,Surprise recog test,2023.1.3,59.944419534207476,
381,0,381,0,,,,,,,,,,,,,,,,,,,,,,,,,,,,,,,,,,1275.9510476,1276.981616,1274.2807505,1274.2807505,1274.2807505,1274.2807505,old_sceneOut_6.png,382,3.0,1.672374000000218,,,026,10,2025-01-16_14h05.26.682,Surprise recog test,2023.1.3,59.944419534207476,
382,0,382,0,,,,,,,,,,,,,,,,,,,,,,,,,,,,,,,,,,1278.5372786,1279.5666503,1276.981616,1276.981616,1276.981616,1276.981616,old_sceneIn_24.png,383,4.0,1.5592900000001464,,,026,10,2025-01-16_14h05.26.682,Surprise recog test,2023.1.3,59.944419534207476,
383,0,383,0,,,,,,,,,,,,,,,,,,,,,,,,,,,,,,,,,,1282.510989,1283.533503,1279.5666503,1279.5666503,1279.5666503,1279.5666503,new_sceneOut_36.png,384,5.0,2.9417598,,,026,10,2025-01-16_14h05.26.682,Surprise recog test,2023.1.3,59.944419534207476,
384,0,384,0,,,,,,,,,,,,,,,,,,,,,,,,,,,,,,,,,,1285.7296483,1286.7593687,1283.533503,1283.533503,1283.533503,1283.533503,old_stationery_47.png,385,3.0,2.197868799999924,,,026,10,2025-01-16_14h05.26.682,Surprise recog test,2023.1.3,59.944419534207476,
385,0,385,0,,,,,,,,,,,,,,,,,,,,,,,,,,,,,,,,,,1287.9534688,1288.9733745,1286.7593687,1286.7593687,1286.7593687,1286.7593687,new_sceneOut_37.png,386,4.0,1.1926789999999983,,,026,10,2025-01-16_14h05.26.682,Surprise recog test,2023.1.3,59.944419534207476,
386,0,386,0,,,,,,,,,,,,,,,,,,,,,,,,,,,,,,,,,,1290.1621496,1291.1801964,1288.9733745,1288.9733745,1288.9733745,1288.9733745,old_sceneIn_48.png,387,4.0,1.1900203999998666,,,026,10,2025-01-16_14h05.26.682,Surprise recog test,2023.1.3,59.944419534207476,
387,0,387,0,,,,,,,,,,,,,,,,,,,,,,,,,,,,,,,,,,1294.0252784,1295.0346603,1291.1801964,1291.1801964,1291.1801964,1291.1801964,new_stationery_21.png,388,4.0,2.840714700000035,,,026,10,2025-01-16_14h05.26.682,Surprise recog test,2023.1.3,59.944419534207476,
