trial_loop.thisRepN,trial_loop.thisTrialN,trial_loop.thisN,trial_loop.thisIndex,VAS_slider.started,VAS_text.started,VAS_notstressed_text.started,VAS_stressed_text.started,continue_input.started,continue_text.started,label0.started,label10.started,label20.started,label30.started,label40.started,label50.started,label60.started,label70.started,label80.started,label90.started,label100.started,VAS_slider.response,VAS_slider.rt,VAS_slider.history,Answer_VAS,continue_input.keys,instruction_text.started,continue_text_2.started,continue_input_2.started,continue_input_2.keys,continue_input_2.rt,continue_input_2.duration,example_text.started,example_slider_2.started,example_image.started,example_slider_2.response,example_slider_2.rt,fixcross.started,fixcross.stopped,front_square.started,stim_images.started,trial_inst_images.started,slider_images.started,thisImg,trial_count,slider_images.response,slider_images.rt,outro.started,outro.stopped,participant,condition,date,expName,psychopyVersion,frameRate,
,,,,22.964921899999993,22.964921899999993,22.964921899999993,22.964921899999993,22.964921899999993,22.964921899999993,22.964921899999993,22.964921899999993,22.964921899999993,22.964921899999993,22.964921899999993,22.964921899999993,22.964921899999993,22.964921899999993,22.964921899999993,22.964921899999993,22.964921899999993,1.0666666666666669,3.6755967,"[(1.0666666666666669, 3.6755967)]",1.0666666666666669,None,,,,,,,,,,,,,,,,,,,,,,,,027,10,2024-12-03_14h34.56.669,Surprise recog test,2023.1.3,59.9609174739913,
,,,,,,,,,,,,,,,,,,,,,,,,,,26.6704718,26.6704718,26.6704718,space,1.2844456000000122,None,,,,,,,,,,,,,,,,,,027,10,2024-12-03_14h34.56.669,Surprise recog test,2023.1.3,59.9609174739913,
0,0,0,0,,,,,,,,,,,,,,,,,,,,,,,,,,,,,28.080372499999996,28.080372499999996,28.080372499999996,4.0,4.3321558000000095,34.539383099999995,35.54684189999999,33.3708046,33.3708046,33.3708046,33.3708046,new_sceneIn_36.png,1,4.0,1.1678798000000086,,,027,10,2024-12-03_14h34.56.669,Surprise recog test,2023.1.3,59.9609174739913,
1,0,1,0,,,,,,,,,,,,,,,,,,,,,,,,,,,,,,,,,,36.291786999999985,37.29619960000001,35.54684189999999,35.54684189999999,35.54684189999999,35.54684189999999,new_sceneIn_23.png,2,4.0,0.7430401999999958,,,027,10,2024-12-03_14h34.56.669,Surprise recog test,2023.1.3,59.9609174739913,
2,0,2,0,,,,,,,,,,,,,,,,,,,,,,,,,,,,,,,,,,38.1166515,39.1322589,37.29619960000001,37.29619960000001,37.29619960000001,37.29619960000001,old_sceneIn_32.png,3,4.0,0.8155563999999913,,,027,10,2024-12-03_14h34.56.669,Surprise recog test,2023.1.3,59.9609174739913,
3,0,3,0,,,,,,,,,,,,,,,,,,,,,,,,,,,,,,,,,,39.4783556,40.48467569999998,39.1322589,39.1322589,39.1322589,39.1322589,new_sceneIn_9.png,4,4.0,0.3413073000000111,,,027,10,2024-12-03_14h34.56.669,Surprise recog test,2023.1.3,59.9609174739913,
4,0,4,0,,,,,,,,,,,,,,,,,,,,,,,,,,,,,,,,,,40.82281139999999,41.83437669999999,40.48467569999998,40.48467569999998,40.48467569999998,40.48467569999998,new_stationery_48.png,5,4.0,0.3303918999999951,,,027,10,2024-12-03_14h34.56.669,Surprise recog test,2023.1.3,59.9609174739913,
5,0,5,0,,,,,,,,,,,,,,,,,,,,,,,,,,,,,,,,,,42.15475479999999,43.16705979999999,41.83437669999999,41.83437669999999,41.83437669999999,41.83437669999999,old_stationery_46.png,6,4.0,0.31304900000000657,,,027,10,2024-12-03_14h34.56.669,Surprise recog test,2023.1.3,59.9609174739913,
6,0,6,0,,,,,,,,,,,,,,,,,,,,,,,,,,,,,,,,,,44.9541942,45.970557,43.16705979999999,43.16705979999999,43.16705979999999,43.16705979999999,new_stationery_9.png,7,3.0,1.781755000000004,,,027,10,2024-12-03_14h34.56.669,Surprise recog test,2023.1.3,59.9609174739913,
7,0,7,0,,,,,,,,,,,,,,,,,,,,,,,,,,,,,,,,,,46.6930656,47.707665000000006,45.970557,45.970557,45.970557,45.970557,old_sceneOut_7.png,8,4.0,0.7175983999999858,,,027,10,2024-12-03_14h34.56.669,Surprise recog test,2023.1.3,59.9609174739913,
8,0,8,0,,,,,,,,,,,,,,,,,,,,,,,,,,,,,,,,,,48.636178999999984,49.63962449999998,47.707665000000006,47.707665000000006,47.707665000000006,47.707665000000006,new_sceneIn_45.png,9,5.0,0.9263843000000236,,,027,10,2024-12-03_14h34.56.669,Surprise recog test,2023.1.3,59.9609174739913,
9,0,9,0,,,,,,,,,,,,,,,,,,,,,,,,,,,,,,,,,,50.388143699999986,,49.63962449999998,49.63962449999998,49.63962449999998,49.63962449999998,old_sceneOut_6.png,10,4.0,0.7410525999999891,,,027,10,2024-12-03_14h34.56.669,Surprise recog test,2023.1.3,59.9609174739913,
10,0,10,0,,,,,,,,,,,,,,,,,,,,,,,,,,,,,,,,,,52.118991699999995,53.14242019999999,51.41372080000001,51.41372080000001,51.41372080000001,51.41372080000001,old_stationery_10.png,11,4.0,0.6981830000000002,,,027,10,2024-12-03_14h34.56.669,Surprise recog test,2023.1.3,59.9609174739913,
11,0,11,0,,,,,,,,,,,,,,,,,,,,,,,,,,,,,,,,,,53.7560361,54.765087199999996,53.14242019999999,53.14242019999999,53.14242019999999,53.14242019999999,old_stationery_44.png,12,4.0,0.6130034999999907,,,027,10,2024-12-03_14h34.56.669,Surprise recog test,2023.1.3,59.9609174739913,
12,0,12,0,,,,,,,,,,,,,,,,,,,,,,,,,,,,,,,,,,55.58773240000001,56.59847359999999,54.765087199999996,54.765087199999996,54.765087199999996,54.765087199999996,old_sceneOut_40.png,13,4.0,0.8172514000000035,,,027,10,2024-12-03_14h34.56.669,Surprise recog test,2023.1.3,59.9609174739913,
13,0,13,0,,,,,,,,,,,,,,,,,,,,,,,,,,,,,,,,,,57.50909750000001,58.5133115,56.59847359999999,56.59847359999999,56.59847359999999,56.59847359999999,new_fruit_41.png,14,4.0,0.9095528999999942,,,027,10,2024-12-03_14h34.56.669,Surprise recog test,2023.1.3,59.9609174739913,
14,0,14,0,,,,,,,,,,,,,,,,,,,,,,,,,,,,,,,,,,59.293414699999985,60.299141199999994,58.5133115,58.5133115,58.5133115,58.5133115,old_stationery_9.png,15,4.0,0.7752700000000061,,,027,10,2024-12-03_14h34.56.669,Surprise recog test,2023.1.3,59.9609174739913,
15,0,15,0,,,,,,,,,,,,,,,,,,,,,,,,,,,,,,,,,,60.873212899999984,61.890266899999986,60.299141199999994,60.299141199999994,60.299141199999994,60.299141199999994,old_sceneOut_31.png,16,4.0,0.5691252999999961,,,027,10,2024-12-03_14h34.56.669,Surprise recog test,2023.1.3,59.9609174739913,
16,0,16,0,,,,,,,,,,,,,,,,,,,,,,,,,,,,,,,,,,63.149130699999986,,61.890266899999986,61.890266899999986,61.890266899999986,61.890266899999986,old_stationery_39.png,17,5.0,1.2570286000000124,,,027,10,2024-12-03_14h34.56.669,Surprise recog test,2023.1.3,59.9609174739913,
17,0,17,0,,,,,,,,,,,,,,,,,,,,,,,,,,,,,,,,,,65.74893619999999,66.7545052,64.18363219999999,64.18363219999999,64.18363219999999,64.18363219999999,new_fruit_5.png,18,4.0,1.5658866000000273,,,027,10,2024-12-03_14h34.56.669,Surprise recog test,2023.1.3,59.9609174739913,
18,0,18,0,,,,,,,,,,,,,,,,,,,,,,,,,,,,,,,,,,68.0778509,69.102177,66.7545052,66.7545052,66.7545052,66.7545052,new_fruit_44.png,19,4.0,1.3198739000000046,,,027,10,2024-12-03_14h34.56.669,Surprise recog test,2023.1.3,59.9609174739913,
19,0,19,0,,,,,,,,,,,,,,,,,,,,,,,,,,,,,,,,,,70.2672937,71.2905013,69.102177,69.102177,69.102177,69.102177,new_sceneIn_15.png,20,4.0,1.165395000000018,,,027,10,2024-12-03_14h34.56.669,Surprise recog test,2023.1.3,59.9609174739913,
20,0,20,0,,,,,,,,,,,,,,,,,,,,,,,,,,,,,,,,,,72.76896430000001,73.7884988,71.2905013,71.2905013,71.2905013,71.2905013,new_fruit_22.png,21,4.0,1.477805200000006,,,027,10,2024-12-03_14h34.56.669,Surprise recog test,2023.1.3,59.9609174739913,
21,0,21,0,,,,,,,,,,,,,,,,,,,,,,,,,,,,,,,,,,74.98936189999999,76.0085945,73.7884988,73.7884988,73.7884988,73.7884988,old_stationery_12.png,22,4.0,1.2029165999999805,,,027,10,2024-12-03_14h34.56.669,Surprise recog test,2023.1.3,59.9609174739913,
22,0,22,0,,,,,,,,,,,,,,,,,,,,,,,,,,,,,,,,,,76.97009529999998,77.98382259999998,76.0085945,76.0085945,76.0085945,76.0085945,old_stationery_2.png,23,4.0,0.9606503000000259,,,027,10,2024-12-03_14h34.56.669,Surprise recog test,2023.1.3,59.9609174739913,
23,0,23,0,,,,,,,,,,,,,,,,,,,,,,,,,,,,,,,,,,78.7916048,79.81120589999999,77.98382259999998,77.98382259999998,77.98382259999998,77.98382259999998,new_fruit_42.png,24,4.0,0.8034310000000175,,,027,10,2024-12-03_14h34.56.669,Surprise recog test,2023.1.3,59.9609174739913,
24,0,24,0,,,,,,,,,,,,,,,,,,,,,,,,,,,,,,,,,,80.41069499999999,81.42712809999999,79.81120589999999,79.81120589999999,79.81120589999999,79.81120589999999,old_sceneOut_1.png,25,4.0,0.5963787000000025,,,027,10,2024-12-03_14h34.56.669,Surprise recog test,2023.1.3,59.9609174739913,
25,0,25,0,,,,,,,,,,,,,,,,,,,,,,,,,,,,,,,,,,82.2285864,83.24693179999998,81.42712809999999,81.42712809999999,81.42712809999999,81.42712809999999,new_sceneIn_26.png,26,4.0,0.7986402999999882,,,027,10,2024-12-03_14h34.56.669,Surprise recog test,2023.1.3,59.9609174739913,
26,0,26,0,,,,,,,,,,,,,,,,,,,,,,,,,,,,,,,,,,84.37183599999999,85.38893689999999,83.24693179999998,83.24693179999998,83.24693179999998,83.24693179999998,old_sceneOut_47.png,27,4.0,1.1266213000000107,,,027,10,2024-12-03_14h34.56.669,Surprise recog test,2023.1.3,59.9609174739913,
27,0,27,0,,,,,,,,,,,,,,,,,,,,,,,,,,,,,,,,,,86.9934649,88.0108598,85.38893689999999,85.38893689999999,85.38893689999999,85.38893689999999,new_fruit_39.png,28,3.0,1.5996106999999995,,,027,10,2024-12-03_14h34.56.669,Surprise recog test,2023.1.3,59.9609174739913,
28,0,28,0,,,,,,,,,,,,,,,,,,,,,,,,,,,,,,,,,,89.84232529999998,90.85885559999998,88.0108598,88.0108598,88.0108598,88.0108598,new_sceneOut_38.png,29,4.0,1.827087199999994,,,027,10,2024-12-03_14h34.56.669,Surprise recog test,2023.1.3,59.9609174739913,
29,0,29,0,,,,,,,,,,,,,,,,,,,,,,,,,,,,,,,,,,92.1151321,93.13054240000001,90.85885559999998,90.85885559999998,90.85885559999998,90.85885559999998,new_stationery_1.png,30,4.0,1.2540912000000048,,,027,10,2024-12-03_14h34.56.669,Surprise recog test,2023.1.3,59.9609174739913,
30,0,30,0,,,,,,,,,,,,,,,,,,,,,,,,,,,,,,,,,,93.7422121,,93.13054240000001,93.13054240000001,93.13054240000001,93.13054240000001,new_sceneIn_28.png,31,4.0,0.605546099999998,,,027,10,2024-12-03_14h34.56.669,Surprise recog test,2023.1.3,59.9609174739913,
31,0,31,0,,,,,,,,,,,,,,,,,,,,,,,,,,,,,,,,,,95.27685000000001,,94.75973129999998,94.75973129999998,94.75973129999998,94.75973129999998,old_sceneOut_32.png,32,4.0,0.5110762000000193,,,027,10,2024-12-03_14h34.56.669,Surprise recog test,2023.1.3,59.9609174739913,
32,0,32,0,,,,,,,,,,,,,,,,,,,,,,,,,,,,,,,,,,97.0913092,98.1088382,96.2964157,96.2964157,96.2964157,96.2964157,old_sceneIn_37.png,33,4.0,0.7869338000000141,,,027,10,2024-12-03_14h34.56.669,Surprise recog test,2023.1.3,59.9609174739913,
33,0,33,0,,,,,,,,,,,,,,,,,,,,,,,,,,,,,,,,,,98.59404819999999,99.59681289999999,98.1088382,98.1088382,98.1088382,98.1088382,old_sceneOut_2.png,34,4.0,0.4873809999999992,,,027,10,2024-12-03_14h34.56.669,Surprise recog test,2023.1.3,59.9609174739913,
34,0,34,0,,,,,,,,,,,,,,,,,,,,,,,,,,,,,,,,,,99.94367759999999,100.9526005,99.59681289999999,99.59681289999999,99.59681289999999,99.59681289999999,old_fruit_42.png,35,4.0,0.3413326000000154,,,027,10,2024-12-03_14h34.56.669,Surprise recog test,2023.1.3,59.9609174739913,
35,0,35,0,,,,,,,,,,,,,,,,,,,,,,,,,,,,,,,,,,101.60575289999998,102.62533369999998,100.9526005,100.9526005,100.9526005,100.9526005,new_fruit_19.png,36,4.0,0.6477851999999871,,,027,10,2024-12-03_14h34.56.669,Surprise recog test,2023.1.3,59.9609174739913,
36,0,36,0,,,,,,,,,,,,,,,,,,,,,,,,,,,,,,,,,,103.6560641,104.68555339999999,102.62533369999998,102.62533369999998,102.62533369999998,102.62533369999998,new_sceneIn_2.png,37,4.0,1.0276151999999854,,,027,10,2024-12-03_14h34.56.669,Surprise recog test,2023.1.3,59.9609174739913,
37,0,37,0,,,,,,,,,,,,,,,,,,,,,,,,,,,,,,,,,,105.4461447,106.4777677,104.68555339999999,104.68555339999999,104.68555339999999,104.68555339999999,new_stationery_40.png,38,4.0,0.7632552999999973,,,027,10,2024-12-03_14h34.56.669,Surprise recog test,2023.1.3,59.9609174739913,
38,0,38,0,,,,,,,,,,,,,,,,,,,,,,,,,,,,,,,,,,106.95794020000001,107.9725403,106.4777677,106.4777677,106.4777677,106.4777677,old_sceneOut_44.png,39,4.0,0.4828852999999924,,,027,10,2024-12-03_14h34.56.669,Surprise recog test,2023.1.3,59.9609174739913,
39,0,39,0,,,,,,,,,,,,,,,,,,,,,,,,,,,,,,,,,,108.6579521,109.6874073,107.9725403,107.9725403,107.9725403,107.9725403,new_fruit_46.png,40,4.0,0.6802416999999821,,,027,10,2024-12-03_14h34.56.669,Surprise recog test,2023.1.3,59.9609174739913,
40,0,40,0,,,,,,,,,,,,,,,,,,,,,,,,,,,,,,,,,,110.565592,111.57309049999999,109.6874073,109.6874073,109.6874073,109.6874073,new_fruit_2.png,41,4.0,0.8776736000000085,,,027,10,2024-12-03_14h34.56.669,Surprise recog test,2023.1.3,59.9609174739913,
41,0,41,0,,,,,,,,,,,,,,,,,,,,,,,,,,,,,,,,,,112.85250090000001,113.8596869,111.57309049999999,111.57309049999999,111.57309049999999,111.57309049999999,old_stationery_8.png,42,1.0,1.2733386999999823,,,027,10,2024-12-03_14h34.56.669,Surprise recog test,2023.1.3,59.9609174739913,
42,0,42,0,,,,,,,,,,,,,,,,,,,,,,,,,,,,,,,,,,115.542534,,113.8596869,113.8596869,113.8596869,113.8596869,new_sceneIn_40.png,43,3.0,1.678523800000022,,,027,10,2024-12-03_14h34.56.669,Surprise recog test,2023.1.3,59.9609174739913,
43,0,43,0,,,,,,,,,,,,,,,,,,,,,,,,,,,,,,,,,,117.16446810000001,118.1840304,116.56295629999998,116.56295629999998,116.56295629999998,116.56295629999998,new_sceneOut_39.png,44,4.0,0.5972921000000042,,,027,10,2024-12-03_14h34.56.669,Surprise recog test,2023.1.3,59.9609174739913,
44,0,44,0,,,,,,,,,,,,,,,,,,,,,,,,,,,,,,,,,,119.5663123,120.59651699999999,118.1840304,118.1840304,118.1840304,118.1840304,new_fruit_50.png,45,5.0,1.380790300000001,,,027,10,2024-12-03_14h34.56.669,Surprise recog test,2023.1.3,59.9609174739913,
45,0,45,0,,,,,,,,,,,,,,,,,,,,,,,,,,,,,,,,,,121.35622769999999,122.3822147,120.59651699999999,120.59651699999999,120.59651699999999,120.59651699999999,new_sceneIn_41.png,46,5.0,0.7620101999999918,,,027,10,2024-12-03_14h34.56.669,Surprise recog test,2023.1.3,59.9609174739913,
46,0,46,0,,,,,,,,,,,,,,,,,,,,,,,,,,,,,,,,,,123.0668811,,122.3822147,122.3822147,122.3822147,122.3822147,old_sceneIn_9.png,47,5.0,0.6859848,,,027,10,2024-12-03_14h34.56.669,Surprise recog test,2023.1.3,59.9609174739913,
47,0,47,0,,,,,,,,,,,,,,,,,,,,,,,,,,,,,,,,,,124.7930592,125.812719,124.091831,124.091831,124.091831,124.091831,old_sceneOut_14.png,48,5.0,0.7007619999999974,,,027,10,2024-12-03_14h34.56.669,Surprise recog test,2023.1.3,59.9609174739913,
48,0,48,0,,,,,,,,,,,,,,,,,,,,,,,,,,,,,,,,,,126.1905325,127.2062959,125.812719,125.812719,125.812719,125.812719,old_sceneIn_17.png,49,5.0,0.37723009999999135,,,027,10,2024-12-03_14h34.56.669,Surprise recog test,2023.1.3,59.9609174739913,
49,0,49,0,,,,,,,,,,,,,,,,,,,,,,,,,,,,,,,,,,129.55849139999998,130.58608170000002,127.2062959,127.2062959,127.2062959,127.2062959,old_stationery_1.png,50,1.0,2.3468263999999976,,,027,10,2024-12-03_14h34.56.669,Surprise recog test,2023.1.3,59.9609174739913,
50,0,50,0,,,,,,,,,,,,,,,,,,,,,,,,,,,,,,,,,,131.48529939999997,132.5051578,130.58608170000002,130.58608170000002,130.58608170000002,130.58608170000002,old_stationery_26.png,51,1.0,0.8996736999999939,,,027,10,2024-12-03_14h34.56.669,Surprise recog test,2023.1.3,59.9609174739913,
51,0,51,0,,,,,,,,,,,,,,,,,,,,,,,,,,,,,,,,,,133.81471779999998,134.82755709999998,132.5051578,132.5051578,132.5051578,132.5051578,old_sceneIn_15.png,52,3.0,1.3064147999999989,,,027,10,2024-12-03_14h34.56.669,Surprise recog test,2023.1.3,59.9609174739913,
52,0,52,0,,,,,,,,,,,,,,,,,,,,,,,,,,,,,,,,,,135.50537959999997,136.52502470000002,134.82755709999998,134.82755709999998,134.82755709999998,134.82755709999998,old_fruit_19.png,53,4.0,0.6740356999999904,,,027,10,2024-12-03_14h34.56.669,Surprise recog test,2023.1.3,59.9609174739913,
53,0,53,0,,,,,,,,,,,,,,,,,,,,,,,,,,,,,,,,,,137.1031216,138.12105580000002,136.52502470000002,136.52502470000002,136.52502470000002,136.52502470000002,old_stationery_42.png,54,4.0,0.5794323000000077,,,027,10,2024-12-03_14h34.56.669,Surprise recog test,2023.1.3,59.9609174739913,
54,0,54,0,,,,,,,,,,,,,,,,,,,,,,,,,,,,,,,,,,138.6596497,139.68339939999998,138.12105580000002,138.12105580000002,138.12105580000002,138.12105580000002,old_sceneIn_6.png,55,4.0,0.5390789000000211,,,027,10,2024-12-03_14h34.56.669,Surprise recog test,2023.1.3,59.9609174739913,
55,0,55,0,,,,,,,,,,,,,,,,,,,,,,,,,,,,,,,,,,140.04360880000002,141.0530157,139.68339939999998,139.68339939999998,139.68339939999998,139.68339939999998,old_sceneIn_43.png,56,4.0,0.35802989999999113,,,027,10,2024-12-03_14h34.56.669,Surprise recog test,2023.1.3,59.9609174739913,
56,0,56,0,,,,,,,,,,,,,,,,,,,,,,,,,,,,,,,,,,141.40327969999998,142.432654,141.0530157,141.0530157,141.0530157,141.0530157,old_sceneOut_37.png,57,4.0,0.3437780999999802,,,027,10,2024-12-03_14h34.56.669,Surprise recog test,2023.1.3,59.9609174739913,
57,0,57,0,,,,,,,,,,,,,,,,,,,,,,,,,,,,,,,,,,142.5080109,143.52994139999998,142.432654,142.432654,142.432654,142.432654,new_sceneOut_43.png,58,4.0,0.07949869999998782,,,027,10,2024-12-03_14h34.56.669,Surprise recog test,2023.1.3,59.9609174739913,
58,0,58,0,,,,,,,,,,,,,,,,,,,,,,,,,,,,,,,,,,144.28618369999998,145.3127799,143.52994139999998,143.52994139999998,143.52994139999998,143.52994139999998,old_stationery_27.png,59,4.0,0.7577585999999883,,,027,10,2024-12-03_14h34.56.669,Surprise recog test,2023.1.3,59.9609174739913,
59,0,59,0,,,,,,,,,,,,,,,,,,,,,,,,,,,,,,,,,,146.67122059999997,147.69747389999998,145.3127799,145.3127799,145.3127799,145.3127799,old_stationery_31.png,60,3.0,1.3608515999999895,,,027,10,2024-12-03_14h34.56.669,Surprise recog test,2023.1.3,59.9609174739913,
60,0,60,0,,,,,,,,,,,,,,,,,,,,,,,,,,,,,,,,,,149.38440359999998,150.3945756,147.69747389999998,147.69747389999998,147.69747389999998,147.69747389999998,new_stationery_21.png,61,4.0,1.6888272999999856,,,027,10,2024-12-03_14h34.56.669,Surprise recog test,2023.1.3,59.9609174739913,
61,0,61,0,,,,,,,,,,,,,,,,,,,,,,,,,,,,,,,,,,151.90773059999998,,150.3945756,150.3945756,150.3945756,150.3945756,new_sceneOut_44.png,62,5.0,1.5101652999999828,,,027,10,2024-12-03_14h34.56.669,Surprise recog test,2023.1.3,59.9609174739913,
62,0,62,0,,,,,,,,,,,,,,,,,,,,,,,,,,,,,,,,,,154.05769750000002,,152.94041199999998,152.94041199999998,152.94041199999998,152.94041199999998,old_fruit_1.png,63,4.0,1.1205488999999886,,,027,10,2024-12-03_14h34.56.669,Surprise recog test,2023.1.3,59.9609174739913,
63,0,63,0,,,,,,,,,,,,,,,,,,,,,,,,,,,,,,,,,,156.10106509999997,157.1235395,155.0780261,155.0780261,155.0780261,155.0780261,old_sceneIn_7.png,64,4.0,1.016306500000013,,,027,10,2024-12-03_14h34.56.669,Surprise recog test,2023.1.3,59.9609174739913,
64,0,64,0,,,,,,,,,,,,,,,,,,,,,,,,,,,,,,,,,,157.78272169999997,158.81290819999998,157.1235395,157.1235395,157.1235395,157.1235395,new_sceneOut_19.png,65,4.0,0.6584292999999946,,,027,10,2024-12-03_14h34.56.669,Surprise recog test,2023.1.3,59.9609174739913,
65,0,65,0,,,,,,,,,,,,,,,,,,,,,,,,,,,,,,,,,,159.56559249999998,160.5981001,158.81290819999998,158.81290819999998,158.81290819999998,158.81290819999998,old_fruit_37.png,66,4.0,0.7540434000000005,,,027,10,2024-12-03_14h34.56.669,Surprise recog test,2023.1.3,59.9609174739913,
66,0,66,0,,,,,,,,,,,,,,,,,,,,,,,,,,,,,,,,,,161.9792445,162.99538760000002,160.5981001,160.5981001,160.5981001,160.5981001,old_fruit_12.png,67,2.0,1.3813662999999679,,,027,10,2024-12-03_14h34.56.669,Surprise recog test,2023.1.3,59.9609174739913,
67,0,67,0,,,,,,,,,,,,,,,,,,,,,,,,,,,,,,,,,,163.95716300000004,164.97310950000002,162.99538760000002,162.99538760000002,162.99538760000002,162.99538760000002,old_stationery_36.png,68,3.0,0.9624953999999661,,,027,10,2024-12-03_14h34.56.669,Surprise recog test,2023.1.3,59.9609174739913,
68,0,68,0,,,,,,,,,,,,,,,,,,,,,,,,,,,,,,,,,,165.8682746,,164.97310950000002,164.97310950000002,164.97310950000002,164.97310950000002,new_stationery_20.png,69,4.0,0.8892106000000126,,,027,10,2024-12-03_14h34.56.669,Surprise recog test,2023.1.3,59.9609174739913,
69,0,69,0,,,,,,,,,,,,,,,,,,,,,,,,,,,,,,,,,,167.44132710000002,168.4694217,166.89401860000004,166.89401860000004,166.89401860000004,166.89401860000004,old_fruit_40.png,70,4.0,0.5460190000000011,,,027,10,2024-12-03_14h34.56.669,Surprise recog test,2023.1.3,59.9609174739913,
70,0,70,0,,,,,,,,,,,,,,,,,,,,,,,,,,,,,,,,,,170.0049502,,168.4694217,168.4694217,168.4694217,168.4694217,old_stationery_20.png,71,4.0,1.535686499999997,,,027,10,2024-12-03_14h34.56.669,Surprise recog test,2023.1.3,59.9609174739913,
71,0,71,0,,,,,,,,,,,,,,,,,,,,,,,,,,,,,,,,,,173.84957380000003,174.87458880000003,171.03800710000002,171.03800710000002,171.03800710000002,171.03800710000002,old_fruit_43.png,72,4.0,2.8144899000000123,,,027,10,2024-12-03_14h34.56.669,Surprise recog test,2023.1.3,59.9609174739913,
72,0,72,0,,,,,,,,,,,,,,,,,,,,,,,,,,,,,,,,,,176.83451130000003,177.8576585,174.87458880000003,174.87458880000003,174.87458880000003,174.87458880000003,new_stationery_28.png,73,2.0,1.96100610000002,,,027,10,2024-12-03_14h34.56.669,Surprise recog test,2023.1.3,59.9609174739913,
73,0,73,0,,,,,,,,,,,,,,,,,,,,,,,,,,,,,,,,,,179.29849590000003,180.3143323,177.8576585,177.8576585,177.8576585,177.8576585,old_sceneOut_45.png,74,4.0,1.4403688000000443,,,027,10,2024-12-03_14h34.56.669,Surprise recog test,2023.1.3,59.9609174739913,
74,0,74,0,,,,,,,,,,,,,,,,,,,,,,,,,,,,,,,,,,181.38368200000002,182.4050214,180.3143323,180.3143323,180.3143323,180.3143323,new_fruit_36.png,75,5.0,1.064991100000043,,,027,10,2024-12-03_14h34.56.669,Surprise recog test,2023.1.3,59.9609174739913,
75,0,75,0,,,,,,,,,,,,,,,,,,,,,,,,,,,,,,,,,,184.03315120000002,,182.4050214,182.4050214,182.4050214,182.4050214,old_fruit_4.png,76,3.0,1.627358700000002,,,027,10,2024-12-03_14h34.56.669,Surprise recog test,2023.1.3,59.9609174739913,
76,0,76,0,,,,,,,,,,,,,,,,,,,,,,,,,,,,,,,,,,186.39825080000003,187.419919,185.0660787,185.0660787,185.0660787,185.0660787,new_stationery_15.png,77,2.0,1.3332083999999895,,,027,10,2024-12-03_14h34.56.669,Surprise recog test,2023.1.3,59.9609174739913,
77,0,77,0,,,,,,,,,,,,,,,,,,,,,,,,,,,,,,,,,,188.5640884,189.5924716,187.419919,187.419919,187.419919,187.419919,old_stationery_6.png,78,4.0,1.1457827999999495,,,027,10,2024-12-03_14h34.56.669,Surprise recog test,2023.1.3,59.9609174739913,
78,0,78,0,,,,,,,,,,,,,,,,,,,,,,,,,,,,,,,,,,190.4855311,191.5043068,189.5924716,189.5924716,189.5924716,189.5924716,old_sceneIn_30.png,79,4.0,0.8912665000000288,,,027,10,2024-12-03_14h34.56.669,Surprise recog test,2023.1.3,59.9609174739913,
79,0,79,0,,,,,,,,,,,,,,,,,,,,,,,,,,,,,,,,,,192.4535414,193.465526,191.5043068,191.5043068,191.5043068,191.5043068,new_fruit_33.png,80,4.0,0.9508023000000208,,,027,10,2024-12-03_14h34.56.669,Surprise recog test,2023.1.3,59.9609174739913,
80,0,80,0,,,,,,,,,,,,,,,,,,,,,,,,,,,,,,,,,,194.31651170000004,195.3369973,193.465526,193.465526,193.465526,193.465526,old_fruit_16.png,81,4.0,0.8503475999999637,,,027,10,2024-12-03_14h34.56.669,Surprise recog test,2023.1.3,59.9609174739913,
81,0,81,0,,,,,,,,,,,,,,,,,,,,,,,,,,,,,,,,,,196.1231088,197.143368,195.3369973,195.3369973,195.3369973,195.3369973,old_fruit_9.png,82,4.0,0.7843745000000126,,,027,10,2024-12-03_14h34.56.669,Surprise recog test,2023.1.3,59.9609174739913,
82,0,82,0,,,,,,,,,,,,,,,,,,,,,,,,,,,,,,,,,,199.4933239,200.5022553,197.143368,197.143368,197.143368,197.143368,new_fruit_16.png,83,2.0,2.3506044999999745,,,027,10,2024-12-03_14h34.56.669,Surprise recog test,2023.1.3,59.9609174739913,
83,0,83,0,,,,,,,,,,,,,,,,,,,,,,,,,,,,,,,,,,202.8054525,203.8293453,200.5022553,200.5022553,200.5022553,200.5022553,old_sceneOut_34.png,84,4.0,2.299053000000015,,,027,10,2024-12-03_14h34.56.669,Surprise recog test,2023.1.3,59.9609174739913,
84,0,84,0,,,,,,,,,,,,,,,,,,,,,,,,,,,,,,,,,,204.6444343,205.6707341,203.8293453,203.8293453,203.8293453,203.8293453,new_fruit_38.png,85,4.0,0.814689699999974,,,027,10,2024-12-03_14h34.56.669,Surprise recog test,2023.1.3,59.9609174739913,
85,0,85,0,,,,,,,,,,,,,,,,,,,,,,,,,,,,,,,,,,206.50120250000003,,205.6707341,205.6707341,205.6707341,205.6707341,new_sceneOut_28.png,86,3.0,0.8319581000000085,,,027,10,2024-12-03_14h34.56.669,Surprise recog test,2023.1.3,59.9609174739913,
86,0,86,0,,,,,,,,,,,,,,,,,,,,,,,,,,,,,,,,,,208.3700637,,207.52992590000002,207.52992590000002,207.52992590000002,207.52992590000002,old_sceneIn_45.png,87,4.0,0.8407390999999507,,,027,10,2024-12-03_14h34.56.669,Surprise recog test,2023.1.3,59.9609174739913,
87,0,87,0,,,,,,,,,,,,,,,,,,,,,,,,,,,,,,,,,,210.16630050000003,211.1883684,209.41108930000001,209.41108930000001,209.41108930000001,209.41108930000001,new_fruit_24.png,88,4.0,0.7573308999999995,,,027,10,2024-12-03_14h34.56.669,Surprise recog test,2023.1.3,59.9609174739913,
88,0,88,0,,,,,,,,,,,,,,,,,,,,,,,,,,,,,,,,,,211.99411450000002,213.0153924,211.1883684,211.1883684,211.1883684,211.1883684,new_sceneIn_35.png,89,4.0,0.8076044999999681,,,027,10,2024-12-03_14h34.56.669,Surprise recog test,2023.1.3,59.9609174739913,
89,0,89,0,,,,,,,,,,,,,,,,,,,,,,,,,,,,,,,,,,214.38855840000002,215.39411719999998,213.0153924,213.0153924,213.0153924,213.0153924,old_sceneIn_44.png,90,4.0,1.3681735000000117,,,027,10,2024-12-03_14h34.56.669,Surprise recog test,2023.1.3,59.9609174739913,
90,0,90,0,,,,,,,,,,,,,,,,,,,,,,,,,,,,,,,,,,216.1901239,217.1959382,215.39411719999998,215.39411719999998,215.39411719999998,215.39411719999998,new_sceneIn_50.png,91,4.0,0.7867371000000389,,,027,10,2024-12-03_14h34.56.669,Surprise recog test,2023.1.3,59.9609174739913,
91,0,91,0,,,,,,,,,,,,,,,,,,,,,,,,,,,,,,,,,,220.12664640000003,221.13176140000002,217.1959382,217.1959382,217.1959382,217.1959382,new_stationery_34.png,92,3.0,2.921460599999989,,,027,10,2024-12-03_14h34.56.669,Surprise recog test,2023.1.3,59.9609174739913,
92,0,92,0,,,,,,,,,,,,,,,,,,,,,,,,,,,,,,,,,,222.02823460000002,223.03825670000003,221.13176140000002,221.13176140000002,221.13176140000002,221.13176140000002,old_sceneIn_48.png,93,4.0,0.8884504999999763,,,027,10,2024-12-03_14h34.56.669,Surprise recog test,2023.1.3,59.9609174739913,
93,0,93,0,,,,,,,,,,,,,,,,,,,,,,,,,,,,,,,,,,223.71136360000003,224.7185859,223.03825670000003,223.03825670000003,223.03825670000003,223.03825670000003,old_sceneIn_47.png,94,4.0,0.6690207999999984,,,027,10,2024-12-03_14h34.56.669,Surprise recog test,2023.1.3,59.9609174739913,
94,0,94,0,,,,,,,,,,,,,,,,,,,,,,,,,,,,,,,,,,225.84470600000003,226.8570376,224.7185859,224.7185859,224.7185859,224.7185859,new_stationery_23.png,95,4.0,1.1239295999999968,,,027,10,2024-12-03_14h34.56.669,Surprise recog test,2023.1.3,59.9609174739913,
95,0,95,0,,,,,,,,,,,,,,,,,,,,,,,,,,,,,,,,,,227.68335660000002,228.6894661,226.8570376,226.8570376,226.8570376,226.8570376,old_sceneIn_18.png,96,4.0,0.8254028000000062,,,027,10,2024-12-03_14h34.56.669,Surprise recog test,2023.1.3,59.9609174739913,
96,0,96,0,,,,,,,,,,,,,,,,,,,,,,,,,,,,,,,,,,229.5174548,230.5234641,228.6894661,228.6894661,228.6894661,228.6894661,old_stationery_33.png,97,4.0,0.8253586000000155,,,027,10,2024-12-03_14h34.56.669,Surprise recog test,2023.1.3,59.9609174739913,
97,0,97,0,,,,,,,,,,,,,,,,,,,,,,,,,,,,,,,,,,231.3360057,232.34030870000004,230.5234641,230.5234641,230.5234641,230.5234641,new_sceneOut_1.png,98,4.0,0.805154200000004,,,027,10,2024-12-03_14h34.56.669,Surprise recog test,2023.1.3,59.9609174739913,
98,0,98,0,,,,,,,,,,,,,,,,,,,,,,,,,,,,,,,,,,233.42108560000003,234.4442034,232.34030870000004,232.34030870000004,232.34030870000004,232.34030870000004,new_stationery_11.png,99,4.0,1.070364799999993,,,027,10,2024-12-03_14h34.56.669,Surprise recog test,2023.1.3,59.9609174739913,
99,0,99,0,,,,,,,,,,,,,,,,,,,,,,,,,,,,,,,,,,235.11262040000003,236.13080460000003,234.4442034,234.4442034,234.4442034,234.4442034,new_sceneIn_21.png,100,4.0,0.6700776000000133,,,027,10,2024-12-03_14h34.56.669,Surprise recog test,2023.1.3,59.9609174739913,
100,0,100,0,,,,,,,,,,,,,,,,,,,,,,,,,,,,,,,,,,236.84653780000002,237.86282750000004,236.13080460000003,236.13080460000003,236.13080460000003,236.13080460000003,new_sceneOut_4.png,101,4.0,0.7150919000000044,,,027,10,2024-12-03_14h34.56.669,Surprise recog test,2023.1.3,59.9609174739913,
101,0,101,0,,,,,,,,,,,,,,,,,,,,,,,,,,,,,,,,,,240.6620886,241.667439,237.86282750000004,237.86282750000004,237.86282750000004,237.86282750000004,old_fruit_8.png,102,2.0,2.7963605000000484,,,027,10,2024-12-03_14h34.56.669,Surprise recog test,2023.1.3,59.9609174739913,
102,0,102,0,,,,,,,,,,,,,,,,,,,,,,,,,,,,,,,,,,244.3157774,,241.667439,241.667439,241.667439,241.667439,new_fruit_34.png,103,4.0,2.6452639999999974,,,027,10,2024-12-03_14h34.56.669,Surprise recog test,2023.1.3,59.9609174739913,
103,0,103,0,,,,,,,,,,,,,,,,,,,,,,,,,,,,,,,,,,247.6450479,248.67158520000004,245.33706180000001,245.33706180000001,245.33706180000001,245.33706180000001,old_sceneOut_19.png,104,5.0,2.303557899999987,,,027,10,2024-12-03_14h34.56.669,Surprise recog test,2023.1.3,59.9609174739913,
104,0,104,0,,,,,,,,,,,,,,,,,,,,,,,,,,,,,,,,,,249.6611403,250.672523,248.67158520000004,248.67158520000004,248.67158520000004,248.67158520000004,new_sceneIn_3.png,105,5.0,0.9920875999999907,,,027,10,2024-12-03_14h34.56.669,Surprise recog test,2023.1.3,59.9609174739913,
105,0,105,0,,,,,,,,,,,,,,,,,,,,,,,,,,,,,,,,,,251.2525258,252.26722390000003,250.672523,250.672523,250.672523,250.672523,old_sceneIn_31.png,106,5.0,0.5712560000000053,,,027,10,2024-12-03_14h34.56.669,Surprise recog test,2023.1.3,59.9609174739913,
106,0,106,0,,,,,,,,,,,,,,,,,,,,,,,,,,,,,,,,,,252.82682770000002,253.85100110000002,252.26722390000003,252.26722390000003,252.26722390000003,252.26722390000003,old_sceneOut_33.png,107,5.0,0.5579268000000184,,,027,10,2024-12-03_14h34.56.669,Surprise recog test,2023.1.3,59.9609174739913,
107,0,107,0,,,,,,,,,,,,,,,,,,,,,,,,,,,,,,,,,,255.7062831,256.7147145,253.85100110000002,253.85100110000002,253.85100110000002,253.85100110000002,old_fruit_22.png,108,2.0,1.8524057999999854,,,027,10,2024-12-03_14h34.56.669,Surprise recog test,2023.1.3,59.9609174739913,
108,0,108,0,,,,,,,,,,,,,,,,,,,,,,,,,,,,,,,,,,258.3744248,259.380984,256.7147145,256.7147145,256.7147145,256.7147145,new_sceneOut_36.png,109,4.0,1.6548407999999881,,,027,10,2024-12-03_14h34.56.669,Surprise recog test,2023.1.3,59.9609174739913,
109,0,109,0,,,,,,,,,,,,,,,,,,,,,,,,,,,,,,,,,,259.9764513,260.9845221,259.380984,259.380984,259.380984,259.380984,old_sceneOut_43.png,110,4.0,0.5859570000000076,,,027,10,2024-12-03_14h34.56.669,Surprise recog test,2023.1.3,59.9609174739913,
110,0,110,0,,,,,,,,,,,,,,,,,,,,,,,,,,,,,,,,,,261.3690424,262.3816762,260.9845221,260.9845221,260.9845221,260.9845221,new_fruit_31.png,111,4.0,0.3799966000000268,,,027,10,2024-12-03_14h34.56.669,Surprise recog test,2023.1.3,59.9609174739913,
111,0,111,0,,,,,,,,,,,,,,,,,,,,,,,,,,,,,,,,,,262.7048157,263.7314673,262.3816762,262.3816762,262.3816762,262.3816762,old_fruit_7.png,112,4.0,0.319094199999995,,,027,10,2024-12-03_14h34.56.669,Surprise recog test,2023.1.3,59.9609174739913,
112,0,112,0,,,,,,,,,,,,,,,,,,,,,,,,,,,,,,,,,,264.3235771,265.3526489,263.7314673,263.7314673,263.7314673,263.7314673,new_sceneOut_32.png,113,4.0,0.5940482999999972,,,027,10,2024-12-03_14h34.56.669,Surprise recog test,2023.1.3,59.9609174739913,
113,0,113,0,,,,,,,,,,,,,,,,,,,,,,,,,,,,,,,,,,266.810315,267.82489960000004,265.3526489,265.3526489,265.3526489,265.3526489,old_sceneOut_18.png,114,4.0,1.4589354999999955,,,027,10,2024-12-03_14h34.56.669,Surprise recog test,2023.1.3,59.9609174739913,
114,0,114,0,,,,,,,,,,,,,,,,,,,,,,,,,,,,,,,,,,268.86708250000004,269.87176,267.82489960000004,267.82489960000004,267.82489960000004,267.82489960000004,new_sceneOut_12.png,115,4.0,1.0350806000000148,,,027,10,2024-12-03_14h34.56.669,Surprise recog test,2023.1.3,59.9609174739913,
115,0,115,0,,,,,,,,,,,,,,,,,,,,,,,,,,,,,,,,,,270.7594889,271.789065,269.87176,269.87176,269.87176,269.87176,old_stationery_21.png,116,4.0,0.8816640000000007,,,027,10,2024-12-03_14h34.56.669,Surprise recog test,2023.1.3,59.9609174739913,
116,0,116,0,,,,,,,,,,,,,,,,,,,,,,,,,,,,,,,,,,272.45382390000003,273.459749,271.789065,271.789065,271.789065,271.789065,new_fruit_37.png,117,4.0,0.6663520999999832,,,027,10,2024-12-03_14h34.56.669,Surprise recog test,2023.1.3,59.9609174739913,
117,0,117,0,,,,,,,,,,,,,,,,,,,,,,,,,,,,,,,,,,273.8546546,274.8773438,273.459749,273.459749,273.459749,273.459749,new_stationery_44.png,118,4.0,0.38532729999997173,,,027,10,2024-12-03_14h34.56.669,Surprise recog test,2023.1.3,59.9609174739913,
118,0,118,0,,,,,,,,,,,,,,,,,,,,,,,,,,,,,,,,,,276.9997088,278.026932,274.8773438,274.8773438,274.8773438,274.8773438,new_fruit_6.png,119,3.0,2.125858800000003,,,027,10,2024-12-03_14h34.56.669,Surprise recog test,2023.1.3,59.9609174739913,
119,0,119,0,,,,,,,,,,,,,,,,,,,,,,,,,,,,,,,,,,279.4686358,280.4806654,278.026932,278.026932,278.026932,278.026932,new_fruit_11.png,120,4.0,1.4434039999999868,,,027,10,2024-12-03_14h34.56.669,Surprise recog test,2023.1.3,59.9609174739913,
120,0,120,0,,,,,,,,,,,,,,,,,,,,,,,,,,,,,,,,,,281.1314664,,280.4806654,280.4806654,280.4806654,280.4806654,old_sceneIn_29.png,121,4.0,0.6463368999999943,,,027,10,2024-12-03_14h34.56.669,Surprise recog test,2023.1.3,59.9609174739913,
121,0,121,0,,,,,,,,,,,,,,,,,,,,,,,,,,,,,,,,,,283.0160075,,282.1510262,282.1510262,282.1510262,282.1510262,old_sceneOut_23.png,122,4.0,0.861099500000023,,,027,10,2024-12-03_14h34.56.669,Surprise recog test,2023.1.3,59.9609174739913,
122,0,122,0,,,,,,,,,,,,,,,,,,,,,,,,,,,,,,,,,,285.3306172,286.33986780000004,284.0416785,284.0416785,284.0416785,284.0416785,new_stationery_7.png,123,4.0,1.2856068000000391,,,027,10,2024-12-03_14h34.56.669,Surprise recog test,2023.1.3,59.9609174739913,
123,0,123,0,,,,,,,,,,,,,,,,,,,,,,,,,,,,,,,,,,287.0920975,288.1072462,286.33986780000004,286.33986780000004,286.33986780000004,286.33986780000004,old_sceneIn_22.png,124,4.0,0.7479592999999909,,,027,10,2024-12-03_14h34.56.669,Surprise recog test,2023.1.3,59.9609174739913,
124,0,124,0,,,,,,,,,,,,,,,,,,,,,,,,,,,,,,,,,,288.7288429,289.7488451,288.1072462,288.1072462,288.1072462,288.1072462,old_sceneOut_16.png,125,4.0,0.6152217999999721,,,027,10,2024-12-03_14h34.56.669,Surprise recog test,2023.1.3,59.9609174739913,
125,0,125,0,,,,,,,,,,,,,,,,,,,,,,,,,,,,,,,,,,290.452566,291.47205460000004,289.7488451,289.7488451,289.7488451,289.7488451,new_fruit_20.png,126,4.0,0.7039361999999869,,,027,10,2024-12-03_14h34.56.669,Surprise recog test,2023.1.3,59.9609174739913,
126,0,126,0,,,,,,,,,,,,,,,,,,,,,,,,,,,,,,,,,,292.4324994,293.455683,291.47205460000004,291.47205460000004,291.47205460000004,291.47205460000004,old_sceneIn_49.png,127,4.0,0.9603109999999901,,,027,10,2024-12-03_14h34.56.669,Surprise recog test,2023.1.3,59.9609174739913,
127,0,127,0,,,,,,,,,,,,,,,,,,,,,,,,,,,,,,,,,,294.1125237,295.1362262,293.455683,293.455683,293.455683,293.455683,new_stationery_6.png,128,4.0,0.6554922999999917,,,027,10,2024-12-03_14h34.56.669,Surprise recog test,2023.1.3,59.9609174739913,
128,0,128,0,,,,,,,,,,,,,,,,,,,,,,,,,,,,,,,,,,296.0954573,297.1290961,295.1362262,295.1362262,295.1362262,295.1362262,new_sceneIn_25.png,129,4.0,0.9556476999999859,,,027,10,2024-12-03_14h34.56.669,Surprise recog test,2023.1.3,59.9609174739913,
129,0,129,0,,,,,,,,,,,,,,,,,,,,,,,,,,,,,,,,,,298.1453743,,297.1290961,297.1290961,297.1290961,297.1290961,old_sceneIn_34.png,130,4.0,1.0195965999999999,,,027,10,2024-12-03_14h34.56.669,Surprise recog test,2023.1.3,59.9609174739913,
130,0,130,0,,,,,,,,,,,,,,,,,,,,,,,,,,,,,,,,,,300.1459285,,299.1749537,299.1749537,299.1749537,299.1749537,new_stationery_5.png,131,4.0,0.9720988000000261,,,027,10,2024-12-03_14h34.56.669,Surprise recog test,2023.1.3,59.9609174739913,
131,0,131,0,,,,,,,,,,,,,,,,,,,,,,,,,,,,,,,,,,301.846613,,301.1783529,301.1783529,301.1783529,301.1783529,old_stationery_19.png,132,4.0,0.6682112999999958,,,027,10,2024-12-03_14h34.56.669,Surprise recog test,2023.1.3,59.9609174739913,
132,0,132,0,,,,,,,,,,,,,,,,,,,,,,,,,,,,,,,,,,304.1034406,305.1273579,302.8690165,302.8690165,302.8690165,302.8690165,new_sceneOut_27.png,133,4.0,1.2305792000000224,,,027,10,2024-12-03_14h34.56.669,Surprise recog test,2023.1.3,59.9609174739913,
133,0,133,0,,,,,,,,,,,,,,,,,,,,,,,,,,,,,,,,,,306.0980994,307.1031764,305.1273579,305.1273579,305.1273579,305.1273579,new_fruit_26.png,134,4.0,0.9647633000000155,,,027,10,2024-12-03_14h34.56.669,Surprise recog test,2023.1.3,59.9609174739913,
134,0,134,0,,,,,,,,,,,,,,,,,,,,,,,,,,,,,,,,,,309.2759007,310.3011239,307.1031764,307.1031764,307.1031764,307.1031764,old_fruit_18.png,135,3.0,2.1672985000000153,,,027,10,2024-12-03_14h34.56.669,Surprise recog test,2023.1.3,59.9609174739913,
135,0,135,0,,,,,,,,,,,,,,,,,,,,,,,,,,,,,,,,,,311.3317148,312.3568559,310.3011239,310.3011239,310.3011239,310.3011239,new_stationery_14.png,136,4.0,1.0324677000000406,,,027,10,2024-12-03_14h34.56.669,Surprise recog test,2023.1.3,59.9609174739913,
136,0,136,0,,,,,,,,,,,,,,,,,,,,,,,,,,,,,,,,,,313.2284932,314.2455398,312.3568559,312.3568559,312.3568559,312.3568559,new_fruit_48.png,137,4.0,0.8713665999999876,,,027,10,2024-12-03_14h34.56.669,Surprise recog test,2023.1.3,59.9609174739913,
137,0,137,0,,,,,,,,,,,,,,,,,,,,,,,,,,,,,,,,,,314.9734566,315.997751,314.2455398,314.2455398,314.2455398,314.2455398,new_fruit_7.png,138,4.0,0.7233610999999769,,,027,10,2024-12-03_14h34.56.669,Surprise recog test,2023.1.3,59.9609174739913,
138,0,138,0,,,,,,,,,,,,,,,,,,,,,,,,,,,,,,,,,,316.9960404,318.01105,315.997751,315.997751,315.997751,315.997751,old_fruit_23.png,139,4.0,1.002157899999986,,,027,10,2024-12-03_14h34.56.669,Surprise recog test,2023.1.3,59.9609174739913,
139,0,139,0,,,,,,,,,,,,,,,,,,,,,,,,,,,,,,,,,,319.03699420000004,320.0499924,318.01105,318.01105,318.01105,318.01105,old_fruit_48.png,140,4.0,1.0220181999999909,,,027,10,2024-12-03_14h34.56.669,Surprise recog test,2023.1.3,59.9609174739913,
140,0,140,0,,,,,,,,,,,,,,,,,,,,,,,,,,,,,,,,,,320.68201930000004,321.7084365,320.0499924,320.0499924,320.0499924,320.0499924,new_sceneOut_9.png,141,4.0,0.6284056000000078,,,027,10,2024-12-03_14h34.56.669,Surprise recog test,2023.1.3,59.9609174739913,
141,0,141,0,,,,,,,,,,,,,,,,,,,,,,,,,,,,,,,,,,322.46162250000003,323.4801484,321.7084365,321.7084365,321.7084365,321.7084365,old_stationery_24.png,142,4.0,0.7539434000000256,,,027,10,2024-12-03_14h34.56.669,Surprise recog test,2023.1.3,59.9609174739913,
142,0,142,0,,,,,,,,,,,,,,,,,,,,,,,,,,,,,,,,,,324.6388542,325.6513114,323.4801484,323.4801484,323.4801484,323.4801484,new_stationery_37.png,143,4.0,1.156258600000001,,,027,10,2024-12-03_14h34.56.669,Surprise recog test,2023.1.3,59.9609174739913,
143,0,143,0,,,,,,,,,,,,,,,,,,,,,,,,,,,,,,,,,,328.0376708,329.06815470000004,325.6513114,325.6513114,325.6513114,325.6513114,old_fruit_20.png,144,4.0,2.3815998000000036,,,027,10,2024-12-03_14h34.56.669,Surprise recog test,2023.1.3,59.9609174739913,
144,0,144,0,,,,,,,,,,,,,,,,,,,,,,,,,,,,,,,,,,332.3660472,333.37791200000004,329.06815470000004,329.06815470000004,329.06815470000004,329.06815470000004,new_fruit_4.png,145,4.0,3.2978475999999546,,,027,10,2024-12-03_14h34.56.669,Surprise recog test,2023.1.3,59.9609174739913,
145,0,145,0,,,,,,,,,,,,,,,,,,,,,,,,,,,,,,,,,,336.21363740000004,337.2433087,333.37791200000004,333.37791200000004,333.37791200000004,333.37791200000004,old_stationery_29.png,146,2.0,2.8312861,,,027,10,2024-12-03_14h34.56.669,Surprise recog test,2023.1.3,59.9609174739913,
146,0,146,0,,,,,,,,,,,,,,,,,,,,,,,,,,,,,,,,,,338.8512382,339.8697107,337.2433087,337.2433087,337.2433087,337.2433087,new_stationery_45.png,147,3.0,1.610418999999979,,,027,10,2024-12-03_14h34.56.669,Surprise recog test,2023.1.3,59.9609174739913,
147,0,147,0,,,,,,,,,,,,,,,,,,,,,,,,,,,,,,,,,,341.06331370000004,,339.8697107,339.8697107,339.8697107,339.8697107,old_stationery_14.png,148,1.0,1.1913557999999966,,,027,10,2024-12-03_14h34.56.669,Surprise recog test,2023.1.3,59.9609174739913,
148,0,148,0,,,,,,,,,,,,,,,,,,,,,,,,,,,,,,,,,,343.13727240000003,344.1548032,342.09904950000004,342.09904950000004,342.09904950000004,342.09904950000004,new_fruit_47.png,149,3.0,1.0409973999999806,,,027,10,2024-12-03_14h34.56.669,Surprise recog test,2023.1.3,59.9609174739913,
149,0,149,0,,,,,,,,,,,,,,,,,,,,,,,,,,,,,,,,,,345.2138592,346.2338762,344.1548032,344.1548032,344.1548032,344.1548032,old_sceneOut_13.png,150,4.0,1.0535634999999957,,,027,10,2024-12-03_14h34.56.669,Surprise recog test,2023.1.3,59.9609174739913,
150,0,150,0,,,,,,,,,,,,,,,,,,,,,,,,,,,,,,,,,,347.0159249,348.0287998,346.2338762,346.2338762,346.2338762,346.2338762,new_fruit_15.png,151,4.0,0.785210099999972,,,027,10,2024-12-03_14h34.56.669,Surprise recog test,2023.1.3,59.9609174739913,
151,0,151,0,,,,,,,,,,,,,,,,,,,,,,,,,,,,,,,,,,348.6218826,349.6508911,348.0287998,348.0287998,348.0287998,348.0287998,old_sceneOut_12.png,152,4.0,0.5933246999999824,,,027,10,2024-12-03_14h34.56.669,Surprise recog test,2023.1.3,59.9609174739913,
152,0,152,0,,,,,,,,,,,,,,,,,,,,,,,,,,,,,,,,,,350.331788,351.3507056,349.6508911,349.6508911,349.6508911,349.6508911,old_sceneIn_35.png,153,4.0,0.6801191000000131,,,027,10,2024-12-03_14h34.56.669,Surprise recog test,2023.1.3,59.9609174739913,
153,0,153,0,,,,,,,,,,,,,,,,,,,,,,,,,,,,,,,,,,351.8202708,352.8248163,351.3507056,351.3507056,351.3507056,351.3507056,old_sceneOut_22.png,154,4.0,0.47107959999999593,,,027,10,2024-12-03_14h34.56.669,Surprise recog test,2023.1.3,59.9609174739913,
154,0,154,0,,,,,,,,,,,,,,,,,,,,,,,,,,,,,,,,,,353.4424111,354.488315,352.8248163,352.8248163,352.8248163,352.8248163,new_sceneIn_22.png,155,4.0,0.6116753000000017,,,027,10,2024-12-03_14h34.56.669,Surprise recog test,2023.1.3,59.9609174739913,
155,0,155,0,,,,,,,,,,,,,,,,,,,,,,,,,,,,,,,,,,355.1501523,356.1635443,354.488315,354.488315,354.488315,354.488315,new_sceneOut_26.png,156,4.0,0.6664018000000169,,,027,10,2024-12-03_14h34.56.669,Surprise recog test,2023.1.3,59.9609174739913,
156,0,156,0,,,,,,,,,,,,,,,,,,,,,,,,,,,,,,,,,,356.6901128,357.711875,356.1635443,356.1635443,356.1635443,356.1635443,old_sceneOut_4.png,157,4.0,0.5157158999999751,,,027,10,2024-12-03_14h34.56.669,Surprise recog test,2023.1.3,59.9609174739913,
157,0,157,0,,,,,,,,,,,,,,,,,,,,,,,,,,,,,,,,,,359.1619027,,357.711875,357.711875,357.711875,357.711875,old_stationery_41.png,158,2.0,1.4527271000000042,,,027,10,2024-12-03_14h34.56.669,Surprise recog test,2023.1.3,59.9609174739913,
158,0,158,0,,,,,,,,,,,,,,,,,,,,,,,,,,,,,,,,,,361.7108707,362.7270619,360.1822675,360.1822675,360.1822675,360.1822675,new_fruit_14.png,159,3.0,1.5205329000000347,,,027,10,2024-12-03_14h34.56.669,Surprise recog test,2023.1.3,59.9609174739913,
159,0,159,0,,,,,,,,,,,,,,,,,,,,,,,,,,,,,,,,,,363.664271,364.67094130000004,362.7270619,362.7270619,362.7270619,362.7270619,new_sceneOut_5.png,160,4.0,0.9304461000000401,,,027,10,2024-12-03_14h34.56.669,Surprise recog test,2023.1.3,59.9609174739913,
160,0,160,0,,,,,,,,,,,,,,,,,,,,,,,,,,,,,,,,,,365.3776803,366.4014197,364.67094130000004,364.67094130000004,364.67094130000004,364.67094130000004,old_fruit_47.png,161,4.0,0.7027006000000142,,,027,10,2024-12-03_14h34.56.669,Surprise recog test,2023.1.3,59.9609174739913,
161,0,161,0,,,,,,,,,,,,,,,,,,,,,,,,,,,,,,,,,,366.9986826,368.0223214,366.4014197,366.4014197,366.4014197,366.4014197,old_sceneOut_46.png,162,4.0,0.5931915000000458,,,027,10,2024-12-03_14h34.56.669,Surprise recog test,2023.1.3,59.9609174739913,
162,0,162,0,,,,,,,,,,,,,,,,,,,,,,,,,,,,,,,,,,368.67558130000003,369.6904151,368.0223214,368.0223214,368.0223214,368.0223214,new_sceneOut_30.png,163,4.0,0.6535586999999623,,,027,10,2024-12-03_14h34.56.669,Surprise recog test,2023.1.3,59.9609174739913,
163,0,163,0,,,,,,,,,,,,,,,,,,,,,,,,,,,,,,,,,,371.7557934,,369.6904151,369.6904151,369.6904151,369.6904151,old_stationery_4.png,164,2.0,2.0612624000000324,,,027,10,2024-12-03_14h34.56.669,Surprise recog test,2023.1.3,59.9609174739913,
164,0,164,0,,,,,,,,,,,,,,,,,,,,,,,,,,,,,,,,,,374.1508108,375.1778694,372.78261710000004,372.78261710000004,372.78261710000004,372.78261710000004,new_sceneOut_20.png,165,4.0,1.3701599999999985,,,027,10,2024-12-03_14h34.56.669,Surprise recog test,2023.1.3,59.9609174739913,
165,0,165,0,,,,,,,,,,,,,,,,,,,,,,,,,,,,,,,,,,375.8320306,376.8479205,375.1778694,375.1778694,375.1778694,375.1778694,old_sceneIn_33.png,166,4.0,0.6559332999999583,,,027,10,2024-12-03_14h34.56.669,Surprise recog test,2023.1.3,59.9609174739913,
166,0,166,0,,,,,,,,,,,,,,,,,,,,,,,,,,,,,,,,,,377.7322898,378.74836270000003,376.8479205,376.8479205,376.8479205,376.8479205,old_sceneIn_10.png,167,4.0,0.879143699999986,,,027,10,2024-12-03_14h34.56.669,Surprise recog test,2023.1.3,59.9609174739913,
167,0,167,0,,,,,,,,,,,,,,,,,,,,,,,,,,,,,,,,,,379.6756443,380.6809257,378.74836270000003,378.74836270000003,378.74836270000003,378.74836270000003,old_sceneIn_12.png,168,4.0,0.9215077000000065,,,027,10,2024-12-03_14h34.56.669,Surprise recog test,2023.1.3,59.9609174739913,
168,0,168,0,,,,,,,,,,,,,,,,,,,,,,,,,,,,,,,,,,381.3438556,382.3527267,380.6809257,380.6809257,380.6809257,380.6809257,new_sceneIn_19.png,169,4.0,0.6519920999999727,,,027,10,2024-12-03_14h34.56.669,Surprise recog test,2023.1.3,59.9609174739913,
169,0,169,0,,,,,,,,,,,,,,,,,,,,,,,,,,,,,,,,,,382.9372735,383.9517104,382.3527267,382.3527267,382.3527267,382.3527267,new_sceneOut_22.png,170,4.0,0.5807184000000234,,,027,10,2024-12-03_14h34.56.669,Surprise recog test,2023.1.3,59.9609174739913,
170,0,170,0,,,,,,,,,,,,,,,,,,,,,,,,,,,,,,,,,,384.9185086,385.9458454,383.9517104,383.9517104,383.9517104,383.9517104,old_sceneOut_30.png,171,4.0,0.9643345999999724,,,027,10,2024-12-03_14h34.56.669,Surprise recog test,2023.1.3,59.9609174739913,
171,0,171,0,,,,,,,,,,,,,,,,,,,,,,,,,,,,,,,,,,386.68425030000003,,385.9458454,385.9458454,385.9458454,385.9458454,new_sceneOut_23.png,172,4.0,0.7364575999999943,,,027,10,2024-12-03_14h34.56.669,Surprise recog test,2023.1.3,59.9609174739913,
172,0,172,0,,,,,,,,,,,,,,,,,,,,,,,,,,,,,,,,,,389.3381367,,387.71336560000003,387.71336560000003,387.71336560000003,387.71336560000003,new_sceneIn_6.png,173,4.0,1.627330699999959,,,027,10,2024-12-03_14h34.56.669,Surprise recog test,2023.1.3,59.9609174739913,
173,0,173,0,,,,,,,,,,,,,,,,,,,,,,,,,,,,,,,,,,391.04404800000003,392.06694980000003,390.35732260000003,390.35732260000003,390.35732260000003,390.35732260000003,old_sceneIn_40.png,174,4.0,0.6816981999999712,,,027,10,2024-12-03_14h34.56.669,Surprise recog test,2023.1.3,59.9609174739913,
174,0,174,0,,,,,,,,,,,,,,,,,,,,,,,,,,,,,,,,,,392.77002550000003,393.778416,392.06694980000003,392.06694980000003,392.06694980000003,392.06694980000003,old_sceneOut_3.png,175,4.0,0.6995304000000147,,,027,10,2024-12-03_14h34.56.669,Surprise recog test,2023.1.3,59.9609174739913,
175,0,175,0,,,,,,,,,,,,,,,,,,,,,,,,,,,,,,,,,,394.3845146,395.3944863,393.778416,393.778416,393.778416,393.778416,new_sceneOut_45.png,176,4.0,0.6007177000000183,,,027,10,2024-12-03_14h34.56.669,Surprise recog test,2023.1.3,59.9609174739913,
176,0,176,0,,,,,,,,,,,,,,,,,,,,,,,,,,,,,,,,,,396.5281935,397.54822920000004,395.3944863,395.3944863,395.3944863,395.3944863,new_fruit_1.png,177,4.0,1.1284354999999664,,,027,10,2024-12-03_14h34.56.669,Surprise recog test,2023.1.3,59.9609174739913,
177,0,177,0,,,,,,,,,,,,,,,,,,,,,,,,,,,,,,,,,,399.5088903,400.5305494,397.54822920000004,397.54822920000004,397.54822920000004,397.54822920000004,new_stationery_29.png,178,4.0,1.9496596999999838,,,027,10,2024-12-03_14h34.56.669,Surprise recog test,2023.1.3,59.9609174739913,
178,0,178,0,,,,,,,,,,,,,,,,,,,,,,,,,,,,,,,,,,401.3806156,,400.5305494,400.5305494,400.5305494,400.5305494,old_sceneOut_15.png,179,4.0,0.8528456999999889,,,027,10,2024-12-03_14h34.56.669,Surprise recog test,2023.1.3,59.9609174739913,
179,0,179,0,,,,,,,,,,,,,,,,,,,,,,,,,,,,,,,,,,404.9516287,405.984622,402.4103852,402.4103852,402.4103852,402.4103852,new_stationery_13.png,180,4.0,2.5436721000000375,,,027,10,2024-12-03_14h34.56.669,Surprise recog test,2023.1.3,59.9609174739913,
180,0,180,0,,,,,,,,,,,,,,,,,,,,,,,,,,,,,,,,,,407.1131974,408.1231742,405.984622,405.984622,405.984622,405.984622,old_stationery_35.png,181,4.0,1.1309757000000218,,,027,10,2024-12-03_14h34.56.669,Surprise recog test,2023.1.3,59.9609174739913,
181,0,181,0,,,,,,,,,,,,,,,,,,,,,,,,,,,,,,,,,,408.6217667,409.6501412,408.1231742,408.1231742,408.1231742,408.1231742,new_sceneIn_12.png,182,4.0,0.4932875000000081,,,027,10,2024-12-03_14h34.56.669,Surprise recog test,2023.1.3,59.9609174739913,
182,0,182,0,,,,,,,,,,,,,,,,,,,,,,,,,,,,,,,,,,410.8086376,411.8327598,409.6501412,409.6501412,409.6501412,409.6501412,old_sceneIn_39.png,183,4.0,1.1582412000000204,,,027,10,2024-12-03_14h34.56.669,Surprise recog test,2023.1.3,59.9609174739913,
183,0,183,0,,,,,,,,,,,,,,,,,,,,,,,,,,,,,,,,,,412.4591333,413.4867765,411.8327598,411.8327598,411.8327598,411.8327598,old_sceneIn_36.png,184,4.0,0.6245367000000215,,,027,10,2024-12-03_14h34.56.669,Surprise recog test,2023.1.3,59.9609174739913,
184,0,184,0,,,,,,,,,,,,,,,,,,,,,,,,,,,,,,,,,,414.3408913,,413.4867765,413.4867765,413.4867765,413.4867765,new_stationery_31.png,185,4.0,0.85638739999996,,,027,10,2024-12-03_14h34.56.669,Surprise recog test,2023.1.3,59.9609174739913,
185,0,185,0,,,,,,,,,,,,,,,,,,,,,,,,,,,,,,,,,,416.31280290000007,417.33646469999996,415.3588952,415.3588952,415.3588952,415.3588952,new_sceneIn_39.png,186,4.0,0.9500656999999251,,,027,10,2024-12-03_14h34.56.669,Surprise recog test,2023.1.3,59.9609174739913,
186,0,186,0,,,,,,,,,,,,,,,,,,,,,,,,,,,,,,,,,,419.26762529999996,420.29394579999996,417.33646469999996,417.33646469999996,417.33646469999996,417.33646469999996,old_fruit_45.png,187,1.0,1.9306918000000906,,,027,10,2024-12-03_14h34.56.669,Surprise recog test,2023.1.3,59.9609174739913,
187,0,187,0,,,,,,,,,,,,,,,,,,,,,,,,,,,,,,,,,,421.63285240000005,422.66560790000005,420.29394579999996,420.29394579999996,420.29394579999996,420.29394579999996,new_fruit_28.png,188,1.0,1.3410036999999875,,,027,10,2024-12-03_14h34.56.669,Surprise recog test,2023.1.3,59.9609174739913,
188,0,188,0,,,,,,,,,,,,,,,,,,,,,,,,,,,,,,,,,,424.2657074,,422.66560790000005,422.66560790000005,422.66560790000005,422.66560790000005,new_sceneOut_50.png,189,4.0,1.6035218000000668,,,027,10,2024-12-03_14h34.56.669,Surprise recog test,2023.1.3,59.9609174739913,
189,0,189,0,,,,,,,,,,,,,,,,,,,,,,,,,,,,,,,,,,427.0817562,428.0930721,425.28595570000004,425.28595570000004,425.28595570000004,425.28595570000004,new_fruit_29.png,190,4.0,1.7847031999999672,,,027,10,2024-12-03_14h34.56.669,Surprise recog test,2023.1.3,59.9609174739913,
190,0,190,0,,,,,,,,,,,,,,,,,,,,,,,,,,,,,,,,,,429.1227582,430.14250390000007,428.0930721,428.0930721,428.0930721,428.0930721,new_sceneIn_34.png,191,4.0,1.029127899999935,,,027,10,2024-12-03_14h34.56.669,Surprise recog test,2023.1.3,59.9609174739913,
191,0,191,0,,,,,,,,,,,,,,,,,,,,,,,,,,,,,,,,,,431.2817199,432.2950059,430.14250390000007,430.14250390000007,430.14250390000007,430.14250390000007,old_sceneIn_21.png,192,4.0,1.134669400000007,,,027,10,2024-12-03_14h34.56.669,Surprise recog test,2023.1.3,59.9609174739913,
192,0,192,0,,,,,,,,,,,,,,,,,,,,,,,,,,,,,,,,,,433.8776809,434.89188320000005,432.2950059,432.2950059,432.2950059,432.2950059,new_stationery_12.png,193,4.0,1.5786869000000934,,,027,10,2024-12-03_14h34.56.669,Surprise recog test,2023.1.3,59.9609174739913,
193,0,193,0,,,,,,,,,,,,,,,,,,,,,,,,,,,,,,,,,,436.90412620000006,437.9289331,434.89188320000005,434.89188320000005,434.89188320000005,434.89188320000005,new_fruit_49.png,194,3.0,2.008161800000039,,,027,10,2024-12-03_14h34.56.669,Surprise recog test,2023.1.3,59.9609174739913,
194,0,194,0,,,,,,,,,,,,,,,,,,,,,,,,,,,,,,,,,,439.0231603,440.04908120000005,437.9289331,437.9289331,437.9289331,437.9289331,new_sceneOut_49.png,195,3.0,1.096558899999991,,,027,10,2024-12-03_14h34.56.669,Surprise recog test,2023.1.3,59.9609174739913,
195,0,195,0,,,,,,,,,,,,,,,,,,,,,,,,,,,,,,,,,,440.7754017,441.79685559999996,440.04908120000005,440.04908120000005,440.04908120000005,440.04908120000005,old_sceneOut_42.png,196,4.0,0.7275250999999798,,,027,10,2024-12-03_14h34.56.669,Surprise recog test,2023.1.3,59.9609174739913,
196,0,196,0,,,,,,,,,,,,,,,,,,,,,,,,,,,,,,,,,,443.29529920000004,444.3123703,441.79685559999996,441.79685559999996,441.79685559999996,441.79685559999996,new_fruit_21.png,197,3.0,1.492203199999949,,,027,10,2024-12-03_14h34.56.669,Surprise recog test,2023.1.3,59.9609174739913,
197,0,197,0,,,,,,,,,,,,,,,,,,,,,,,,,,,,,,,,,,445.63542029999996,446.66230099999996,444.3123703,444.3123703,444.3123703,444.3123703,old_sceneIn_26.png,198,4.0,1.3252299999999195,,,027,10,2024-12-03_14h34.56.669,Surprise recog test,2023.1.3,59.9609174739913,
198,0,198,0,,,,,,,,,,,,,,,,,,,,,,,,,,,,,,,,,,448.79198929999995,449.8087166,446.66230099999996,446.66230099999996,446.66230099999996,446.66230099999996,new_stationery_35.png,199,1.0,2.131318800000031,,,027,10,2024-12-03_14h34.56.669,Surprise recog test,2023.1.3,59.9609174739913,
199,0,199,0,,,,,,,,,,,,,,,,,,,,,,,,,,,,,,,,,,451.26545550000003,452.27677300000005,449.8087166,449.8087166,449.8087166,449.8087166,old_fruit_41.png,200,4.0,1.4531209000000445,,,027,10,2024-12-03_14h34.56.669,Surprise recog test,2023.1.3,59.9609174739913,
200,0,200,0,,,,,,,,,,,,,,,,,,,,,,,,,,,,,,,,,,454.6916586,,452.27677300000005,452.27677300000005,452.27677300000005,452.27677300000005,new_sceneIn_24.png,201,5.0,2.4109717000000046,,,027,10,2024-12-03_14h34.56.669,Surprise recog test,2023.1.3,59.9609174739913,
201,0,201,0,,,,,,,,,,,,,,,,,,,,,,,,,,,,,,,,,,456.37615960000005,,455.7100266,455.7100266,455.7100266,455.7100266,new_sceneOut_2.png,202,5.0,0.6610714999999345,,,027,10,2024-12-03_14h34.56.669,Surprise recog test,2023.1.3,59.9609174739913,
202,0,202,0,,,,,,,,,,,,,,,,,,,,,,,,,,,,,,,,,,458.3648902,459.3963959,457.413049,457.413049,457.413049,457.413049,new_fruit_12.png,203,5.0,0.9547073999999611,,,027,10,2024-12-03_14h34.56.669,Surprise recog test,2023.1.3,59.9609174739913,
203,0,203,0,,,,,,,,,,,,,,,,,,,,,,,,,,,,,,,,,,461.95878619999996,462.98193890000005,459.3963959,459.3963959,459.3963959,459.3963959,old_stationery_38.png,204,1.0,2.5637916000000587,,,027,10,2024-12-03_14h34.56.669,Surprise recog test,2023.1.3,59.9609174739913,
204,0,204,0,,,,,,,,,,,,,,,,,,,,,,,,,,,,,,,,,,464.6521774,465.68139529999996,462.98193890000005,462.98193890000005,462.98193890000005,462.98193890000005,old_stationery_11.png,205,4.0,1.6713033999999425,,,027,10,2024-12-03_14h34.56.669,Surprise recog test,2023.1.3,59.9609174739913,
205,0,205,0,,,,,,,,,,,,,,,,,,,,,,,,,,,,,,,,,,467.8197476,,465.68139529999996,465.68139529999996,465.68139529999996,465.68139529999996,old_sceneOut_49.png,206,4.0,2.138658400000054,,,027,10,2024-12-03_14h34.56.669,Surprise recog test,2023.1.3,59.9609174739913,
206,0,206,0,,,,,,,,,,,,,,,,,,,,,,,,,,,,,,,,,,469.50360480000006,,468.8401689,468.8401689,468.8401689,468.8401689,old_sceneOut_26.png,207,4.0,0.6567645000000084,,,027,10,2024-12-03_14h34.56.669,Surprise recog test,2023.1.3,59.9609174739913,
207,0,207,0,,,,,,,,,,,,,,,,,,,,,,,,,,,,,,,,,,471.2672305,472.2763503,470.5367404,470.5367404,470.5367404,470.5367404,new_sceneOut_15.png,208,4.0,0.7312117000000171,,,027,10,2024-12-03_14h34.56.669,Surprise recog test,2023.1.3,59.9609174739913,
208,0,208,0,,,,,,,,,,,,,,,,,,,,,,,,,,,,,,,,,,472.78238940000006,473.8066685,472.2763503,472.2763503,472.2763503,472.2763503,new_sceneOut_16.png,209,4.0,0.502326900000071,,,027,10,2024-12-03_14h34.56.669,Surprise recog test,2023.1.3,59.9609174739913,
209,0,209,0,,,,,,,,,,,,,,,,,,,,,,,,,,,,,,,,,,474.3746473,,473.8066685,473.8066685,473.8066685,473.8066685,new_sceneOut_31.png,210,4.0,0.569692699999905,,,027,10,2024-12-03_14h34.56.669,Surprise recog test,2023.1.3,59.9609174739913,
210,0,210,0,,,,,,,,,,,,,,,,,,,,,,,,,,,,,,,,,,476.2391785,477.2593263,475.40118070000005,475.40118070000005,475.40118070000005,475.40118070000005,new_stationery_33.png,211,4.0,0.8316045999999915,,,027,10,2024-12-03_14h34.56.669,Surprise recog test,2023.1.3,59.9609174739913,
211,0,211,0,,,,,,,,,,,,,,,,,,,,,,,,,,,,,,,,,,477.9684873,478.98228989999996,477.2593263,477.2593263,477.2593263,477.2593263,old_sceneIn_20.png,212,4.0,0.7097545000000309,,,027,10,2024-12-03_14h34.56.669,Surprise recog test,2023.1.3,59.9609174739913,
212,0,212,0,,,,,,,,,,,,,,,,,,,,,,,,,,,,,,,,,,479.7172538,480.74742620000006,478.98228989999996,478.98228989999996,478.98228989999996,478.98228989999996,old_stationery_15.png,213,4.0,0.7309040999999752,,,027,10,2024-12-03_14h34.56.669,Surprise recog test,2023.1.3,59.9609174739913,
213,0,213,0,,,,,,,,,,,,,,,,,,,,,,,,,,,,,,,,,,482.10573050000005,483.1249986,480.74742620000006,480.74742620000006,480.74742620000006,480.74742620000006,new_sceneIn_27.png,214,4.0,1.3603946999999152,,,027,10,2024-12-03_14h34.56.669,Surprise recog test,2023.1.3,59.9609174739913,
214,0,214,0,,,,,,,,,,,,,,,,,,,,,,,,,,,,,,,,,,486.2141133,487.23751430000004,483.1249986,483.1249986,483.1249986,483.1249986,new_fruit_8.png,215,3.0,3.0855333000000655,,,027,10,2024-12-03_14h34.56.669,Surprise recog test,2023.1.3,59.9609174739913,
215,0,215,0,,,,,,,,,,,,,,,,,,,,,,,,,,,,,,,,,,487.9142143,488.92380690000005,487.23751430000004,487.23751430000004,487.23751430000004,487.23751430000004,old_sceneIn_4.png,216,3.0,0.6805803999999398,,,027,10,2024-12-03_14h34.56.669,Surprise recog test,2023.1.3,59.9609174739913,
216,0,216,0,,,,,,,,,,,,,,,,,,,,,,,,,,,,,,,,,,490.5951036,491.62870640000006,488.92380690000005,488.92380690000005,488.92380690000005,488.92380690000005,new_stationery_41.png,217,5.0,1.667456799999968,,,027,10,2024-12-03_14h34.56.669,Surprise recog test,2023.1.3,59.9609174739913,
217,0,217,0,,,,,,,,,,,,,,,,,,,,,,,,,,,,,,,,,,492.17018970000004,493.17786409999997,491.62870640000006,491.62870640000006,491.62870640000006,491.62870640000006,old_sceneOut_39.png,218,5.0,0.5462618999999904,,,027,10,2024-12-03_14h34.56.669,Surprise recog test,2023.1.3,59.9609174739913,
218,0,218,0,,,,,,,,,,,,,,,,,,,,,,,,,,,,,,,,,,493.9833128,495.00853229999996,493.17786409999997,493.17786409999997,493.17786409999997,493.17786409999997,new_sceneOut_29.png,219,5.0,0.8007664000000432,,,027,10,2024-12-03_14h34.56.669,Surprise recog test,2023.1.3,59.9609174739913,
219,0,219,0,,,,,,,,,,,,,,,,,,,,,,,,,,,,,,,,,,495.87078470000006,496.8886929,495.00853229999996,495.00853229999996,495.00853229999996,495.00853229999996,old_sceneIn_28.png,220,5.0,0.8647474000000557,,,027,10,2024-12-03_14h34.56.669,Surprise recog test,2023.1.3,59.9609174739913,
220,0,220,0,,,,,,,,,,,,,,,,,,,,,,,,,,,,,,,,,,497.7623288,498.7944391,496.8886929,496.8886929,496.8886929,496.8886929,old_fruit_3.png,221,5.0,0.8706726000000344,,,027,10,2024-12-03_14h34.56.669,Surprise recog test,2023.1.3,59.9609174739913,
221,0,221,0,,,,,,,,,,,,,,,,,,,,,,,,,,,,,,,,,,500.7826851,501.8110223,498.7944391,498.7944391,498.7944391,498.7944391,old_fruit_11.png,222,4.0,1.9905178000000205,,,027,10,2024-12-03_14h34.56.669,Surprise recog test,2023.1.3,59.9609174739913,
222,0,222,0,,,,,,,,,,,,,,,,,,,,,,,,,,,,,,,,,,502.6610333,503.6770951,501.8110223,501.8110223,501.8110223,501.8110223,new_sceneOut_8.png,223,4.0,0.8517272999999932,,,027,10,2024-12-03_14h34.56.669,Surprise recog test,2023.1.3,59.9609174739913,
223,0,223,0,,,,,,,,,,,,,,,,,,,,,,,,,,,,,,,,,,504.361482,505.3707517,503.6770951,503.6770951,503.6770951,503.6770951,new_stationery_24.png,224,4.0,0.685668899999996,,,027,10,2024-12-03_14h34.56.669,Surprise recog test,2023.1.3,59.9609174739913,
224,0,224,0,,,,,,,,,,,,,,,,,,,,,,,,,,,,,,,,,,505.88046380000003,506.89999250000005,505.3707517,505.3707517,505.3707517,505.3707517,old_sceneIn_25.png,225,4.0,0.5017796000000772,,,027,10,2024-12-03_14h34.56.669,Surprise recog test,2023.1.3,59.9609174739913,
225,0,225,0,,,,,,,,,,,,,,,,,,,,,,,,,,,,,,,,,,507.48758799999996,508.52033430000006,506.89999250000005,506.89999250000005,506.89999250000005,506.89999250000005,new_sceneOut_25.png,226,4.0,0.5852623000000676,,,027,10,2024-12-03_14h34.56.669,Surprise recog test,2023.1.3,59.9609174739913,
226,0,226,0,,,,,,,,,,,,,,,,,,,,,,,,,,,,,,,,,,509.3335865,510.33966250000003,508.52033430000006,508.52033430000006,508.52033430000006,508.52033430000006,old_fruit_17.png,227,4.0,0.8125065000000404,,,027,10,2024-12-03_14h34.56.669,Surprise recog test,2023.1.3,59.9609174739913,
227,0,227,0,,,,,,,,,,,,,,,,,,,,,,,,,,,,,,,,,,511.8106411,512.8371839,510.33966250000003,510.33966250000003,510.33966250000003,510.33966250000003,new_fruit_35.png,228,4.0,1.466100400000073,,,027,10,2024-12-03_14h34.56.669,Surprise recog test,2023.1.3,59.9609174739913,
228,0,228,0,,,,,,,,,,,,,,,,,,,,,,,,,,,,,,,,,,514.1216026,515.1399916,512.8371839,512.8371839,512.8371839,512.8371839,new_sceneIn_1.png,229,4.0,1.286404599999969,,,027,10,2024-12-03_14h34.56.669,Surprise recog test,2023.1.3,59.9609174739913,
229,0,229,0,,,,,,,,,,,,,,,,,,,,,,,,,,,,,,,,,,516.3262547,,515.1399916,515.1399916,515.1399916,515.1399916,old_stationery_47.png,230,4.0,1.1864239999999882,,,027,10,2024-12-03_14h34.56.669,Surprise recog test,2023.1.3,59.9609174739913,
230,0,230,0,,,,,,,,,,,,,,,,,,,,,,,,,,,,,,,,,,519.2963387,520.3193068,517.3526395,517.3526395,517.3526395,517.3526395,old_stationery_34.png,231,3.0,1.9455014999999776,,,027,10,2024-12-03_14h34.56.669,Surprise recog test,2023.1.3,59.9609174739913,
231,0,231,0,,,,,,,,,,,,,,,,,,,,,,,,,,,,,,,,,,521.0402698,522.0620911,520.3193068,520.3193068,520.3193068,520.3193068,new_sceneOut_21.png,232,4.0,0.7160974999999326,,,027,10,2024-12-03_14h34.56.669,Surprise recog test,2023.1.3,59.9609174739913,
232,0,232,0,,,,,,,,,,,,,,,,,,,,,,,,,,,,,,,,,,522.9442669,523.9634168,522.0620911,522.0620911,522.0620911,522.0620911,old_sceneOut_27.png,233,4.0,0.8811948000000029,,,027,10,2024-12-03_14h34.56.669,Surprise recog test,2023.1.3,59.9609174739913,
233,0,233,0,,,,,,,,,,,,,,,,,,,,,,,,,,,,,,,,,,525.5481429,526.5581871,523.9634168,523.9634168,523.9634168,523.9634168,new_stationery_27.png,234,4.0,1.586399799999981,,,027,10,2024-12-03_14h34.56.669,Surprise recog test,2023.1.3,59.9609174739913,
234,0,234,0,,,,,,,,,,,,,,,,,,,,,,,,,,,,,,,,,,527.6044872,528.6246962,526.5581871,526.5581871,526.5581871,526.5581871,new_stationery_2.png,235,4.0,1.0456528000000844,,,027,10,2024-12-03_14h34.56.669,Surprise recog test,2023.1.3,59.9609174739913,
235,0,235,0,,,,,,,,,,,,,,,,,,,,,,,,,,,,,,,,,,529.1838243,530.202138,528.6246962,528.6246962,528.6246962,528.6246962,new_sceneOut_48.png,236,4.0,0.5546924999999874,,,027,10,2024-12-03_14h34.56.669,Surprise recog test,2023.1.3,59.9609174739913,
236,0,236,0,,,,,,,,,,,,,,,,,,,,,,,,,,,,,,,,,,531.999768,533.0161701,530.202138,530.202138,530.202138,530.202138,new_stationery_32.png,237,5.0,1.7992054000000053,,,027,10,2024-12-03_14h34.56.669,Surprise recog test,2023.1.3,59.9609174739913,
237,0,237,0,,,,,,,,,,,,,,,,,,,,,,,,,,,,,,,,,,533.7090048,534.7267975,533.0161701,533.0161701,533.0161701,533.0161701,new_sceneIn_20.png,238,5.0,0.6939040999999406,,,027,10,2024-12-03_14h34.56.669,Surprise recog test,2023.1.3,59.9609174739913,
238,0,238,0,,,,,,,,,,,,,,,,,,,,,,,,,,,,,,,,,,535.5342004,536.5530904,534.7267975,534.7267975,534.7267975,534.7267975,new_stationery_42.png,239,5.0,0.8009935000000041,,,027,10,2024-12-03_14h34.56.669,Surprise recog test,2023.1.3,59.9609174739913,
239,0,239,0,,,,,,,,,,,,,,,,,,,,,,,,,,,,,,,,,,537.3852679,538.4130658,536.5530904,536.5530904,536.5530904,536.5530904,old_sceneOut_48.png,240,5.0,0.8336454999999887,,,027,10,2024-12-03_14h34.56.669,Surprise recog test,2023.1.3,59.9609174739913,
240,0,240,0,,,,,,,,,,,,,,,,,,,,,,,,,,,,,,,,,,539.0928196,540.1132218,538.4130658,538.4130658,538.4130658,538.4130658,new_sceneIn_16.png,241,5.0,0.679731199999992,,,027,10,2024-12-03_14h34.56.669,Surprise recog test,2023.1.3,59.9609174739913,
241,0,241,0,,,,,,,,,,,,,,,,,,,,,,,,,,,,,,,,,,540.754692,541.7756789,540.1132218,540.1132218,540.1132218,540.1132218,new_sceneIn_32.png,242,5.0,0.6444185000000289,,,027,10,2024-12-03_14h34.56.669,Surprise recog test,2023.1.3,59.9609174739913,
242,0,242,0,,,,,,,,,,,,,,,,,,,,,,,,,,,,,,,,,,542.8308765,,541.7756789,541.7756789,541.7756789,541.7756789,old_stationery_17.png,243,5.0,1.0544645999999602,,,027,10,2024-12-03_14h34.56.669,Surprise recog test,2023.1.3,59.9609174739913,
243,0,243,0,,,,,,,,,,,,,,,,,,,,,,,,,,,,,,,,,,544.6311631,545.6381558,543.8665811,543.8665811,543.8665811,543.8665811,old_stationery_25.png,244,5.0,0.7658015999999179,,,027,10,2024-12-03_14h34.56.669,Surprise recog test,2023.1.3,59.9609174739913,
244,0,244,0,,,,,,,,,,,,,,,,,,,,,,,,,,,,,,,,,,546.4520395,547.4715075,545.6381558,545.6381558,545.6381558,545.6381558,new_sceneIn_4.png,245,5.0,0.8085022000000208,,,027,10,2024-12-03_14h34.56.669,Surprise recog test,2023.1.3,59.9609174739913,
245,0,245,0,,,,,,,,,,,,,,,,,,,,,,,,,,,,,,,,,,548.960586,549.9857914,547.4715075,547.4715075,547.4715075,547.4715075,old_sceneIn_38.png,246,5.0,1.4851513000000978,,,027,10,2024-12-03_14h34.56.669,Surprise recog test,2023.1.3,59.9609174739913,
246,0,246,0,,,,,,,,,,,,,,,,,,,,,,,,,,,,,,,,,,552.9462234,553.9579758,549.9857914,549.9857914,549.9857914,549.9857914,new_fruit_43.png,247,4.0,2.9593914999999242,,,027,10,2024-12-03_14h34.56.669,Surprise recog test,2023.1.3,59.9609174739913,
247,0,247,0,,,,,,,,,,,,,,,,,,,,,,,,,,,,,,,,,,555.2299487,556.2572465000001,553.9579758,553.9579758,553.9579758,553.9579758,old_sceneOut_41.png,248,4.0,1.2689730000000736,,,027,10,2024-12-03_14h34.56.669,Surprise recog test,2023.1.3,59.9609174739913,
248,0,248,0,,,,,,,,,,,,,,,,,,,,,,,,,,,,,,,,,,557.4715872,558.4948676,556.2572465000001,556.2572465000001,556.2572465000001,556.2572465000001,old_sceneOut_29.png,249,4.0,1.215892800000006,,,027,10,2024-12-03_14h34.56.669,Surprise recog test,2023.1.3,59.9609174739913,
249,0,249,0,,,,,,,,,,,,,,,,,,,,,,,,,,,,,,,,,,560.8948808,,558.4948676,558.4948676,558.4948676,558.4948676,old_sceneIn_19.png,250,4.0,2.4028147999999874,,,027,10,2024-12-03_14h34.56.669,Surprise recog test,2023.1.3,59.9609174739913,
250,0,250,0,,,,,,,,,,,,,,,,,,,,,,,,,,,,,,,,,,563.2401939,564.2651341,561.9309216,561.9309216,561.9309216,561.9309216,new_stationery_17.png,251,4.0,1.3105789999999615,,,027,10,2024-12-03_14h34.56.669,Surprise recog test,2023.1.3,59.9609174739913,
251,0,251,0,,,,,,,,,,,,,,,,,,,,,,,,,,,,,,,,,,565.3638622,566.3899534,564.2651341,564.2651341,564.2651341,564.2651341,old_fruit_26.png,252,4.0,1.1011855999998943,,,027,10,2024-12-03_14h34.56.669,Surprise recog test,2023.1.3,59.9609174739913,
252,0,252,0,,,,,,,,,,,,,,,,,,,,,,,,,,,,,,,,,,567.9906926,569.0228629000001,566.3899534,566.3899534,566.3899534,566.3899534,new_stationery_43.png,253,4.0,1.6028794999999718,,,027,10,2024-12-03_14h34.56.669,Surprise recog test,2023.1.3,59.9609174739913,
253,0,253,0,,,,,,,,,,,,,,,,,,,,,,,,,,,,,,,,,,571.4088805,572.435847,569.0228629000001,569.0228629000001,569.0228629000001,569.0228629000001,new_sceneOut_18.png,254,4.0,2.3864957000000686,,,027,10,2024-12-03_14h34.56.669,Surprise recog test,2023.1.3,59.9609174739913,
254,0,254,0,,,,,,,,,,,,,,,,,,,,,,,,,,,,,,,,,,575.2290448,576.2538126000001,572.435847,572.435847,572.435847,572.435847,new_sceneIn_31.png,255,4.0,2.7948059000000285,,,027,10,2024-12-03_14h34.56.669,Surprise recog test,2023.1.3,59.9609174739913,
255,0,255,0,,,,,,,,,,,,,,,,,,,,,,,,,,,,,,,,,,578.1848467,579.2131402,576.2538126000001,576.2538126000001,576.2538126000001,576.2538126000001,new_sceneOut_42.png,256,4.0,1.9333049999999048,,,027,10,2024-12-03_14h34.56.669,Surprise recog test,2023.1.3,59.9609174739913,
256,0,256,0,,,,,,,,,,,,,,,,,,,,,,,,,,,,,,,,,,580.8427118,581.8609857,579.2131402,579.2131402,579.2131402,579.2131402,old_sceneIn_16.png,257,4.0,1.6318686999999272,,,027,10,2024-12-03_14h34.56.669,Surprise recog test,2023.1.3,59.9609174739913,
257,0,257,0,,,,,,,,,,,,,,,,,,,,,,,,,,,,,,,,,,582.6804992,,581.8609857,581.8609857,581.8609857,581.8609857,old_sceneOut_21.png,258,4.0,0.8171588999999813,,,027,10,2024-12-03_14h34.56.669,Surprise recog test,2023.1.3,59.9609174739913,
258,0,258,0,,,,,,,,,,,,,,,,,,,,,,,,,,,,,,,,,,584.2871815,585.3113004,583.6994619,583.6994619,583.6994619,583.6994619,new_sceneOut_47.png,259,4.0,0.582206000000042,,,027,10,2024-12-03_14h34.56.669,Surprise recog test,2023.1.3,59.9609174739913,
259,0,259,0,,,,,,,,,,,,,,,,,,,,,,,,,,,,,,,,,,586.216374,,585.3113004,585.3113004,585.3113004,585.3113004,old_sceneOut_20.png,260,4.0,0.8990215999999691,,,027,10,2024-12-03_14h34.56.669,Surprise recog test,2023.1.3,59.9609174739913,
260,0,260,0,,,,,,,,,,,,,,,,,,,,,,,,,,,,,,,,,,588.1956003,589.2198395,587.2367709,587.2367709,587.2367709,587.2367709,old_sceneOut_17.png,261,4.0,0.9541563000000224,,,027,10,2024-12-03_14h34.56.669,Surprise recog test,2023.1.3,59.9609174739913,
261,0,261,0,,,,,,,,,,,,,,,,,,,,,,,,,,,,,,,,,,590.0661826,591.0826906,589.2198395,589.2198395,589.2198395,589.2198395,old_fruit_2.png,262,4.0,0.8487238999999818,,,027,10,2024-12-03_14h34.56.669,Surprise recog test,2023.1.3,59.9609174739913,
262,0,262,0,,,,,,,,,,,,,,,,,,,,,,,,,,,,,,,,,,592.2018916,593.217769,591.0826906,591.0826906,591.0826906,591.0826906,new_sceneIn_11.png,263,4.0,1.1207531999999674,,,027,10,2024-12-03_14h34.56.669,Surprise recog test,2023.1.3,59.9609174739913,
263,0,263,0,,,,,,,,,,,,,,,,,,,,,,,,,,,,,,,,,,594.704112,595.7120193000001,593.217769,593.217769,593.217769,593.217769,new_fruit_40.png,264,4.0,1.4860744999999724,,,027,10,2024-12-03_14h34.56.669,Surprise recog test,2023.1.3,59.9609174739913,
264,0,264,0,,,,,,,,,,,,,,,,,,,,,,,,,,,,,,,,,,596.7945766,597.819867,595.7120193000001,595.7120193000001,595.7120193000001,595.7120193000001,old_sceneOut_10.png,265,4.0,1.078311400000075,,,027,10,2024-12-03_14h34.56.669,Surprise recog test,2023.1.3,59.9609174739913,
265,0,265,0,,,,,,,,,,,,,,,,,,,,,,,,,,,,,,,,,,598.6675631,599.6901876000001,597.819867,597.819867,597.819867,597.819867,old_stationery_30.png,266,4.0,0.8466625999999451,,,027,10,2024-12-03_14h34.56.669,Surprise recog test,2023.1.3,59.9609174739913,
266,0,266,0,,,,,,,,,,,,,,,,,,,,,,,,,,,,,,,,,,601.1080852,602.1293012,599.6901876000001,599.6901876000001,599.6901876000001,599.6901876000001,old_fruit_21.png,267,3.0,1.4194576999999526,,,027,10,2024-12-03_14h34.56.669,Surprise recog test,2023.1.3,59.9609174739913,
267,0,267,0,,,,,,,,,,,,,,,,,,,,,,,,,,,,,,,,,,604.1049909,605.1345531000001,602.1293012,602.1293012,602.1293012,602.1293012,old_stationery_23.png,268,4.0,1.9752819999999929,,,027,10,2024-12-03_14h34.56.669,Surprise recog test,2023.1.3,59.9609174739913,
268,0,268,0,,,,,,,,,,,,,,,,,,,,,,,,,,,,,,,,,,606.70224,607.7345592,605.1345531000001,605.1345531000001,605.1345531000001,605.1345531000001,old_stationery_32.png,269,2.0,1.5705457999999908,,,027,10,2024-12-03_14h34.56.669,Surprise recog test,2023.1.3,59.9609174739913,
269,0,269,0,,,,,,,,,,,,,,,,,,,,,,,,,,,,,,,,,,609.1325619,610.1398099,607.7345592,607.7345592,607.7345592,607.7345592,old_sceneIn_27.png,270,4.0,1.3991009000000076,,,027,10,2024-12-03_14h34.56.669,Surprise recog test,2023.1.3,59.9609174739913,
270,0,270,0,,,,,,,,,,,,,,,,,,,,,,,,,,,,,,,,,,610.8175004,611.8240391,610.1398099,610.1398099,610.1398099,610.1398099,old_fruit_30.png,271,4.0,0.6669612000000598,,,027,10,2024-12-03_14h34.56.669,Surprise recog test,2023.1.3,59.9609174739913,
271,0,271,0,,,,,,,,,,,,,,,,,,,,,,,,,,,,,,,,,,613.7338327,614.752896,611.8240391,611.8240391,611.8240391,611.8240391,new_fruit_3.png,272,1.0,1.9042998999999554,,,027,10,2024-12-03_14h34.56.669,Surprise recog test,2023.1.3,59.9609174739913,
272,0,272,0,,,,,,,,,,,,,,,,,,,,,,,,,,,,,,,,,,615.6553601,616.6750238,614.752896,614.752896,614.752896,614.752896,old_fruit_10.png,273,1.0,0.9045165999999654,,,027,10,2024-12-03_14h34.56.669,Surprise recog test,2023.1.3,59.9609174739913,
273,0,273,0,,,,,,,,,,,,,,,,,,,,,,,,,,,,,,,,,,618.0401944,619.0582384,616.6750238,616.6750238,616.6750238,616.6750238,old_fruit_29.png,274,3.0,1.3621667999999545,,,027,10,2024-12-03_14h34.56.669,Surprise recog test,2023.1.3,59.9609174739913,
274,0,274,0,,,,,,,,,,,,,,,,,,,,,,,,,,,,,,,,,,620.321642,621.3377551,619.0582384,619.0582384,619.0582384,619.0582384,old_stationery_7.png,275,5.0,1.2659836999999925,,,027,10,2024-12-03_14h34.56.669,Surprise recog test,2023.1.3,59.9609174739913,
275,0,275,0,,,,,,,,,,,,,,,,,,,,,,,,,,,,,,,,,,622.3597039,623.3790258,621.3377551,621.3377551,621.3377551,621.3377551,old_sceneOut_25.png,276,4.0,1.0175213999999642,,,027,10,2024-12-03_14h34.56.669,Surprise recog test,2023.1.3,59.9609174739913,
276,0,276,0,,,,,,,,,,,,,,,,,,,,,,,,,,,,,,,,,,624.9493277,,623.3790258,623.3790258,623.3790258,623.3790258,old_stationery_28.png,277,4.0,1.5722165000000814,,,027,10,2024-12-03_14h34.56.669,Surprise recog test,2023.1.3,59.9609174739913,
277,0,277,0,,,,,,,,,,,,,,,,,,,,,,,,,,,,,,,,,,627.4865687,628.5109657,625.9822098,625.9822098,625.9822098,625.9822098,old_stationery_13.png,278,4.0,1.5029207000000042,,,027,10,2024-12-03_14h34.56.669,Surprise recog test,2023.1.3,59.9609174739913,
278,0,278,0,,,,,,,,,,,,,,,,,,,,,,,,,,,,,,,,,,629.4993765,630.5185586,628.5109657,628.5109657,628.5109657,628.5109657,old_fruit_31.png,279,4.0,0.9884056999999302,,,027,10,2024-12-03_14h34.56.669,Surprise recog test,2023.1.3,59.9609174739913,
279,0,279,0,,,,,,,,,,,,,,,,,,,,,,,,,,,,,,,,,,632.6816076,633.6935511,630.5185586,630.5185586,630.5185586,630.5185586,old_fruit_14.png,280,4.0,2.1647704999999178,,,027,10,2024-12-03_14h34.56.669,Surprise recog test,2023.1.3,59.9609174739913,
280,0,280,0,,,,,,,,,,,,,,,,,,,,,,,,,,,,,,,,,,636.1851822,637.1968431,633.6935511,633.6935511,633.6935511,633.6935511,new_sceneOut_3.png,281,4.0,2.4840141000000813,,,027,10,2024-12-03_14h34.56.669,Surprise recog test,2023.1.3,59.9609174739913,
281,0,281,0,,,,,,,,,,,,,,,,,,,,,,,,,,,,,,,,,,639.5502714,640.5776213,637.1968431,637.1968431,637.1968431,637.1968431,old_sceneIn_23.png,282,4.0,2.349462200000062,,,027,10,2024-12-03_14h34.56.669,Surprise recog test,2023.1.3,59.9609174739913,
282,0,282,0,,,,,,,,,,,,,,,,,,,,,,,,,,,,,,,,,,641.4100055,642.4314454,640.5776213,640.5776213,640.5776213,640.5776213,new_stationery_22.png,283,4.0,0.8317687999999634,,,027,10,2024-12-03_14h34.56.669,Surprise recog test,2023.1.3,59.9609174739913,
283,0,283,0,,,,,,,,,,,,,,,,,,,,,,,,,,,,,,,,,,643.8657932,,642.4314454,642.4314454,642.4314454,642.4314454,new_sceneIn_30.png,284,4.0,1.4346411000000217,,,027,10,2024-12-03_14h34.56.669,Surprise recog test,2023.1.3,59.9609174739913,
284,0,284,0,,,,,,,,,,,,,,,,,,,,,,,,,,,,,,,,,,646.0689361,647.1025484,644.8829831,644.8829831,644.8829831,644.8829831,old_sceneIn_5.png,285,4.0,1.1787919000000784,,,027,10,2024-12-03_14h34.56.669,Surprise recog test,2023.1.3,59.9609174739913,
285,0,285,0,,,,,,,,,,,,,,,,,,,,,,,,,,,,,,,,,,648.2736947,649.3041425,647.1025484,647.1025484,647.1025484,647.1025484,old_stationery_45.png,286,4.0,1.1752328000000034,,,027,10,2024-12-03_14h34.56.669,Surprise recog test,2023.1.3,59.9609174739913,
286,0,286,0,,,,,,,,,,,,,,,,,,,,,,,,,,,,,,,,,,650.1016223,651.1191358,649.3041425,649.3041425,649.3041425,649.3041425,new_fruit_9.png,287,4.0,0.8008853000000045,,,027,10,2024-12-03_14h34.56.669,Surprise recog test,2023.1.3,59.9609174739913,
287,0,287,0,,,,,,,,,,,,,,,,,,,,,,,,,,,,,,,,,,652.8966726,653.9285899,651.1191358,651.1191358,651.1191358,651.1191358,new_fruit_10.png,288,4.0,1.7794168000000354,,,027,10,2024-12-03_14h34.56.669,Surprise recog test,2023.1.3,59.9609174739913,
288,0,288,0,,,,,,,,,,,,,,,,,,,,,,,,,,,,,,,,,,654.6789326,655.7075303,653.9285899,653.9285899,653.9285899,653.9285899,old_stationery_49.png,289,4.0,0.7502450999999155,,,027,10,2024-12-03_14h34.56.669,Surprise recog test,2023.1.3,59.9609174739913,
289,0,289,0,,,,,,,,,,,,,,,,,,,,,,,,,,,,,,,,,,656.3307835,657.3470551,655.7075303,655.7075303,655.7075303,655.7075303,new_sceneOut_34.png,290,4.0,0.6249784999999974,,,027,10,2024-12-03_14h34.56.669,Surprise recog test,2023.1.3,59.9609174739913,
290,0,290,0,,,,,,,,,,,,,,,,,,,,,,,,,,,,,,,,,,659.2315702,660.263207,657.3470551,657.3470551,657.3470551,657.3470551,old_sceneIn_14.png,291,4.0,1.8801206000000548,,,027,10,2024-12-03_14h34.56.669,Surprise recog test,2023.1.3,59.9609174739913,
291,0,291,0,,,,,,,,,,,,,,,,,,,,,,,,,,,,,,,,,,663.3650738,,660.263207,660.263207,660.263207,660.263207,new_sceneIn_33.png,292,4.0,3.1012064999999893,,,027,10,2024-12-03_14h34.56.669,Surprise recog test,2023.1.3,59.9609174739913,
292,0,292,0,,,,,,,,,,,,,,,,,,,,,,,,,,,,,,,,,,665.1043902,666.128881,664.3984347,664.3984347,664.3984347,664.3984347,new_stationery_49.png,293,4.0,0.7086639999999989,,,027,10,2024-12-03_14h34.56.669,Surprise recog test,2023.1.3,59.9609174739913,
293,0,293,0,,,,,,,,,,,,,,,,,,,,,,,,,,,,,,,,,,667.9149614,668.9360223,666.128881,666.128881,666.128881,666.128881,old_sceneIn_41.png,294,4.0,1.7805229999999028,,,027,10,2024-12-03_14h34.56.669,Surprise recog test,2023.1.3,59.9609174739913,
294,0,294,0,,,,,,,,,,,,,,,,,,,,,,,,,,,,,,,,,,669.9545286,670.9718884,668.9360223,668.9360223,668.9360223,668.9360223,new_stationery_47.png,295,4.0,1.0192280999999639,,,027,10,2024-12-03_14h34.56.669,Surprise recog test,2023.1.3,59.9609174739913,
295,0,295,0,,,,,,,,,,,,,,,,,,,,,,,,,,,,,,,,,,672.0478898,673.0603329,670.9718884,670.9718884,670.9718884,670.9718884,new_sceneIn_46.png,296,4.0,1.07287000000008,,,027,10,2024-12-03_14h34.56.669,Surprise recog test,2023.1.3,59.9609174739913,
296,0,296,0,,,,,,,,,,,,,,,,,,,,,,,,,,,,,,,,,,675.7715617,676.7933205,673.0603329,673.0603329,673.0603329,673.0603329,old_fruit_28.png,297,2.0,2.7001794000000245,,,027,10,2024-12-03_14h34.56.669,Surprise recog test,2023.1.3,59.9609174739913,
297,0,297,0,,,,,,,,,,,,,,,,,,,,,,,,,,,,,,,,,,678.1923117,,676.7933205,676.7933205,676.7933205,676.7933205,new_sceneIn_37.png,298,4.0,1.3981244999999944,,,027,10,2024-12-03_14h34.56.669,Surprise recog test,2023.1.3,59.9609174739913,
298,0,298,0,,,,,,,,,,,,,,,,,,,,,,,,,,,,,,,,,,680.6927926,681.7119347,679.2148118,679.2148118,679.2148118,679.2148118,old_sceneIn_46.png,299,5.0,1.4741812000000891,,,027,10,2024-12-03_14h34.56.669,Surprise recog test,2023.1.3,59.9609174739913,
299,0,299,0,,,,,,,,,,,,,,,,,,,,,,,,,,,,,,,,,,683.4601827,684.4819681,681.7119347,681.7119347,681.7119347,681.7119347,old_stationery_3.png,300,2.0,1.7502552999999352,,,027,10,2024-12-03_14h34.56.669,Surprise recog test,2023.1.3,59.9609174739913,
300,0,300,0,,,,,,,,,,,,,,,,,,,,,,,,,,,,,,,,,,686.3512057,,684.4819681,684.4819681,684.4819681,684.4819681,old_fruit_39.png,301,3.0,1.8712338000000273,,,027,10,2024-12-03_14h34.56.669,Surprise recog test,2023.1.3,59.9609174739913,
301,0,301,0,,,,,,,,,,,,,,,,,,,,,,,,,,,,,,,,,,689.025441,690.054418,687.3811438,687.3811438,687.3811438,687.3811438,new_sceneIn_44.png,302,4.0,1.645983900000033,,,027,10,2024-12-03_14h34.56.669,Surprise recog test,2023.1.3,59.9609174739913,
302,0,302,0,,,,,,,,,,,,,,,,,,,,,,,,,,,,,,,,,,691.1164308,692.1271728,690.054418,690.054418,690.054418,690.054418,new_sceneOut_40.png,303,4.0,1.0635941000000457,,,027,10,2024-12-03_14h34.56.669,Surprise recog test,2023.1.3,59.9609174739913,
303,0,303,0,,,,,,,,,,,,,,,,,,,,,,,,,,,,,,,,,,693.161555,694.179199,692.1271728,692.1271728,692.1271728,692.1271728,old_fruit_44.png,304,4.0,1.031812299999956,,,027,10,2024-12-03_14h34.56.669,Surprise recog test,2023.1.3,59.9609174739913,
304,0,304,0,,,,,,,,,,,,,,,,,,,,,,,,,,,,,,,,,,695.6711226,696.694447,694.179199,694.179199,694.179199,694.179199,old_fruit_6.png,305,3.0,1.4855056000000104,,,027,10,2024-12-03_14h34.56.669,Surprise recog test,2023.1.3,59.9609174739913,
305,0,305,0,,,,,,,,,,,,,,,,,,,,,,,,,,,,,,,,,,698.6429582000001,,696.694447,696.694447,696.694447,696.694447,new_fruit_18.png,306,2.0,1.9515969000000268,,,027,10,2024-12-03_14h34.56.669,Surprise recog test,2023.1.3,59.9609174739913,
306,0,306,0,,,,,,,,,,,,,,,,,,,,,,,,,,,,,,,,,,701.9264661,702.9478671,699.6614047,699.6614047,699.6614047,699.6614047,new_stationery_38.png,307,4.0,2.2564378000000715,,,027,10,2024-12-03_14h34.56.669,Surprise recog test,2023.1.3,59.9609174739913,
307,0,307,0,,,,,,,,,,,,,,,,,,,,,,,,,,,,,,,,,,703.5950149,704.6153369,702.9478671,702.9478671,702.9478671,702.9478671,new_sceneOut_37.png,308,4.0,0.6493168000000651,,,027,10,2024-12-03_14h34.56.669,Surprise recog test,2023.1.3,59.9609174739913,
308,0,308,0,,,,,,,,,,,,,,,,,,,,,,,,,,,,,,,,,,705.2352719,706.2546007,704.6153369,704.6153369,704.6153369,704.6153369,old_sceneOut_28.png,309,4.0,0.62220549999995,,,027,10,2024-12-03_14h34.56.669,Surprise recog test,2023.1.3,59.9609174739913,
309,0,309,0,,,,,,,,,,,,,,,,,,,,,,,,,,,,,,,,,,707.0665388,,706.2546007,706.2546007,706.2546007,706.2546007,old_sceneIn_50.png,310,4.0,0.807237299999997,,,027,10,2024-12-03_14h34.56.669,Surprise recog test,2023.1.3,59.9609174739913,
310,0,310,0,,,,,,,,,,,,,,,,,,,,,,,,,,,,,,,,,,708.8204334,,708.1016787,708.1016787,708.1016787,708.1016787,old_sceneOut_50.png,311,4.0,0.7197312000000693,,,027,10,2024-12-03_14h34.56.669,Surprise recog test,2023.1.3,59.9609174739913,
311,0,311,0,,,,,,,,,,,,,,,,,,,,,,,,,,,,,,,,,,710.6443942,711.6682174,709.8539049,709.8539049,709.8539049,709.8539049,old_sceneIn_1.png,312,4.0,0.793378999999959,,,027,10,2024-12-03_14h34.56.669,Surprise recog test,2023.1.3,59.9609174739913,
312,0,312,0,,,,,,,,,,,,,,,,,,,,,,,,,,,,,,,,,,712.2460774,713.2727571,711.6682174,711.6682174,711.6682174,711.6682174,new_sceneOut_13.png,313,4.0,0.5793747999999823,,,027,10,2024-12-03_14h34.56.669,Surprise recog test,2023.1.3,59.9609174739913,
313,0,313,0,,,,,,,,,,,,,,,,,,,,,,,,,,,,,,,,,,713.9779112,715.0056876,713.2727571,713.2727571,713.2727571,713.2727571,old_sceneOut_5.png,314,4.0,0.7073146000000179,,,027,10,2024-12-03_14h34.56.669,Surprise recog test,2023.1.3,59.9609174739913,
314,0,314,0,,,,,,,,,,,,,,,,,,,,,,,,,,,,,,,,,,717.3419240000001,,715.0056876,715.0056876,715.0056876,715.0056876,new_sceneIn_43.png,315,5.0,2.335081700000046,,,027,10,2024-12-03_14h34.56.669,Surprise recog test,2023.1.3,59.9609174739913,
315,0,315,0,,,,,,,,,,,,,,,,,,,,,,,,,,,,,,,,,,720.1611235,,718.3773022,718.3773022,718.3773022,718.3773022,new_sceneOut_14.png,316,4.0,1.7872392000000445,,,027,10,2024-12-03_14h34.56.669,Surprise recog test,2023.1.3,59.9609174739913,
316,0,316,0,,,,,,,,,,,,,,,,,,,,,,,,,,,,,,,,,,722.1927804000001,723.1985867,721.1951121,721.1951121,721.1951121,721.1951121,old_fruit_32.png,317,4.0,1.000171000000023,,,027,10,2024-12-03_14h34.56.669,Surprise recog test,2023.1.3,59.9609174739913,
317,0,317,0,,,,,,,,,,,,,,,,,,,,,,,,,,,,,,,,,,726.5349389,727.5698035,723.1985867,723.1985867,723.1985867,723.1985867,new_fruit_32.png,318,3.0,3.3326273999999785,,,027,10,2024-12-03_14h34.56.669,Surprise recog test,2023.1.3,59.9609174739913,
318,0,318,0,,,,,,,,,,,,,,,,,,,,,,,,,,,,,,,,,,729.5426954,730.5708074,727.5698035,727.5698035,727.5698035,727.5698035,new_sceneOut_35.png,319,4.0,1.974932400000057,,,027,10,2024-12-03_14h34.56.669,Surprise recog test,2023.1.3,59.9609174739913,
319,0,319,0,,,,,,,,,,,,,,,,,,,,,,,,,,,,,,,,,,734.5907266,,730.5708074,730.5708074,730.5708074,730.5708074,old_sceneOut_9.png,320,4.0,4.022054400000002,,,027,10,2024-12-03_14h34.56.669,Surprise recog test,2023.1.3,59.9609174739913,
320,0,320,0,,,,,,,,,,,,,,,,,,,,,,,,,,,,,,,,,,738.643868,,735.6117881,735.6117881,735.6117881,735.6117881,old_fruit_33.png,321,3.0,3.028026899999986,,,027,10,2024-12-03_14h34.56.669,Surprise recog test,2023.1.3,59.9609174739913,
321,0,321,0,,,,,,,,,,,,,,,,,,,,,,,,,,,,,,,,,,740.9668521,741.9886739,739.6774427,739.6774427,739.6774427,739.6774427,old_stationery_37.png,322,4.0,1.2888115999999172,,,027,10,2024-12-03_14h34.56.669,Surprise recog test,2023.1.3,59.9609174739913,
322,0,322,0,,,,,,,,,,,,,,,,,,,,,,,,,,,,,,,,,,742.9438855,743.9525482,741.9886739,741.9886739,741.9886739,741.9886739,old_fruit_50.png,323,4.0,0.952538699999991,,,027,10,2024-12-03_14h34.56.669,Surprise recog test,2023.1.3,59.9609174739913,
323,0,323,0,,,,,,,,,,,,,,,,,,,,,,,,,,,,,,,,,,745.0870501,746.1104876,743.9525482,743.9525482,743.9525482,743.9525482,new_stationery_10.png,324,4.0,1.1301181999999699,,,027,10,2024-12-03_14h34.56.669,Surprise recog test,2023.1.3,59.9609174739913,
324,0,324,0,,,,,,,,,,,,,,,,,,,,,,,,,,,,,,,,,,748.2098742000001,749.2302222,746.1104876,746.1104876,746.1104876,746.1104876,old_stationery_40.png,325,3.0,2.098132200000009,,,027,10,2024-12-03_14h34.56.669,Surprise recog test,2023.1.3,59.9609174739913,
325,0,325,0,,,,,,,,,,,,,,,,,,,,,,,,,,,,,,,,,,751.1610870000001,752.1867077,749.2302222,749.2302222,749.2302222,749.2302222,new_sceneIn_7.png,326,4.0,1.923817999999983,,,027,10,2024-12-03_14h34.56.669,Surprise recog test,2023.1.3,59.9609174739913,
326,0,326,0,,,,,,,,,,,,,,,,,,,,,,,,,,,,,,,,,,754.0569126,,752.1867077,752.1867077,752.1867077,752.1867077,new_fruit_23.png,327,4.0,1.8728466999999682,,,027,10,2024-12-03_14h34.56.669,Surprise recog test,2023.1.3,59.9609174739913,
327,0,327,0,,,,,,,,,,,,,,,,,,,,,,,,,,,,,,,,,,755.9417578,,755.0830629,755.0830629,755.0830629,755.0830629,new_sceneOut_33.png,328,4.0,0.8595883000000413,,,027,10,2024-12-03_14h34.56.669,Surprise recog test,2023.1.3,59.9609174739913,
328,0,328,0,,,,,,,,,,,,,,,,,,,,,,,,,,,,,,,,,,757.8085554,,756.9732887,756.9732887,756.9732887,756.9732887,old_sceneIn_8.png,329,4.0,0.8369938999999249,,,027,10,2024-12-03_14h34.56.669,Surprise recog test,2023.1.3,59.9609174739913,
329,0,329,0,,,,,,,,,,,,,,,,,,,,,,,,,,,,,,,,,,760.7130672,,758.8414805,758.8414805,758.8414805,758.8414805,new_sceneOut_17.png,330,4.0,1.8728538999999955,,,027,10,2024-12-03_14h34.56.669,Surprise recog test,2023.1.3,59.9609174739913,
330,0,330,0,,,,,,,,,,,,,,,,,,,,,,,,,,,,,,,,,,762.5072549,763.529076,761.7318246,761.7318246,761.7318246,761.7318246,new_sceneOut_10.png,331,4.0,0.770658899999944,,,027,10,2024-12-03_14h34.56.669,Surprise recog test,2023.1.3,59.9609174739913,
331,0,331,0,,,,,,,,,,,,,,,,,,,,,,,,,,,,,,,,,,764.8691408,765.894505,763.529076,763.529076,763.529076,763.529076,old_fruit_5.png,332,1.0,1.3419141999999056,,,027,10,2024-12-03_14h34.56.669,Surprise recog test,2023.1.3,59.9609174739913,
332,0,332,0,,,,,,,,,,,,,,,,,,,,,,,,,,,,,,,,,,767.7107317,768.7341794,765.894505,765.894505,765.894505,765.894505,old_sceneOut_38.png,333,4.0,1.81501030000004,,,027,10,2024-12-03_14h34.56.669,Surprise recog test,2023.1.3,59.9609174739913,
333,0,333,0,,,,,,,,,,,,,,,,,,,,,,,,,,,,,,,,,,771.2894567,772.3217611,768.7341794,768.7341794,768.7341794,768.7341794,new_sceneIn_17.png,334,3.0,2.5576909000000114,,,027,10,2024-12-03_14h34.56.669,Surprise recog test,2023.1.3,59.9609174739913,
334,0,334,0,,,,,,,,,,,,,,,,,,,,,,,,,,,,,,,,,,773.7044881,,772.3217611,772.3217611,772.3217611,772.3217611,old_fruit_46.png,335,4.0,1.3847695000000613,,,027,10,2024-12-03_14h34.56.669,Surprise recog test,2023.1.3,59.9609174739913,
335,0,335,0,,,,,,,,,,,,,,,,,,,,,,,,,,,,,,,,,,775.6058445,776.6126467,774.7247472,774.7247472,774.7247472,774.7247472,new_sceneOut_7.png,336,4.0,0.8749343000000636,,,027,10,2024-12-03_14h34.56.669,Surprise recog test,2023.1.3,59.9609174739913,
336,0,336,0,,,,,,,,,,,,,,,,,,,,,,,,,,,,,,,,,,777.4057684,778.4102283,776.6126467,776.6126467,776.6126467,776.6126467,new_stationery_50.png,337,4.0,0.7849525000000313,,,027,10,2024-12-03_14h34.56.669,Surprise recog test,2023.1.3,59.9609174739913,
337,0,337,0,,,,,,,,,,,,,,,,,,,,,,,,,,,,,,,,,,779.12411,780.1439972000001,778.4102283,778.4102283,778.4102283,778.4102283,new_stationery_26.png,338,4.0,0.7025654999999915,,,027,10,2024-12-03_14h34.56.669,Surprise recog test,2023.1.3,59.9609174739913,
338,0,338,0,,,,,,,,,,,,,,,,,,,,,,,,,,,,,,,,,,781.4593008,782.4760487,780.1439972000001,780.1439972000001,780.1439972000001,780.1439972000001,new_stationery_46.png,339,4.0,1.3165503000000172,,,027,10,2024-12-03_14h34.56.669,Surprise recog test,2023.1.3,59.9609174739913,
339,0,339,0,,,,,,,,,,,,,,,,,,,,,,,,,,,,,,,,,,784.4180507,785.4365275,782.4760487,782.4760487,782.4760487,782.4760487,old_fruit_49.png,340,4.0,1.9437341000000288,,,027,10,2024-12-03_14h34.56.669,Surprise recog test,2023.1.3,59.9609174739913,
340,0,340,0,,,,,,,,,,,,,,,,,,,,,,,,,,,,,,,,,,786.6055535,787.6180485,785.4365275,785.4365275,785.4365275,785.4365275,new_sceneOut_24.png,341,4.0,1.1639405000000806,,,027,10,2024-12-03_14h34.56.669,Surprise recog test,2023.1.3,59.9609174739913,
341,0,341,0,,,,,,,,,,,,,,,,,,,,,,,,,,,,,,,,,,788.4258597,789.451925,787.6180485,787.6180485,787.6180485,787.6180485,new_sceneOut_41.png,342,4.0,0.8026909999999816,,,027,10,2024-12-03_14h34.56.669,Surprise recog test,2023.1.3,59.9609174739913,
342,0,342,0,,,,,,,,,,,,,,,,,,,,,,,,,,,,,,,,,,790.5510228,791.5727014,789.451925,789.451925,789.451925,789.451925,old_stationery_43.png,343,4.0,1.1015125999999782,,,027,10,2024-12-03_14h34.56.669,Surprise recog test,2023.1.3,59.9609174739913,
343,0,343,0,,,,,,,,,,,,,,,,,,,,,,,,,,,,,,,,,,792.8352692,793.855242,791.5727014,791.5727014,791.5727014,791.5727014,old_stationery_16.png,344,3.0,1.2635318999999754,,,027,10,2024-12-03_14h34.56.669,Surprise recog test,2023.1.3,59.9609174739913,
344,0,344,0,,,,,,,,,,,,,,,,,,,,,,,,,,,,,,,,,,794.4916829,795.5179901,793.855242,793.855242,793.855242,793.855242,new_sceneIn_14.png,345,4.0,0.6350472999999965,,,027,10,2024-12-03_14h34.56.669,Surprise recog test,2023.1.3,59.9609174739913,
345,0,345,0,,,,,,,,,,,,,,,,,,,,,,,,,,,,,,,,,,796.3346536,797.3464232,795.5179901,795.5179901,795.5179901,795.5179901,new_stationery_25.png,346,4.0,0.8160064000001057,,,027,10,2024-12-03_14h34.56.669,Surprise recog test,2023.1.3,59.9609174739913,
346,0,346,0,,,,,,,,,,,,,,,,,,,,,,,,,,,,,,,,,,798.9882023,800.0125896,797.3464232,797.3464232,797.3464232,797.3464232,old_fruit_13.png,347,1.0,1.6374752000000399,,,027,10,2024-12-03_14h34.56.669,Surprise recog test,2023.1.3,59.9609174739913,
347,0,347,0,,,,,,,,,,,,,,,,,,,,,,,,,,,,,,,,,,801.5349128,802.5503962,800.0125896,800.0125896,800.0125896,800.0125896,old_fruit_38.png,348,1.0,1.523325600000021,,,027,10,2024-12-03_14h34.56.669,Surprise recog test,2023.1.3,59.9609174739913,
348,0,348,0,,,,,,,,,,,,,,,,,,,,,,,,,,,,,,,,,,804.9881642,806.0125222,802.5503962,802.5503962,802.5503962,802.5503962,old_sceneOut_8.png,349,4.0,2.4336986999999226,,,027,10,2024-12-03_14h34.56.669,Surprise recog test,2023.1.3,59.9609174739913,
349,0,349,0,,,,,,,,,,,,,,,,,,,,,,,,,,,,,,,,,,807.2571781,808.2721041,806.0125222,806.0125222,806.0125222,806.0125222,new_fruit_17.png,350,1.0,1.2473833999999897,,,027,10,2024-12-03_14h34.56.669,Surprise recog test,2023.1.3,59.9609174739913,
350,0,350,0,,,,,,,,,,,,,,,,,,,,,,,,,,,,,,,,,,810.0012001,811.0174817,808.2721041,808.2721041,808.2721041,808.2721041,new_stationery_8.png,351,5.0,1.7251831999999467,,,027,10,2024-12-03_14h34.56.669,Surprise recog test,2023.1.3,59.9609174739913,
351,0,351,0,,,,,,,,,,,,,,,,,,,,,,,,,,,,,,,,,,812.1630454,813.1731376,811.0174817,811.0174817,811.0174817,811.0174817,new_sceneOut_46.png,352,5.0,1.143600900000024,,,027,10,2024-12-03_14h34.56.669,Surprise recog test,2023.1.3,59.9609174739913,
352,0,352,0,,,,,,,,,,,,,,,,,,,,,,,,,,,,,,,,,,813.8200746,814.8237779,813.1731376,813.1731376,813.1731376,813.1731376,old_sceneOut_24.png,353,5.0,0.642709200000013,,,027,10,2024-12-03_14h34.56.669,Surprise recog test,2023.1.3,59.9609174739913,
353,0,353,0,,,,,,,,,,,,,,,,,,,,,,,,,,,,,,,,,,815.5182378000001,816.5251468,814.8237779,814.8237779,814.8237779,814.8237779,new_fruit_30.png,354,5.0,0.689786300000037,,,027,10,2024-12-03_14h34.56.669,Surprise recog test,2023.1.3,59.9609174739913,
354,0,354,0,,,,,,,,,,,,,,,,,,,,,,,,,,,,,,,,,,818.2151178,819.2293456,816.5251468,816.5251468,816.5251468,816.5251468,new_sceneIn_8.png,355,5.0,1.685171500000024,,,027,10,2024-12-03_14h34.56.669,Surprise recog test,2023.1.3,59.9609174739913,
355,0,355,0,,,,,,,,,,,,,,,,,,,,,,,,,,,,,,,,,,821.0919658,822.0970058,819.2293456,819.2293456,819.2293456,819.2293456,old_stationery_48.png,356,3.0,1.854199400000084,,,027,10,2024-12-03_14h34.56.669,Surprise recog test,2023.1.3,59.9609174739913,
356,0,356,0,,,,,,,,,,,,,,,,,,,,,,,,,,,,,,,,,,824.2112052,825.2157504,822.0970058,822.0970058,822.0970058,822.0970058,new_sceneIn_13.png,357,5.0,2.1043968999999834,,,027,10,2024-12-03_14h34.56.669,Surprise recog test,2023.1.3,59.9609174739913,
357,0,357,0,,,,,,,,,,,,,,,,,,,,,,,,,,,,,,,,,,827.5973408,828.6015149,825.2157504,825.2157504,825.2157504,825.2157504,new_sceneIn_48.png,358,5.0,2.3714896999999837,,,027,10,2024-12-03_14h34.56.669,Surprise recog test,2023.1.3,59.9609174739913,
358,0,358,0,,,,,,,,,,,,,,,,,,,,,,,,,,,,,,,,,,829.7657316,830.7711081,828.6015149,828.6015149,828.6015149,828.6015149,new_stationery_19.png,359,5.0,1.153467199999909,,,027,10,2024-12-03_14h34.56.669,Surprise recog test,2023.1.3,59.9609174739913,
359,0,359,0,,,,,,,,,,,,,,,,,,,,,,,,,,,,,,,,,,831.6840452,832.6891227,830.7711081,830.7711081,830.7711081,830.7711081,new_sceneIn_5.png,360,5.0,0.9031397999999626,,,027,10,2024-12-03_14h34.56.669,Surprise recog test,2023.1.3,59.9609174739913,
360,0,360,0,,,,,,,,,,,,,,,,,,,,,,,,,,,,,,,,,,833.6189875,834.6258315,832.6891227,832.6891227,832.6891227,832.6891227,old_sceneIn_42.png,361,5.0,0.919752600000038,,,027,10,2024-12-03_14h34.56.669,Surprise recog test,2023.1.3,59.9609174739913,
361,0,361,0,,,,,,,,,,,,,,,,,,,,,,,,,,,,,,,,,,839.1402169,840.1454903,834.6258315,834.6258315,834.6258315,834.6258315,old_fruit_24.png,362,1.0,4.506362500000023,,,027,10,2024-12-03_14h34.56.669,Surprise recog test,2023.1.3,59.9609174739913,
362,0,362,0,,,,,,,,,,,,,,,,,,,,,,,,,,,,,,,,,,841.7424795000001,842.7467611,840.1454903,840.1454903,840.1454903,840.1454903,new_sceneIn_47.png,363,4.0,1.5874234999999999,,,027,10,2024-12-03_14h34.56.669,Surprise recog test,2023.1.3,59.9609174739913,
363,0,363,0,,,,,,,,,,,,,,,,,,,,,,,,,,,,,,,,,,843.4437975,844.4494928,842.7467611,842.7467611,842.7467611,842.7467611,new_sceneOut_11.png,364,4.0,0.6864964999999756,,,027,10,2024-12-03_14h34.56.669,Surprise recog test,2023.1.3,59.9609174739913,
364,0,364,0,,,,,,,,,,,,,,,,,,,,,,,,,,,,,,,,,,845.2619361,846.2672268,844.4494928,844.4494928,844.4494928,844.4494928,new_sceneIn_38.png,365,4.0,0.8034477999999581,,,027,10,2024-12-03_14h34.56.669,Surprise recog test,2023.1.3,59.9609174739913,
365,0,365,0,,,,,,,,,,,,,,,,,,,,,,,,,,,,,,,,,,847.8641078,848.8704784,846.2672268,846.2672268,846.2672268,846.2672268,old_fruit_36.png,366,2.0,1.5879432000000406,,,027,10,2024-12-03_14h34.56.669,Surprise recog test,2023.1.3,59.9609174739913,
366,0,366,0,,,,,,,,,,,,,,,,,,,,,,,,,,,,,,,,,,851.000162,852.0052736,848.8704784,848.8704784,848.8704784,848.8704784,new_stationery_3.png,367,3.0,2.1208533000000216,,,027,10,2024-12-03_14h34.56.669,Surprise recog test,2023.1.3,59.9609174739913,
367,0,367,0,,,,,,,,,,,,,,,,,,,,,,,,,,,,,,,,,,853.5688269,854.5759955,852.0052736,852.0052736,852.0052736,852.0052736,new_sceneIn_49.png,368,4.0,1.554452099999935,,,027,10,2024-12-03_14h34.56.669,Surprise recog test,2023.1.3,59.9609174739913,
368,0,368,0,,,,,,,,,,,,,,,,,,,,,,,,,,,,,,,,,,855.8207441,856.8252795,854.5759955,854.5759955,854.5759955,854.5759955,old_stationery_50.png,369,1.0,1.2369562000000087,,,027,10,2024-12-03_14h34.56.669,Surprise recog test,2023.1.3,59.9609174739913,
369,0,369,0,,,,,,,,,,,,,,,,,,,,,,,,,,,,,,,,,,858.2229009,859.2294225,856.8252795,856.8252795,856.8252795,856.8252795,new_stationery_18.png,370,4.0,1.3866595000000643,,,027,10,2024-12-03_14h34.56.669,Surprise recog test,2023.1.3,59.9609174739913,
370,0,370,0,,,,,,,,,,,,,,,,,,,,,,,,,,,,,,,,,,860.5413257,861.545674,859.2294225,859.2294225,859.2294225,859.2294225,new_stationery_4.png,371,4.0,1.3035310000000209,,,027,10,2024-12-03_14h34.56.669,Surprise recog test,2023.1.3,59.9609174739913,
371,0,371,0,,,,,,,,,,,,,,,,,,,,,,,,,,,,,,,,,,864.8781984,865.8831367,861.545674,861.545674,861.545674,861.545674,new_fruit_25.png,372,3.0,3.321723200000065,,,027,10,2024-12-03_14h34.56.669,Surprise recog test,2023.1.3,59.9609174739913,
372,0,372,0,,,,,,,,,,,,,,,,,,,,,,,,,,,,,,,,,,867.5471884,868.5517966,865.8831367,865.8831367,865.8831367,865.8831367,new_sceneIn_10.png,373,5.0,1.6541611000000103,,,027,10,2024-12-03_14h34.56.669,Surprise recog test,2023.1.3,59.9609174739913,
373,0,373,0,,,,,,,,,,,,,,,,,,,,,,,,,,,,,,,,,,870.5162736,871.5216209,868.5517966,868.5517966,868.5517966,868.5517966,new_sceneOut_6.png,374,4.0,1.955819599999927,,,027,10,2024-12-03_14h34.56.669,Surprise recog test,2023.1.3,59.9609174739913,
374,0,374,0,,,,,,,,,,,,,,,,,,,,,,,,,,,,,,,,,,872.6014487,873.6054976,871.5216209,871.5216209,871.5216209,871.5216209,new_sceneIn_42.png,375,4.0,1.0698194999999942,,,027,10,2024-12-03_14h34.56.669,Surprise recog test,2023.1.3,59.9609174739913,
375,0,375,0,,,,,,,,,,,,,,,,,,,,,,,,,,,,,,,,,,874.3861272,875.3901792,873.6054976,873.6054976,873.6054976,873.6054976,old_stationery_18.png,376,4.0,0.7695042999999941,,,027,10,2024-12-03_14h34.56.669,Surprise recog test,2023.1.3,59.9609174739913,
376,0,376,0,,,,,,,,,,,,,,,,,,,,,,,,,,,,,,,,,,876.5045171,877.5096787,875.3901792,875.3901792,875.3901792,875.3901792,old_stationery_22.png,377,4.0,1.1050306999999293,,,027,10,2024-12-03_14h34.56.669,Surprise recog test,2023.1.3,59.9609174739913,
377,0,377,0,,,,,,,,,,,,,,,,,,,,,,,,,,,,,,,,,,878.2392935,879.2440089,877.5096787,877.5096787,877.5096787,877.5096787,old_sceneIn_24.png,378,4.0,0.721322599999894,,,027,10,2024-12-03_14h34.56.669,Surprise recog test,2023.1.3,59.9609174739913,
378,0,378,0,,,,,,,,,,,,,,,,,,,,,,,,,,,,,,,,,,881.0583654,882.063507,879.2440089,879.2440089,879.2440089,879.2440089,old_fruit_35.png,379,3.0,1.804405299999985,,,027,10,2024-12-03_14h34.56.669,Surprise recog test,2023.1.3,59.9609174739913,
379,0,379,0,,,,,,,,,,,,,,,,,,,,,,,,,,,,,,,,,,884.1276121,885.1329521,882.063507,882.063507,882.063507,882.063507,new_sceneIn_29.png,380,4.0,2.054811299999983,,,027,10,2024-12-03_14h34.56.669,Surprise recog test,2023.1.3,59.9609174739913,
380,0,380,0,,,,,,,,,,,,,,,,,,,,,,,,,,,,,,,,,,886.7464216,887.7576356,885.1329521,885.1329521,885.1329521,885.1329521,old_sceneOut_11.png,381,4.0,1.6055568000000449,,,027,10,2024-12-03_14h34.56.669,Surprise recog test,2023.1.3,59.9609174739913,
381,0,381,0,,,,,,,,,,,,,,,,,,,,,,,,,,,,,,,,,,888.6813943,889.7027777,887.7576356,887.7576356,887.7576356,887.7576356,old_stationery_5.png,382,4.0,0.9192461000000094,,,027,10,2024-12-03_14h34.56.669,Surprise recog test,2023.1.3,59.9609174739913,
382,0,382,0,,,,,,,,,,,,,,,,,,,,,,,,,,,,,,,,,,890.499492,891.5077447,889.7027777,889.7027777,889.7027777,889.7027777,old_sceneOut_36.png,383,4.0,0.7953677000000425,,,027,10,2024-12-03_14h34.56.669,Surprise recog test,2023.1.3,59.9609174739913,
383,0,383,0,,,,,,,,,,,,,,,,,,,,,,,,,,,,,,,,,,895.4726771,,891.5077447,891.5077447,891.5077447,891.5077447,new_fruit_27.png,384,4.0,3.959639100000004,,,027,10,2024-12-03_14h34.56.669,Surprise recog test,2023.1.3,59.9609174739913,
384,0,384,0,,,,,,,,,,,,,,,,,,,,,,,,,,,,,,,,,,898.1562437,899.1758096,896.5037733,896.5037733,896.5037733,896.5037733,old_fruit_34.png,385,3.0,1.6531183000000738,,,027,10,2024-12-03_14h34.56.669,Surprise recog test,2023.1.3,59.9609174739913,
385,0,385,0,,,,,,,,,,,,,,,,,,,,,,,,,,,,,,,,,,900.5408463,901.5611539,899.1758096,899.1758096,899.1758096,899.1758096,new_stationery_16.png,386,3.0,1.3660319000000527,,,027,10,2024-12-03_14h34.56.669,Surprise recog test,2023.1.3,59.9609174739913,
386,0,386,0,,,,,,,,,,,,,,,,,,,,,,,,,,,,,,,,,,903.3153936,904.3367099,901.5611539,901.5611539,901.5611539,901.5611539,new_stationery_36.png,387,3.0,1.756122600000026,,,027,10,2024-12-03_14h34.56.669,Surprise recog test,2023.1.3,59.9609174739913,
387,0,387,0,,,,,,,,,,,,,,,,,,,,,,,,,,,,,,,,,,905.3560496,906.376791,904.3367099,904.3367099,904.3367099,904.3367099,old_sceneIn_11.png,388,4.0,1.0150653000000602,,,027,10,2024-12-03_14h34.56.669,Surprise recog test,2023.1.3,59.9609174739913,
388,0,388,0,,,,,,,,,,,,,,,,,,,,,,,,,,,,,,,,,,907.1704957000001,908.1890346,906.376791,906.376791,906.376791,906.376791,old_sceneIn_2.png,389,4.0,0.7953644000000395,,,027,10,2024-12-03_14h34.56.669,Surprise recog test,2023.1.3,59.9609174739913,
389,0,389,0,,,,,,,,,,,,,,,,,,,,,,,,,,,,,,,,,,909.1496444,910.1571223,908.1890346,908.1890346,908.1890346,908.1890346,new_fruit_13.png,390,4.0,0.957614000000035,,,027,10,2024-12-03_14h34.56.669,Surprise recog test,2023.1.3,59.9609174739913,
390,0,390,0,,,,,,,,,,,,,,,,,,,,,,,,,,,,,,,,,,910.9594943,911.9825644,910.1571223,910.1571223,910.1571223,910.1571223,old_sceneOut_35.png,391,4.0,0.7975182000000132,,,027,10,2024-12-03_14h34.56.669,Surprise recog test,2023.1.3,59.9609174739913,
391,0,391,0,,,,,,,,,,,,,,,,,,,,,,,,,,,,,,,,,,913.9524,914.9595558,911.9825644,911.9825644,911.9825644,911.9825644,old_fruit_27.png,392,3.0,1.9673489000000473,,,027,10,2024-12-03_14h34.56.669,Surprise recog test,2023.1.3,59.9609174739913,
392,0,392,0,,,,,,,,,,,,,,,,,,,,,,,,,,,,,,,,,,916.5396528,917.5464878,914.9595558,914.9595558,914.9595558,914.9595558,old_fruit_15.png,393,2.0,1.5748960999999326,,,027,10,2024-12-03_14h34.56.669,Surprise recog test,2023.1.3,59.9609174739913,
