trial_loop.thisRepN,trial_loop.thisTrialN,trial_loop.thisN,trial_loop.thisIndex,VAS_slider.started,VAS_text.started,VAS_notstressed_text.started,VAS_stressed_text.started,continue_input.started,continue_text.started,label0.started,label10.started,label20.started,label30.started,label40.started,label50.started,label60.started,label70.started,label80.started,label90.started,label100.started,VAS_slider.response,VAS_slider.rt,VAS_slider.history,Answer_VAS,continue_input.keys,instruction_text.started,continue_text_2.started,continue_input_2.started,continue_input_2.keys,continue_input_2.rt,continue_input_2.duration,example_text.started,example_slider_2.started,example_image.started,example_slider_2.response,example_slider_2.rt,fixcross.started,fixcross.stopped,front_square.started,stim_images.started,trial_inst_images.started,slider_images.started,slider_images.stopped,thisImg,trial_count,slider_images.response,slider_images.rt,outro.started,participant,condition,date,expName,psychopyVersion,frameRate,
,,,,24.14206800000011,24.14206800000011,24.14206800000011,24.14206800000011,24.14206800000011,24.14206800000011,24.14206800000011,24.14206800000011,24.14206800000011,24.14206800000011,24.14206800000011,24.14206800000011,24.14206800000011,24.14206800000011,24.14206800000011,24.14206800000011,24.14206800000011,0.005555555555555314,4.006580199999917,"[(0.005555555555555314, 4.006580199999917)]",0.005555555555555314,None,,,,,,,,,,,,,,,,,,,,,,,,028,01,2024-12-03_16h32.47.748,Surprise recog test,2023.1.3,59.98411620597602,
,,,,,,,,,,,,,,,,,,,,,,,,,,28.184759799999483,28.184759799999483,28.184759799999483,space,10.93550740000046,None,,,,,,,,,,,,,,,,,,028,01,2024-12-03_16h32.47.748,Surprise recog test,2023.1.3,59.98411620597602,
0,0,0,0,,,,,,,,,,,,,,,,,,,,,,,,,,,,,39.24268219999976,39.24268219999976,39.24268219999976,4.0,4.449834500000179,49.64406619999954,44.67054869999993,44.67054869999993,44.67054869999993,44.67054869999993,44.67054869999993,49.63703239999995,new_fruit_46.png,1,None,None,,028,01,2024-12-03_16h32.47.748,Surprise recog test,2023.1.3,59.98411620597602,
1,0,1,0,,,,,,,,,,,,,,,,,,,,,,,,,,,,,,,,,,55.64278540000032,,50.66519989999961,50.66519989999961,50.66519989999961,50.66519989999961,55.62917610000022,new_fruit_21.png,2,None,None,,028,01,2024-12-03_16h32.47.748,Surprise recog test,2023.1.3,59.98411620597602,
2,0,2,0,,,,,,,,,,,,,,,,,,,,,,,,,,,,,,,,,,61.636715300000105,62.653588399999535,56.65692560000025,56.65692560000025,56.65692560000025,56.65692560000025,61.629532400000244,new_fruit_10.png,3,None,None,,028,01,2024-12-03_16h32.47.748,Surprise recog test,2023.1.3,59.98411620597602,
3,0,3,0,,,,,,,,,,,,,,,,,,,,,,,,,,,,,,,,,,65.59052679999968,66.59739319999971,62.653588399999535,62.653588399999535,62.653588399999535,62.653588399999535,,old_fruit_34.png,4,3.0,2.936093499999515,,028,01,2024-12-03_16h32.47.748,Surprise recog test,2023.1.3,59.98411620597602,
4,0,4,0,,,,,,,,,,,,,,,,,,,,,,,,,,,,,,,,,,70.49515400000018,71.51494530000036,66.59739319999971,66.59739319999971,66.59739319999971,66.59739319999971,,new_sceneOut_20.png,5,2.0,3.8954776999999012,,028,01,2024-12-03_16h32.47.748,Surprise recog test,2023.1.3,59.98411620597602,
5,0,5,0,,,,,,,,,,,,,,,,,,,,,,,,,,,,,,,,,,74.04601600000024,75.05209809999997,71.51494530000036,71.51494530000036,71.51494530000036,71.51494530000036,,old_sceneOut_43.png,6,3.0,2.5322347999999693,,028,01,2024-12-03_16h32.47.748,Surprise recog test,2023.1.3,59.98411620597602,
6,0,6,0,,,,,,,,,,,,,,,,,,,,,,,,,,,,,,,,,,77.15203920000022,,75.05209809999997,75.05209809999997,75.05209809999997,75.05209809999997,,new_fruit_35.png,7,3.0,2.093755599999895,,028,01,2024-12-03_16h32.47.748,Surprise recog test,2023.1.3,59.98411620597602,
7,0,7,0,,,,,,,,,,,,,,,,,,,,,,,,,,,,,,,,,,81.29962679999971,82.31420040000012,78.18416840000009,78.18416840000009,78.18416840000009,78.18416840000009,,new_sceneIn_50.png,8,3.0,3.114949300000262,,028,01,2024-12-03_16h32.47.748,Surprise recog test,2023.1.3,59.98411620597602,
8,0,8,0,,,,,,,,,,,,,,,,,,,,,,,,,,,,,,,,,,85.7918639999998,86.79836319999959,82.31420040000012,82.31420040000012,82.31420040000012,82.31420040000012,,old_stationery_37.png,9,2.0,3.476357999999891,,028,01,2024-12-03_16h32.47.748,Surprise recog test,2023.1.3,59.98411620597602,
9,0,9,0,,,,,,,,,,,,,,,,,,,,,,,,,,,,,,,,,,88.11574639999981,89.14324940000006,86.79836319999959,86.79836319999959,86.79836319999959,86.79836319999959,,old_stationery_50.png,10,1.0,1.3130951000002824,,028,01,2024-12-03_16h32.47.748,Surprise recog test,2023.1.3,59.98411620597602,
10,0,10,0,,,,,,,,,,,,,,,,,,,,,,,,,,,,,,,,,,92.16334610000013,93.17036370000005,89.14324940000006,89.14324940000006,89.14324940000006,89.14324940000006,,new_sceneIn_16.png,11,3.0,3.0204690000000483,,028,01,2024-12-03_16h32.47.748,Surprise recog test,2023.1.3,59.98411620597602,
11,0,11,0,,,,,,,,,,,,,,,,,,,,,,,,,,,,,,,,,,95.50082190000012,,93.17036370000005,93.17036370000005,93.17036370000005,93.17036370000005,,old_sceneIn_28.png,12,1.0,2.3257737000003544,,028,01,2024-12-03_16h32.47.748,Surprise recog test,2023.1.3,59.98411620597602,
12,0,12,0,,,,,,,,,,,,,,,,,,,,,,,,,,,,,,,,,,99.97011850000035,100.99138519999997,96.5278029000001,96.5278029000001,96.5278029000001,96.5278029000001,,new_sceneOut_32.png,13,4.0,3.4375968000003922,,028,01,2024-12-03_16h32.47.748,Surprise recog test,2023.1.3,59.98411620597602,
13,0,13,0,,,,,,,,,,,,,,,,,,,,,,,,,,,,,,,,,,102.62062270000024,103.64332879999984,100.99138519999997,100.99138519999997,100.99138519999997,100.99138519999997,,old_stationery_21.png,14,1.0,1.6317217999994682,,028,01,2024-12-03_16h32.47.748,Surprise recog test,2023.1.3,59.98411620597602,
14,0,14,0,,,,,,,,,,,,,,,,,,,,,,,,,,,,,,,,,,105.38272909999978,106.41569859999981,103.64332879999984,103.64332879999984,103.64332879999984,103.64332879999984,,new_fruit_2.png,15,3.0,1.7416199999997843,,028,01,2024-12-03_16h32.47.748,Surprise recog test,2023.1.3,59.98411620597602,
15,0,15,0,,,,,,,,,,,,,,,,,,,,,,,,,,,,,,,,,,109.00016200000027,110.0309430999996,106.41569859999981,106.41569859999981,106.41569859999981,106.41569859999981,,new_fruit_15.png,16,4.0,2.588015900000755,,028,01,2024-12-03_16h32.47.748,Surprise recog test,2023.1.3,59.98411620597602,
16,0,16,0,,,,,,,,,,,,,,,,,,,,,,,,,,,,,,,,,,112.92614119999962,113.94464650000009,110.0309430999996,110.0309430999996,110.0309430999996,110.0309430999996,,old_sceneIn_5.png,17,4.0,2.8959468000002744,,028,01,2024-12-03_16h32.47.748,Surprise recog test,2023.1.3,59.98411620597602,
17,0,17,0,,,,,,,,,,,,,,,,,,,,,,,,,,,,,,,,,,117.11358120000023,118.13555859999997,113.94464650000009,113.94464650000009,113.94464650000009,113.94464650000009,,old_sceneOut_38.png,18,4.0,3.1676831000004313,,028,01,2024-12-03_16h32.47.748,Surprise recog test,2023.1.3,59.98411620597602,
18,0,18,0,,,,,,,,,,,,,,,,,,,,,,,,,,,,,,,,,,120.51723829999992,121.54246749999947,118.13555859999997,118.13555859999997,118.13555859999997,118.13555859999997,,old_sceneIn_17.png,19,4.0,2.384035899999617,,028,01,2024-12-03_16h32.47.748,Surprise recog test,2023.1.3,59.98411620597602,
19,0,19,0,,,,,,,,,,,,,,,,,,,,,,,,,,,,,,,,,,123.99621409999963,125.02844339999956,121.54246749999947,121.54246749999947,121.54246749999947,121.54246749999947,,new_stationery_43.png,20,4.0,2.45576119999987,,028,01,2024-12-03_16h32.47.748,Surprise recog test,2023.1.3,59.98411620597602,
20,0,20,0,,,,,,,,,,,,,,,,,,,,,,,,,,,,,,,,,,128.56291770000007,,125.02844339999956,125.02844339999956,125.02844339999956,125.02844339999956,,old_sceneOut_35.png,21,3.0,3.5382424999997966,,028,01,2024-12-03_16h32.47.748,Surprise recog test,2023.1.3,59.98411620597602,
21,0,21,0,,,,,,,,,,,,,,,,,,,,,,,,,,,,,,,,,,132.20332039999994,133.22790189999978,129.5796588000003,129.5796588000003,129.5796588000003,129.5796588000003,,new_stationery_22.png,22,3.0,2.618942600000082,,028,01,2024-12-03_16h32.47.748,Surprise recog test,2023.1.3,59.98411620597602,
22,0,22,0,,,,,,,,,,,,,,,,,,,,,,,,,,,,,,,,,,136.20705670000007,137.22565190000023,133.22790189999978,133.22790189999978,133.22790189999978,133.22790189999978,,new_sceneIn_38.png,23,4.0,2.9808397000006153,,028,01,2024-12-03_16h32.47.748,Surprise recog test,2023.1.3,59.98411620597602,
23,0,23,0,,,,,,,,,,,,,,,,,,,,,,,,,,,,,,,,,,139.3370490999996,,137.22565190000023,137.22565190000023,137.22565190000023,137.22565190000023,,old_sceneIn_22.png,24,5.0,2.1054085000005216,,028,01,2024-12-03_16h32.47.748,Surprise recog test,2023.1.3,59.98411620597602,
24,0,24,0,,,,,,,,,,,,,,,,,,,,,,,,,,,,,,,,,,141.90508779999982,142.92225059999964,140.35801639999954,140.35801639999954,140.35801639999954,140.35801639999954,,old_stationery_28.png,25,1.0,1.542586499999743,,028,01,2024-12-03_16h32.47.748,Surprise recog test,2023.1.3,59.98411620597602,
25,0,25,0,,,,,,,,,,,,,,,,,,,,,,,,,,,,,,,,,,147.17475420000028,148.19450779999988,142.92225059999964,142.92225059999964,142.92225059999964,142.92225059999964,,new_sceneOut_43.png,26,2.0,4.250500199999806,,028,01,2024-12-03_16h32.47.748,Surprise recog test,2023.1.3,59.98411620597602,
26,0,26,0,,,,,,,,,,,,,,,,,,,,,,,,,,,,,,,,,,150.96111719999953,151.96582130000024,148.19450779999988,148.19450779999988,148.19450779999988,148.19450779999988,,new_sceneIn_25.png,27,3.0,2.761504699999932,,028,01,2024-12-03_16h32.47.748,Surprise recog test,2023.1.3,59.98411620597602,
27,0,27,0,,,,,,,,,,,,,,,,,,,,,,,,,,,,,,,,,,154.39768230000027,155.40300389999993,151.96582130000024,151.96582130000024,151.96582130000024,151.96582130000024,,new_sceneIn_9.png,28,4.0,2.4248891999995976,,028,01,2024-12-03_16h32.47.748,Surprise recog test,2023.1.3,59.98411620597602,
28,0,28,0,,,,,,,,,,,,,,,,,,,,,,,,,,,,,,,,,,158.00080929999967,159.02080999999998,155.40300389999993,155.40300389999993,155.40300389999993,155.40300389999993,,old_fruit_18.png,29,4.0,2.595446400000583,,028,01,2024-12-03_16h32.47.748,Surprise recog test,2023.1.3,59.98411620597602,
29,0,29,0,,,,,,,,,,,,,,,,,,,,,,,,,,,,,,,,,,161.40296299999954,162.40992819999974,159.02080999999998,159.02080999999998,159.02080999999998,159.02080999999998,,new_stationery_41.png,30,3.0,2.3821061999997255,,028,01,2024-12-03_16h32.47.748,Surprise recog test,2023.1.3,59.98411620597602,
30,0,30,0,,,,,,,,,,,,,,,,,,,,,,,,,,,,,,,,,,163.8988786,164.90962760000002,162.40992819999974,162.40992819999974,162.40992819999974,162.40992819999974,,old_stationery_39.png,31,1.0,1.4864268999999695,,028,01,2024-12-03_16h32.47.748,Surprise recog test,2023.1.3,59.98411620597602,
31,0,31,0,,,,,,,,,,,,,,,,,,,,,,,,,,,,,,,,,,166.78132809999988,167.81523540000035,164.90962760000002,164.90962760000002,164.90962760000002,164.90962760000002,,old_sceneOut_15.png,32,4.0,1.8665916999998444,,028,01,2024-12-03_16h32.47.748,Surprise recog test,2023.1.3,59.98411620597602,
32,0,32,0,,,,,,,,,,,,,,,,,,,,,,,,,,,,,,,,,,169.83160380000027,170.86455620000015,167.81523540000035,167.81523540000035,167.81523540000035,167.81523540000035,,new_sceneOut_38.png,33,4.0,2.017422400000214,,028,01,2024-12-03_16h32.47.748,Surprise recog test,2023.1.3,59.98411620597602,
33,0,33,0,,,,,,,,,,,,,,,,,,,,,,,,,,,,,,,,,,174.21161099999972,175.2338689999997,170.86455620000015,170.86455620000015,170.86455620000015,170.86455620000015,,new_fruit_4.png,34,5.0,3.3464798999993945,,028,01,2024-12-03_16h32.47.748,Surprise recog test,2023.1.3,59.98411620597602,
34,0,34,0,,,,,,,,,,,,,,,,,,,,,,,,,,,,,,,,,,177.54979589999948,178.5763637,175.2338689999997,175.2338689999997,175.2338689999997,175.2338689999997,,old_sceneOut_13.png,35,4.0,2.318672699999297,,028,01,2024-12-03_16h32.47.748,Surprise recog test,2023.1.3,59.98411620597602,
35,0,35,0,,,,,,,,,,,,,,,,,,,,,,,,,,,,,,,,,,179.99285830000008,181.0096351000002,178.5763637,178.5763637,178.5763637,178.5763637,,old_stationery_40.png,36,1.0,1.4192773000004308,,028,01,2024-12-03_16h32.47.748,Surprise recog test,2023.1.3,59.98411620597602,
36,0,36,0,,,,,,,,,,,,,,,,,,,,,,,,,,,,,,,,,,182.63650059999964,183.65948610000032,181.0096351000002,181.0096351000002,181.0096351000002,181.0096351000002,,new_stationery_36.png,37,5.0,1.6225042999994912,,028,01,2024-12-03_16h32.47.748,Surprise recog test,2023.1.3,59.98411620597602,
37,0,37,0,,,,,,,,,,,,,,,,,,,,,,,,,,,,,,,,,,186.68142689999968,187.70538320000014,183.65948610000032,183.65948610000032,183.65948610000032,183.65948610000032,,new_fruit_41.png,38,4.0,3.0222672999998395,,028,01,2024-12-03_16h32.47.748,Surprise recog test,2023.1.3,59.98411620597602,
38,0,38,0,,,,,,,,,,,,,,,,,,,,,,,,,,,,,,,,,,190.51079719999962,191.5308401000002,187.70538320000014,187.70538320000014,187.70538320000014,187.70538320000014,,old_sceneOut_41.png,39,3.0,2.808064299999387,,028,01,2024-12-03_16h32.47.748,Surprise recog test,2023.1.3,59.98411620597602,
39,0,39,0,,,,,,,,,,,,,,,,,,,,,,,,,,,,,,,,,,193.4295903000002,194.45005709999987,191.5308401000002,191.5308401000002,191.5308401000002,191.5308401000002,,new_sceneOut_29.png,40,1.0,1.8991477999998096,,028,01,2024-12-03_16h32.47.748,Surprise recog test,2023.1.3,59.98411620597602,
40,0,40,0,,,,,,,,,,,,,,,,,,,,,,,,,,,,,,,,,,196.3985518999998,197.4065257000002,194.45005709999987,194.45005709999987,194.45005709999987,194.45005709999987,,old_fruit_15.png,41,4.0,1.9449895999996443,,028,01,2024-12-03_16h32.47.748,Surprise recog test,2023.1.3,59.98411620597602,
41,0,41,0,,,,,,,,,,,,,,,,,,,,,,,,,,,,,,,,,,199.56249169999955,200.5768638999998,197.4065257000002,197.4065257000002,197.4065257000002,197.4065257000002,,old_sceneOut_47.png,42,5.0,2.1516968000005363,,028,01,2024-12-03_16h32.47.748,Surprise recog test,2023.1.3,59.98411620597602,
42,0,42,0,,,,,,,,,,,,,,,,,,,,,,,,,,,,,,,,,,204.26554729999953,205.2921613999997,200.5768638999998,200.5768638999998,200.5768638999998,200.5768638999998,,old_sceneIn_14.png,43,4.0,3.685142799999994,,028,01,2024-12-03_16h32.47.748,Surprise recog test,2023.1.3,59.98411620597602,
43,0,43,0,,,,,,,,,,,,,,,,,,,,,,,,,,,,,,,,,,206.908676,207.9237876999996,205.2921613999997,205.2921613999997,205.2921613999997,205.2921613999997,,old_sceneIn_21.png,44,5.0,1.6184785000004922,,028,01,2024-12-03_16h32.47.748,Surprise recog test,2023.1.3,59.98411620597602,
44,0,44,0,,,,,,,,,,,,,,,,,,,,,,,,,,,,,,,,,,209.63975709999977,210.65241379999952,207.9237876999996,207.9237876999996,207.9237876999996,207.9237876999996,,new_sceneIn_43.png,45,5.0,1.718815999999606,,028,01,2024-12-03_16h32.47.748,Surprise recog test,2023.1.3,59.98411620597602,
45,0,45,0,,,,,,,,,,,,,,,,,,,,,,,,,,,,,,,,,,212.8115130999995,213.83159179999984,210.65241379999952,210.65241379999952,210.65241379999952,210.65241379999952,,old_sceneIn_35.png,46,4.0,2.1554031000005125,,028,01,2024-12-03_16h32.47.748,Surprise recog test,2023.1.3,59.98411620597602,
46,0,46,0,,,,,,,,,,,,,,,,,,,,,,,,,,,,,,,,,,215.27066259999992,216.29751510000006,213.83159179999984,213.83159179999984,213.83159179999984,213.83159179999984,,old_stationery_4.png,47,1.0,1.4418918000001213,,028,01,2024-12-03_16h32.47.748,Surprise recog test,2023.1.3,59.98411620597602,
47,0,47,0,,,,,,,,,,,,,,,,,,,,,,,,,,,,,,,,,,218.6731893999995,219.70659890000024,216.29751510000006,216.29751510000006,216.29751510000006,216.29751510000006,,old_fruit_22.png,48,1.0,2.3770753999997396,,028,01,2024-12-03_16h32.47.748,Surprise recog test,2023.1.3,59.98411620597602,
48,0,48,0,,,,,,,,,,,,,,,,,,,,,,,,,,,,,,,,,,222.88608269999986,223.9080017999995,219.70659890000024,219.70659890000024,219.70659890000024,219.70659890000024,,new_sceneOut_12.png,49,4.0,3.1815528999995877,,028,01,2024-12-03_16h32.47.748,Surprise recog test,2023.1.3,59.98411620597602,
49,0,49,0,,,,,,,,,,,,,,,,,,,,,,,,,,,,,,,,,,225.52004940000006,226.5285898000002,223.9080017999995,223.9080017999995,223.9080017999995,223.9080017999995,,old_sceneOut_18.png,50,5.0,1.6145267000001695,,028,01,2024-12-03_16h32.47.748,Surprise recog test,2023.1.3,59.98411620597602,
50,0,50,0,,,,,,,,,,,,,,,,,,,,,,,,,,,,,,,,,,228.91246589999992,,226.5285898000002,226.5285898000002,226.5285898000002,226.5285898000002,,old_fruit_24.png,51,5.0,2.375123999999232,,028,01,2024-12-03_16h32.47.748,Surprise recog test,2023.1.3,59.98411620597602,
51,0,51,0,,,,,,,,,,,,,,,,,,,,,,,,,,,,,,,,,,233.39010429999962,234.41308000000026,229.94819910000024,229.94819910000024,229.94819910000024,229.94819910000024,,new_fruit_37.png,52,4.0,3.4456042000001617,,028,01,2024-12-03_16h32.47.748,Surprise recog test,2023.1.3,59.98411620597602,
52,0,52,0,,,,,,,,,,,,,,,,,,,,,,,,,,,,,,,,,,235.67175419999967,236.6858298999996,234.41308000000026,234.41308000000026,234.41308000000026,234.41308000000026,,old_stationery_27.png,53,1.0,1.2602096999999048,,028,01,2024-12-03_16h32.47.748,Surprise recog test,2023.1.3,59.98411620597602,
53,0,53,0,,,,,,,,,,,,,,,,,,,,,,,,,,,,,,,,,,238.75481109999964,,236.6858298999996,236.6858298999996,236.6858298999996,236.6858298999996,,new_stationery_45.png,54,4.0,2.0648920000003272,,028,01,2024-12-03_16h32.47.748,Surprise recog test,2023.1.3,59.98411620597602,
54,0,54,0,,,,,,,,,,,,,,,,,,,,,,,,,,,,,,,,,,242.25747520000004,,239.78643310000007,239.78643310000007,239.78643310000007,239.78643310000007,,old_sceneIn_50.png,55,1.0,2.4699237999993784,,028,01,2024-12-03_16h32.47.748,Surprise recog test,2023.1.3,59.98411620597602,
55,0,55,0,,,,,,,,,,,,,,,,,,,,,,,,,,,,,,,,,,245.9674986,246.9912500999999,243.29083960000025,243.29083960000025,243.29083960000025,243.29083960000025,,old_sceneIn_32.png,56,1.0,2.679205099999308,,028,01,2024-12-03_16h32.47.748,Surprise recog test,2023.1.3,59.98411620597602,
56,0,56,0,,,,,,,,,,,,,,,,,,,,,,,,,,,,,,,,,,248.60067609999987,249.62464189999992,246.9912500999999,246.9912500999999,246.9912500999999,246.9912500999999,,new_stationery_2.png,57,2.0,1.610695499999565,,028,01,2024-12-03_16h32.47.748,Surprise recog test,2023.1.3,59.98411620597602,
57,0,57,0,,,,,,,,,,,,,,,,,,,,,,,,,,,,,,,,,,251.1274655999996,252.15153219999956,249.62464189999992,249.62464189999992,249.62464189999992,249.62464189999992,,old_fruit_19.png,58,3.0,1.4979371999997966,,028,01,2024-12-03_16h32.47.748,Surprise recog test,2023.1.3,59.98411620597602,
58,0,58,0,,,,,,,,,,,,,,,,,,,,,,,,,,,,,,,,,,253.52991719999955,254.5500019000001,252.15153219999956,252.15153219999956,252.15153219999956,252.15153219999956,,old_fruit_44.png,59,4.0,1.3797703999998703,,028,01,2024-12-03_16h32.47.748,Surprise recog test,2023.1.3,59.98411620597602,
59,0,59,0,,,,,,,,,,,,,,,,,,,,,,,,,,,,,,,,,,256.1281124999996,257.1402453999999,254.5500019000001,254.5500019000001,254.5500019000001,254.5500019000001,,new_fruit_12.png,60,3.0,1.5792010000004666,,028,01,2024-12-03_16h32.47.748,Surprise recog test,2023.1.3,59.98411620597602,
60,0,60,0,,,,,,,,,,,,,,,,,,,,,,,,,,,,,,,,,,260.49817040000016,261.50987579999946,257.1402453999999,257.1402453999999,257.1402453999999,257.1402453999999,,new_sceneOut_8.png,61,5.0,3.3520072000001164,,028,01,2024-12-03_16h32.47.748,Surprise recog test,2023.1.3,59.98411620597602,
61,0,61,0,,,,,,,,,,,,,,,,,,,,,,,,,,,,,,,,,,263.40557160000026,264.4154803000001,261.50987579999946,261.50987579999946,261.50987579999946,261.50987579999946,,new_fruit_43.png,62,5.0,1.8908713999999236,,028,01,2024-12-03_16h32.47.748,Surprise recog test,2023.1.3,59.98411620597602,
62,0,62,0,,,,,,,,,,,,,,,,,,,,,,,,,,,,,,,,,,266.2657438999995,267.28107869999985,264.4154803000001,264.4154803000001,264.4154803000001,264.4154803000001,,old_sceneOut_50.png,63,4.0,1.8493411999997988,,028,01,2024-12-03_16h32.47.748,Surprise recog test,2023.1.3,59.98411620597602,
63,0,63,0,,,,,,,,,,,,,,,,,,,,,,,,,,,,,,,,,,271.37750210000013,272.39634060000026,267.28107869999985,267.28107869999985,267.28107869999985,267.28107869999985,,old_fruit_42.png,64,4.0,4.092240900000434,,028,01,2024-12-03_16h32.47.748,Surprise recog test,2023.1.3,59.98411620597602,
64,0,64,0,,,,,,,,,,,,,,,,,,,,,,,,,,,,,,,,,,275.43089260000033,276.44911969999976,272.39634060000026,272.39634060000026,272.39634060000026,272.39634060000026,,new_fruit_13.png,65,2.0,3.030528299999787,,028,01,2024-12-03_16h32.47.748,Surprise recog test,2023.1.3,59.98411620597602,
65,0,65,0,,,,,,,,,,,,,,,,,,,,,,,,,,,,,,,,,,278.56793240000025,279.5737135999998,276.44911969999976,276.44911969999976,276.44911969999976,276.44911969999976,,old_sceneIn_15.png,66,1.0,2.121906399999716,,028,01,2024-12-03_16h32.47.748,Surprise recog test,2023.1.3,59.98411620597602,
66,0,66,0,,,,,,,,,,,,,,,,,,,,,,,,,,,,,,,,,,281.3957333999997,282.4155208000002,279.5737135999998,279.5737135999998,279.5737135999998,279.5737135999998,,new_sceneOut_50.png,67,3.0,1.820317900000191,,028,01,2024-12-03_16h32.47.748,Surprise recog test,2023.1.3,59.98411620597602,
67,0,67,0,,,,,,,,,,,,,,,,,,,,,,,,,,,,,,,,,,284.6083695999996,,282.4155208000002,282.4155208000002,282.4155208000002,282.4155208000002,,new_sceneIn_23.png,68,4.0,2.1929292000004352,,028,01,2024-12-03_16h32.47.748,Surprise recog test,2023.1.3,59.98411620597602,
68,0,68,0,,,,,,,,,,,,,,,,,,,,,,,,,,,,,,,,,,287.52591829999983,288.54608499999995,285.62952359999963,285.62952359999963,285.62952359999963,285.62952359999963,,new_fruit_7.png,69,4.0,1.8898325000000114,,028,01,2024-12-03_16h32.47.748,Surprise recog test,2023.1.3,59.98411620597602,
69,0,69,0,,,,,,,,,,,,,,,,,,,,,,,,,,,,,,,,,,291.154638,292.18127540000023,288.54608499999995,288.54608499999995,288.54608499999995,288.54608499999995,,old_sceneOut_28.png,70,4.0,2.6106519999993907,,028,01,2024-12-03_16h32.47.748,Surprise recog test,2023.1.3,59.98411620597602,
70,0,70,0,,,,,,,,,,,,,,,,,,,,,,,,,,,,,,,,,,294.42069999999967,295.43907059999947,292.18127540000023,292.18127540000023,292.18127540000023,292.18127540000023,,new_sceneIn_20.png,71,5.0,2.239643199999591,,028,01,2024-12-03_16h32.47.748,Surprise recog test,2023.1.3,59.98411620597602,
71,0,71,0,,,,,,,,,,,,,,,,,,,,,,,,,,,,,,,,,,296.9569355000003,297.9873706999997,295.43907059999947,295.43907059999947,295.43907059999947,295.43907059999947,,new_sceneOut_16.png,72,4.0,1.5147777000001952,,028,01,2024-12-03_16h32.47.748,Surprise recog test,2023.1.3,59.98411620597602,
72,0,72,0,,,,,,,,,,,,,,,,,,,,,,,,,,,,,,,,,,299.4397385000002,300.4702195,297.9873706999997,297.9873706999997,297.9873706999997,297.9873706999997,,old_sceneIn_18.png,73,4.0,1.4554617000003418,,028,01,2024-12-03_16h32.47.748,Surprise recog test,2023.1.3,59.98411620597602,
73,0,73,0,,,,,,,,,,,,,,,,,,,,,,,,,,,,,,,,,,303.17761809999956,304.1961435000003,300.4702195,300.4702195,300.4702195,300.4702195,,old_fruit_16.png,74,3.0,2.706865000000107,,028,01,2024-12-03_16h32.47.748,Surprise recog test,2023.1.3,59.98411620597602,
74,0,74,0,,,,,,,,,,,,,,,,,,,,,,,,,,,,,,,,,,305.4688139,306.5025147999995,304.1961435000003,304.1961435000003,304.1961435000003,304.1961435000003,,new_stationery_28.png,75,1.0,1.2686233000003995,,028,01,2024-12-03_16h32.47.748,Surprise recog test,2023.1.3,59.98411620597602,
75,0,75,0,,,,,,,,,,,,,,,,,,,,,,,,,,,,,,,,,,309.5971647999995,,306.5025147999995,306.5025147999995,306.5025147999995,306.5025147999995,,old_sceneIn_26.png,76,4.0,3.096762399999534,,028,01,2024-12-03_16h32.47.748,Surprise recog test,2023.1.3,59.98411620597602,
76,0,76,0,,,,,,,,,,,,,,,,,,,,,,,,,,,,,,,,,,312.4350721999999,313.4591140000002,310.6256989000003,310.6256989000003,310.6256989000003,310.6256989000003,,old_fruit_6.png,77,5.0,1.8102042999998957,,028,01,2024-12-03_16h32.47.748,Surprise recog test,2023.1.3,59.98411620597602,
77,0,77,0,,,,,,,,,,,,,,,,,,,,,,,,,,,,,,,,,,315.3076781999998,316.32621130000007,313.4591140000002,313.4591140000002,313.4591140000002,313.4591140000002,,old_sceneOut_21.png,78,4.0,1.844108100000085,,028,01,2024-12-03_16h32.47.748,Surprise recog test,2023.1.3,59.98411620597602,
78,0,78,0,,,,,,,,,,,,,,,,,,,,,,,,,,,,,,,,,,318.1619303999996,319.18279919999986,316.32621130000007,316.32621130000007,316.32621130000007,316.32621130000007,,new_sceneOut_27.png,79,5.0,1.8313405999997485,,028,01,2024-12-03_16h32.47.748,Surprise recog test,2023.1.3,59.98411620597602,
79,0,79,0,,,,,,,,,,,,,,,,,,,,,,,,,,,,,,,,,,321.9124117000001,322.9407818999998,319.18279919999986,319.18279919999986,319.18279919999986,319.18279919999986,,new_fruit_50.png,80,4.0,2.7308732999999847,,028,01,2024-12-03_16h32.47.748,Surprise recog test,2023.1.3,59.98411620597602,
80,0,80,0,,,,,,,,,,,,,,,,,,,,,,,,,,,,,,,,,,325.63935609999953,326.6563278000003,322.9407818999998,322.9407818999998,322.9407818999998,322.9407818999998,,old_fruit_33.png,81,5.0,2.6986356999996133,,028,01,2024-12-03_16h32.47.748,Surprise recog test,2023.1.3,59.98411620597602,
81,0,81,0,,,,,,,,,,,,,,,,,,,,,,,,,,,,,,,,,,328.3076208000002,329.3308312999998,326.6563278000003,326.6563278000003,326.6563278000003,326.6563278000003,,new_sceneOut_24.png,82,4.0,1.6534302000000025,,028,01,2024-12-03_16h32.47.748,Surprise recog test,2023.1.3,59.98411620597602,
82,0,82,0,,,,,,,,,,,,,,,,,,,,,,,,,,,,,,,,,,331.14950659999977,332.18001769999955,329.3308312999998,329.3308312999998,329.3308312999998,329.3308312999998,,old_sceneOut_19.png,83,4.0,1.8186815999997634,,028,01,2024-12-03_16h32.47.748,Surprise recog test,2023.1.3,59.98411620597602,
83,0,83,0,,,,,,,,,,,,,,,,,,,,,,,,,,,,,,,,,,334.1237652,335.13796420000017,332.18001769999955,332.18001769999955,332.18001769999955,332.18001769999955,,new_fruit_19.png,84,5.0,1.9441565999995873,,028,01,2024-12-03_16h32.47.748,Surprise recog test,2023.1.3,59.98411620597602,
84,0,84,0,,,,,,,,,,,,,,,,,,,,,,,,,,,,,,,,,,336.97167139999965,337.99003079999966,335.13796420000017,335.13796420000017,335.13796420000017,335.13796420000017,,old_sceneIn_11.png,85,3.0,1.827378499999213,,028,01,2024-12-03_16h32.47.748,Surprise recog test,2023.1.3,59.98411620597602,
85,0,85,0,,,,,,,,,,,,,,,,,,,,,,,,,,,,,,,,,,339.7727417999995,340.79986159999953,337.99003079999966,337.99003079999966,337.99003079999966,337.99003079999966,,new_sceneOut_23.png,86,5.0,1.778821699999753,,028,01,2024-12-03_16h32.47.748,Surprise recog test,2023.1.3,59.98411620597602,
86,0,86,0,,,,,,,,,,,,,,,,,,,,,,,,,,,,,,,,,,344.04222990000017,345.06112870000015,340.79986159999953,340.79986159999953,340.79986159999953,340.79986159999953,,new_fruit_42.png,87,4.0,3.242510200000652,,028,01,2024-12-03_16h32.47.748,Surprise recog test,2023.1.3,59.98411620597602,
87,0,87,0,,,,,,,,,,,,,,,,,,,,,,,,,,,,,,,,,,347.2737281999998,348.2998445000003,345.06112870000015,345.06112870000015,345.06112870000015,345.06112870000015,,old_fruit_40.png,88,2.0,2.2101992999996583,,028,01,2024-12-03_16h32.47.748,Surprise recog test,2023.1.3,59.98411620597602,
88,0,88,0,,,,,,,,,,,,,,,,,,,,,,,,,,,,,,,,,,350.6077088000002,351.6177348000001,348.2998445000003,348.2998445000003,348.2998445000003,348.2998445000003,,new_stationery_38.png,89,2.0,2.310324500000206,,028,01,2024-12-03_16h32.47.748,Surprise recog test,2023.1.3,59.98411620597602,
89,0,89,0,,,,,,,,,,,,,,,,,,,,,,,,,,,,,,,,,,353.73615580000023,354.76454829999966,351.6177348000001,351.6177348000001,351.6177348000001,351.6177348000001,,new_stationery_19.png,90,3.0,2.1145669999996244,,028,01,2024-12-03_16h32.47.748,Surprise recog test,2023.1.3,59.98411620597602,
90,0,90,0,,,,,,,,,,,,,,,,,,,,,,,,,,,,,,,,,,356.2313017999995,357.23990289999983,354.76454829999966,354.76454829999966,354.76454829999966,354.76454829999966,,old_sceneOut_36.png,91,4.0,1.4623310999995738,,028,01,2024-12-03_16h32.47.748,Surprise recog test,2023.1.3,59.98411620597602,
91,0,91,0,,,,,,,,,,,,,,,,,,,,,,,,,,,,,,,,,,358.80657580000025,359.8428401000001,357.23990289999983,357.23990289999983,357.23990289999983,357.23990289999983,,old_sceneIn_31.png,92,2.0,1.5629222999996273,,028,01,2024-12-03_16h32.47.748,Surprise recog test,2023.1.3,59.98411620597602,
92,0,92,0,,,,,,,,,,,,,,,,,,,,,,,,,,,,,,,,,,362.0216739999996,363.0469009999997,359.8428401000001,359.8428401000001,359.8428401000001,359.8428401000001,,new_sceneOut_10.png,93,3.0,2.179442300000119,,028,01,2024-12-03_16h32.47.748,Surprise recog test,2023.1.3,59.98411620597602,
93,0,93,0,,,,,,,,,,,,,,,,,,,,,,,,,,,,,,,,,,364.6374423999996,365.66032240000004,363.0469009999997,363.0469009999997,363.0469009999997,363.0469009999997,,old_stationery_16.png,94,1.0,1.5921493000005285,,028,01,2024-12-03_16h32.47.748,Surprise recog test,2023.1.3,59.98411620597602,
94,0,94,0,,,,,,,,,,,,,,,,,,,,,,,,,,,,,,,,,,368.1272428000002,,365.66032240000004,365.66032240000004,365.66032240000004,365.66032240000004,,new_sceneOut_31.png,95,4.0,2.468357400000059,,028,01,2024-12-03_16h32.47.748,Surprise recog test,2023.1.3,59.98411620597602,
95,0,95,0,,,,,,,,,,,,,,,,,,,,,,,,,,,,,,,,,,370.66186910000033,371.68203730000005,369.16011809999964,369.16011809999964,369.16011809999964,369.16011809999964,,new_sceneOut_46.png,96,4.0,1.4984129000004032,,028,01,2024-12-03_16h32.47.748,Surprise recog test,2023.1.3,59.98411620597602,
96,0,96,0,,,,,,,,,,,,,,,,,,,,,,,,,,,,,,,,,,374.32967389999976,375.3435399,371.68203730000005,371.68203730000005,371.68203730000005,371.68203730000005,,old_fruit_48.png,97,4.0,2.6491336999997657,,028,01,2024-12-03_16h32.47.748,Surprise recog test,2023.1.3,59.98411620597602,
97,0,97,0,,,,,,,,,,,,,,,,,,,,,,,,,,,,,,,,,,377.4306643,378.45670319999954,375.3435399,375.3435399,375.3435399,375.3435399,,old_stationery_12.png,98,1.0,2.0840118999994957,,028,01,2024-12-03_16h32.47.748,Surprise recog test,2023.1.3,59.98411620597602,
98,0,98,0,,,,,,,,,,,,,,,,,,,,,,,,,,,,,,,,,,380.52497479999965,381.5545132999996,378.45670319999954,378.45670319999954,378.45670319999954,378.45670319999954,,old_stationery_17.png,99,1.0,2.072512800000368,,028,01,2024-12-03_16h32.47.748,Surprise recog test,2023.1.3,59.98411620597602,
99,0,99,0,,,,,,,,,,,,,,,,,,,,,,,,,,,,,,,,,,384.2238003000002,,381.5545132999996,381.5545132999996,381.5545132999996,381.5545132999996,,old_sceneIn_25.png,100,2.0,2.670106399999895,,028,01,2024-12-03_16h32.47.748,Surprise recog test,2023.1.3,59.98411620597602,
100,0,100,0,,,,,,,,,,,,,,,,,,,,,,,,,,,,,,,,,,387.20906579999973,,385.2457764999999,385.2457764999999,385.2457764999999,385.2457764999999,,new_fruit_26.png,101,4.0,1.9594880000004196,,028,01,2024-12-03_16h32.47.748,Surprise recog test,2023.1.3,59.98411620597602,
101,0,101,0,,,,,,,,,,,,,,,,,,,,,,,,,,,,,,,,,,391.14681519999976,,388.2312118,388.2312118,388.2312118,388.2312118,,old_sceneIn_36.png,102,1.0,2.907043600000179,,028,01,2024-12-03_16h32.47.748,Surprise recog test,2023.1.3,59.98411620597602,
102,0,102,0,,,,,,,,,,,,,,,,,,,,,,,,,,,,,,,,,,394.7326573,,392.1735259999996,392.1735259999996,392.1735259999996,392.1735259999996,,old_fruit_26.png,103,3.0,2.5598786999998993,,028,01,2024-12-03_16h32.47.748,Surprise recog test,2023.1.3,59.98411620597602,
103,0,103,0,,,,,,,,,,,,,,,,,,,,,,,,,,,,,,,,,,398.77863030000026,399.8007563000001,395.75421929999993,395.75421929999993,395.75421929999993,395.75421929999993,,new_sceneIn_44.png,104,4.0,3.006441900000027,,028,01,2024-12-03_16h32.47.748,Surprise recog test,2023.1.3,59.98411620597602,
104,0,104,0,,,,,,,,,,,,,,,,,,,,,,,,,,,,,,,,,,401.8149255999997,402.82752100000016,399.8007563000001,399.8007563000001,399.8007563000001,399.8007563000001,,new_stationery_39.png,105,3.0,2.016751699999986,,028,01,2024-12-03_16h32.47.748,Surprise recog test,2023.1.3,59.98411620597602,
105,0,105,0,,,,,,,,,,,,,,,,,,,,,,,,,,,,,,,,,,404.46919530000014,405.4939867000003,402.82752100000016,402.82752100000016,402.82752100000016,402.82752100000016,,old_fruit_41.png,106,4.0,1.6368546000003334,,028,01,2024-12-03_16h32.47.748,Surprise recog test,2023.1.3,59.98411620597602,
106,0,106,0,,,,,,,,,,,,,,,,,,,,,,,,,,,,,,,,,,406.9752110999998,407.9930618999997,405.4939867000003,405.4939867000003,405.4939867000003,405.4939867000003,,old_stationery_41.png,107,1.0,1.482158900000286,,028,01,2024-12-03_16h32.47.748,Surprise recog test,2023.1.3,59.98411620597602,
107,0,107,0,,,,,,,,,,,,,,,,,,,,,,,,,,,,,,,,,,410.9306826000002,,407.9930618999997,407.9930618999997,407.9930618999997,407.9930618999997,,new_sceneOut_14.png,108,4.0,2.9404701000003115,,028,01,2024-12-03_16h32.47.748,Surprise recog test,2023.1.3,59.98411620597602,
108,0,108,0,,,,,,,,,,,,,,,,,,,,,,,,,,,,,,,,,,413.4429817,414.45490080000036,411.96322299999974,411.96322299999974,411.96322299999974,411.96322299999974,,old_sceneIn_2.png,109,1.0,1.4798868000007133,,028,01,2024-12-03_16h32.47.748,Surprise recog test,2023.1.3,59.98411620597602,
109,0,109,0,,,,,,,,,,,,,,,,,,,,,,,,,,,,,,,,,,415.9503724999995,,414.45490080000036,414.45490080000036,414.45490080000036,414.45490080000036,,old_stationery_45.png,110,1.0,1.4900807000003624,,028,01,2024-12-03_16h32.47.748,Surprise recog test,2023.1.3,59.98411620597602,
110,0,110,0,,,,,,,,,,,,,,,,,,,,,,,,,,,,,,,,,,419.64691010000024,420.6588751999998,416.9872607999996,416.9872607999996,416.9872607999996,416.9872607999996,,old_sceneOut_37.png,111,4.0,2.663613899999291,,028,01,2024-12-03_16h32.47.748,Surprise recog test,2023.1.3,59.98411620597602,
111,0,111,0,,,,,,,,,,,,,,,,,,,,,,,,,,,,,,,,,,422.68193450000035,423.7085748999998,420.6588751999998,420.6588751999998,420.6588751999998,420.6588751999998,,new_fruit_49.png,112,1.0,2.016560899999604,,028,01,2024-12-03_16h32.47.748,Surprise recog test,2023.1.3,59.98411620597602,
112,0,112,0,,,,,,,,,,,,,,,,,,,,,,,,,,,,,,,,,,425.1169135,426.1411680000001,423.7085748999998,423.7085748999998,423.7085748999998,423.7085748999998,,old_stationery_35.png,113,1.0,1.4108125000002474,,028,01,2024-12-03_16h32.47.748,Surprise recog test,2023.1.3,59.98411620597602,
113,0,113,0,,,,,,,,,,,,,,,,,,,,,,,,,,,,,,,,,,427.9937318000002,,426.1411680000001,426.1411680000001,426.1411680000001,426.1411680000001,,new_stationery_33.png,114,1.0,1.8513794999998936,,028,01,2024-12-03_16h32.47.748,Surprise recog test,2023.1.3,59.98411620597602,
114,0,114,0,,,,,,,,,,,,,,,,,,,,,,,,,,,,,,,,,,430.3830253999995,431.40018710000004,429.0247491,429.0247491,429.0247491,429.0247491,,new_sceneOut_28.png,115,3.0,1.3602579999997033,,028,01,2024-12-03_16h32.47.748,Surprise recog test,2023.1.3,59.98411620597602,
115,0,115,0,,,,,,,,,,,,,,,,,,,,,,,,,,,,,,,,,,433.67881659999966,434.6984935999999,431.40018710000004,431.40018710000004,431.40018710000004,431.40018710000004,,old_stationery_5.png,116,3.0,2.2674386999997296,,028,01,2024-12-03_16h32.47.748,Surprise recog test,2023.1.3,59.98411620597602,
116,0,116,0,,,,,,,,,,,,,,,,,,,,,,,,,,,,,,,,,,436.3503246999999,,434.6984935999999,434.6984935999999,434.6984935999999,434.6984935999999,,new_sceneIn_30.png,117,5.0,1.6525972999997975,,028,01,2024-12-03_16h32.47.748,Surprise recog test,2023.1.3,59.98411620597602,
117,0,117,0,,,,,,,,,,,,,,,,,,,,,,,,,,,,,,,,,,439.50045339999997,440.51701500000036,437.3818854000001,437.3818854000001,437.3818854000001,437.3818854000001,,old_fruit_43.png,118,4.0,2.1132643000000826,,028,01,2024-12-03_16h32.47.748,Surprise recog test,2023.1.3,59.98411620597602,
118,0,118,0,,,,,,,,,,,,,,,,,,,,,,,,,,,,,,,,,,443.0115532,444.0375127999996,440.51701500000036,440.51701500000036,440.51701500000036,440.51701500000036,,old_sceneIn_13.png,119,2.0,2.49334220000037,,028,01,2024-12-03_16h32.47.748,Surprise recog test,2023.1.3,59.98411620597602,
119,0,119,0,,,,,,,,,,,,,,,,,,,,,,,,,,,,,,,,,,446.5563824999999,447.5651620999997,444.0375127999996,444.0375127999996,444.0375127999996,444.0375127999996,,new_fruit_5.png,120,4.0,2.512649400000555,,028,01,2024-12-03_16h32.47.748,Surprise recog test,2023.1.3,59.98411620597602,
120,0,120,0,,,,,,,,,,,,,,,,,,,,,,,,,,,,,,,,,,449.4151837999998,450.4467616000002,447.5651620999997,447.5651620999997,447.5651620999997,447.5651620999997,,new_stationery_17.png,121,2.0,1.8454866000001857,,028,01,2024-12-03_16h32.47.748,Surprise recog test,2023.1.3,59.98411620597602,
121,0,121,0,,,,,,,,,,,,,,,,,,,,,,,,,,,,,,,,,,451.8704590999996,452.8927840999995,450.4467616000002,450.4467616000002,450.4467616000002,450.4467616000002,,new_stationery_4.png,122,1.0,1.425006399999802,,028,01,2024-12-03_16h32.47.748,Surprise recog test,2023.1.3,59.98411620597602,
122,0,122,0,,,,,,,,,,,,,,,,,,,,,,,,,,,,,,,,,,454.8990791999995,,452.8927840999995,452.8927840999995,452.8927840999995,452.8927840999995,,old_fruit_38.png,123,1.0,2.0077831999997215,,028,01,2024-12-03_16h32.47.748,Surprise recog test,2023.1.3,59.98411620597602,
123,0,123,0,,,,,,,,,,,,,,,,,,,,,,,,,,,,,,,,,,457.2797472000002,458.2912207999998,455.93329449999965,455.93329449999965,455.93329449999965,455.93329449999965,,old_stationery_6.png,124,1.0,1.3495248999997784,,028,01,2024-12-03_16h32.47.748,Surprise recog test,2023.1.3,59.98411620597602,
124,0,124,0,,,,,,,,,,,,,,,,,,,,,,,,,,,,,,,,,,460.26369479999994,461.28500669999994,458.2912207999998,458.2912207999998,458.2912207999998,458.2912207999998,,old_fruit_3.png,125,3.0,1.967879300000277,,028,01,2024-12-03_16h32.47.748,Surprise recog test,2023.1.3,59.98411620597602,
125,0,125,0,,,,,,,,,,,,,,,,,,,,,,,,,,,,,,,,,,464.5244351000001,,461.28500669999994,461.28500669999994,461.28500669999994,461.28500669999994,,new_sceneOut_15.png,126,4.0,3.239019300000109,,028,01,2024-12-03_16h32.47.748,Surprise recog test,2023.1.3,59.98411620597602,
126,0,126,0,,,,,,,,,,,,,,,,,,,,,,,,,,,,,,,,,,469.8552109000002,470.8752191000003,465.55411449999974,465.55411449999974,465.55411449999974,465.55411449999974,,new_stationery_25.png,127,3.0,4.3037811000003785,,028,01,2024-12-03_16h32.47.748,Surprise recog test,2023.1.3,59.98411620597602,
127,0,127,0,,,,,,,,,,,,,,,,,,,,,,,,,,,,,,,,,,472.52122529999997,473.53455550000035,470.8752191000003,470.8752191000003,470.8752191000003,470.8752191000003,,new_fruit_6.png,128,3.0,1.6469304000002012,,028,01,2024-12-03_16h32.47.748,Surprise recog test,2023.1.3,59.98411620597602,
128,0,128,0,,,,,,,,,,,,,,,,,,,,,,,,,,,,,,,,,,475.2180585999995,,473.53455550000035,473.53455550000035,473.53455550000035,473.53455550000035,,old_sceneIn_12.png,129,1.0,1.6789792000008674,,028,01,2024-12-03_16h32.47.748,Surprise recog test,2023.1.3,59.98411620597602,
129,0,129,0,,,,,,,,,,,,,,,,,,,,,,,,,,,,,,,,,,477.5369416000003,478.5673055999996,476.24699899999996,476.24699899999996,476.24699899999996,476.24699899999996,,old_fruit_25.png,130,4.0,1.2906938999994964,,028,01,2024-12-03_16h32.47.748,Surprise recog test,2023.1.3,59.98411620597602,
130,0,130,0,,,,,,,,,,,,,,,,,,,,,,,,,,,,,,,,,,482.07524660000036,483.0977104000003,478.5673055999996,478.5673055999996,478.5673055999996,478.5673055999996,,old_sceneOut_16.png,131,3.0,3.510395199999948,,028,01,2024-12-03_16h32.47.748,Surprise recog test,2023.1.3,59.98411620597602,
131,0,131,0,,,,,,,,,,,,,,,,,,,,,,,,,,,,,,,,,,485.03552990000026,486.0529919999999,483.0977104000003,483.0977104000003,483.0977104000003,483.0977104000003,,new_fruit_24.png,132,5.0,1.9347346000004109,,028,01,2024-12-03_16h32.47.748,Surprise recog test,2023.1.3,59.98411620597602,
132,0,132,0,,,,,,,,,,,,,,,,,,,,,,,,,,,,,,,,,,487.55687260000013,488.58129389999976,486.0529919999999,486.0529919999999,486.0529919999999,486.0529919999999,,old_stationery_42.png,133,1.0,1.5005152999992788,,028,01,2024-12-03_16h32.47.748,Surprise recog test,2023.1.3,59.98411620597602,
133,0,133,0,,,,,,,,,,,,,,,,,,,,,,,,,,,,,,,,,,490.63202040000033,491.6637676,488.58129389999976,488.58129389999976,488.58129389999976,488.58129389999976,,old_fruit_4.png,134,4.0,2.0545233000002554,,028,01,2024-12-03_16h32.47.748,Surprise recog test,2023.1.3,59.98411620597602,
134,0,134,0,,,,,,,,,,,,,,,,,,,,,,,,,,,,,,,,,,495.17591340000035,496.2013558999997,491.6637676,491.6637676,491.6637676,491.6637676,,old_sceneIn_42.png,135,4.0,3.5122259999998278,,028,01,2024-12-03_16h32.47.748,Surprise recog test,2023.1.3,59.98411620597602,
135,0,135,0,,,,,,,,,,,,,,,,,,,,,,,,,,,,,,,,,,498.19119299999966,499.22073569999975,496.2013558999997,496.2013558999997,496.2013558999997,496.2013558999997,,new_sceneIn_28.png,136,2.0,1.9915264999999636,,028,01,2024-12-03_16h32.47.748,Surprise recog test,2023.1.3,59.98411620597602,
136,0,136,0,,,,,,,,,,,,,,,,,,,,,,,,,,,,,,,,,,501.07270549999976,502.1039013999998,499.22073569999975,499.22073569999975,499.22073569999975,499.22073569999975,,new_sceneIn_26.png,137,3.0,1.8524852999998984,,028,01,2024-12-03_16h32.47.748,Surprise recog test,2023.1.3,59.98411620597602,
137,0,137,0,,,,,,,,,,,,,,,,,,,,,,,,,,,,,,,,,,504.0445681000001,505.06239430000005,502.1039013999998,502.1039013999998,502.1039013999998,502.1039013999998,,new_fruit_36.png,138,4.0,1.9416017999992619,,028,01,2024-12-03_16h32.47.748,Surprise recog test,2023.1.3,59.98411620597602,
138,0,138,0,,,,,,,,,,,,,,,,,,,,,,,,,,,,,,,,,,507.3192743999998,508.3405537999997,505.06239430000005,505.06239430000005,505.06239430000005,505.06239430000005,,new_stationery_44.png,139,4.0,2.2520285000000513,,028,01,2024-12-03_16h32.47.748,Surprise recog test,2023.1.3,59.98411620597602,
139,0,139,0,,,,,,,,,,,,,,,,,,,,,,,,,,,,,,,,,,510.2266959999997,511.2351251,508.3405537999997,508.3405537999997,508.3405537999997,508.3405537999997,,old_sceneIn_3.png,140,4.0,1.8874868000002607,,028,01,2024-12-03_16h32.47.748,Surprise recog test,2023.1.3,59.98411620597602,
140,0,140,0,,,,,,,,,,,,,,,,,,,,,,,,,,,,,,,,,,513.4952557999995,514.5081088999996,511.2351251,511.2351251,511.2351251,511.2351251,,new_sceneOut_6.png,141,4.0,2.2566806000004362,,028,01,2024-12-03_16h32.47.748,Surprise recog test,2023.1.3,59.98411620597602,
141,0,141,0,,,,,,,,,,,,,,,,,,,,,,,,,,,,,,,,,,516.5161547999996,517.5373219000003,514.5081088999996,514.5081088999996,514.5081088999996,514.5081088999996,,new_sceneIn_29.png,142,5.0,2.0089518999993743,,028,01,2024-12-03_16h32.47.748,Surprise recog test,2023.1.3,59.98411620597602,
142,0,142,0,,,,,,,,,,,,,,,,,,,,,,,,,,,,,,,,,,519.6669030000003,520.6748000999996,517.5373219000003,517.5373219000003,517.5373219000003,517.5373219000003,,new_fruit_14.png,143,4.0,2.1283055000003515,,028,01,2024-12-03_16h32.47.748,Surprise recog test,2023.1.3,59.98411620597602,
143,0,143,0,,,,,,,,,,,,,,,,,,,,,,,,,,,,,,,,,,522.6477489999997,523.6678364999998,520.6748000999996,520.6748000999996,520.6748000999996,520.6748000999996,,new_stationery_29.png,144,4.0,1.970068700000411,,028,01,2024-12-03_16h32.47.748,Surprise recog test,2023.1.3,59.98411620597602,
144,0,144,0,,,,,,,,,,,,,,,,,,,,,,,,,,,,,,,,,,525.8322406999996,526.8594647,523.6678364999998,523.6678364999998,523.6678364999998,523.6678364999998,,new_fruit_31.png,145,3.0,2.165083699999741,,028,01,2024-12-03_16h32.47.748,Surprise recog test,2023.1.3,59.98411620597602,
145,0,145,0,,,,,,,,,,,,,,,,,,,,,,,,,,,,,,,,,,528.3759336000003,529.3996586000003,526.8594647,526.8594647,526.8594647,526.8594647,,old_fruit_45.png,146,1.0,1.5164496999996118,,028,01,2024-12-03_16h32.47.748,Surprise recog test,2023.1.3,59.98411620597602,
146,0,146,0,,,,,,,,,,,,,,,,,,,,,,,,,,,,,,,,,,531.3310701,,529.3996586000003,529.3996586000003,529.3996586000003,529.3996586000003,,old_sceneIn_9.png,147,1.0,1.9365852000000814,,028,01,2024-12-03_16h32.47.748,Surprise recog test,2023.1.3,59.98411620597602,
147,0,147,0,,,,,,,,,,,,,,,,,,,,,,,,,,,,,,,,,,535.6880762999999,536.7167057999995,532.3522433999997,532.3522433999997,532.3522433999997,532.3522433999997,,new_fruit_44.png,148,3.0,3.3307092999993984,,028,01,2024-12-03_16h32.47.748,Surprise recog test,2023.1.3,59.98411620597602,
148,0,148,0,,,,,,,,,,,,,,,,,,,,,,,,,,,,,,,,,,538.8083730999997,539.8375619999997,536.7167057999995,536.7167057999995,536.7167057999995,536.7167057999995,,old_fruit_13.png,149,1.0,2.0939257,,028,01,2024-12-03_16h32.47.748,Surprise recog test,2023.1.3,59.98411620597602,
149,0,149,0,,,,,,,,,,,,,,,,,,,,,,,,,,,,,,,,,,542.2386200000001,,539.8375619999997,539.8375619999997,539.8375619999997,539.8375619999997,,new_sceneOut_35.png,150,3.0,2.4012598999997863,,028,01,2024-12-03_16h32.47.748,Surprise recog test,2023.1.3,59.98411620597602,
150,0,150,0,,,,,,,,,,,,,,,,,,,,,,,,,,,,,,,,,,545.9314810999995,546.9606951999995,543.2596195999995,543.2596195999995,543.2596195999995,543.2596195999995,,new_stationery_40.png,151,3.0,2.667677299999923,,028,01,2024-12-03_16h32.47.748,Surprise recog test,2023.1.3,59.98411620597602,
151,0,151,0,,,,,,,,,,,,,,,,,,,,,,,,,,,,,,,,,,549.0746117999997,550.0892431000002,546.9606951999995,546.9606951999995,546.9606951999995,546.9606951999995,,old_sceneOut_2.png,152,3.0,2.1098285999996733,,028,01,2024-12-03_16h32.47.748,Surprise recog test,2023.1.3,59.98411620597602,
152,0,152,0,,,,,,,,,,,,,,,,,,,,,,,,,,,,,,,,,,552.4275239999997,553.4423858999999,550.0892431000002,550.0892431000002,550.0892431000002,550.0892431000002,,new_stationery_31.png,153,2.0,2.338654199999837,,028,01,2024-12-03_16h32.47.748,Surprise recog test,2023.1.3,59.98411620597602,
153,0,153,0,,,,,,,,,,,,,,,,,,,,,,,,,,,,,,,,,,555.5331281999997,,553.4423858999999,553.4423858999999,553.4423858999999,553.4423858999999,,new_stationery_37.png,154,3.0,2.087512699999934,,028,01,2024-12-03_16h32.47.748,Surprise recog test,2023.1.3,59.98411620597602,
154,0,154,0,,,,,,,,,,,,,,,,,,,,,,,,,,,,,,,,,,559.0741103,560.0896759999996,556.5539403000002,556.5539403000002,556.5539403000002,556.5539403000002,,new_sceneIn_31.png,155,4.0,2.5135433000004923,,028,01,2024-12-03_16h32.47.748,Surprise recog test,2023.1.3,59.98411620597602,
155,0,155,0,,,,,,,,,,,,,,,,,,,,,,,,,,,,,,,,,,561.6524527000001,562.6650342000003,560.0896759999996,560.0896759999996,560.0896759999996,560.0896759999996,,old_stationery_47.png,156,1.0,1.5576639999999315,,028,01,2024-12-03_16h32.47.748,Surprise recog test,2023.1.3,59.98411620597602,
156,0,156,0,,,,,,,,,,,,,,,,,,,,,,,,,,,,,,,,,,564.8585758999998,,562.6650342000003,562.6650342000003,562.6650342000003,562.6650342000003,,old_fruit_50.png,157,4.0,2.194724799999676,,028,01,2024-12-03_16h32.47.748,Surprise recog test,2023.1.3,59.98411620597602,
157,0,157,0,,,,,,,,,,,,,,,,,,,,,,,,,,,,,,,,,,567.3280444000002,568.3617019000003,565.8782386000003,565.8782386000003,565.8782386000003,565.8782386000003,,old_sceneIn_45.png,158,2.0,1.4450473999995666,,028,01,2024-12-03_16h32.47.748,Surprise recog test,2023.1.3,59.98411620597602,
158,0,158,0,,,,,,,,,,,,,,,,,,,,,,,,,,,,,,,,,,571.4590064000004,572.4783809,568.3617019000003,568.3617019000003,568.3617019000003,568.3617019000003,,new_stationery_3.png,159,4.0,3.1001758000002155,,028,01,2024-12-03_16h32.47.748,Surprise recog test,2023.1.3,59.98411620597602,
159,0,159,0,,,,,,,,,,,,,,,,,,,,,,,,,,,,,,,,,,574.6152185000001,,572.4783809,572.4783809,572.4783809,572.4783809,,old_sceneOut_25.png,160,3.0,2.138238800000181,,028,01,2024-12-03_16h32.47.748,Surprise recog test,2023.1.3,59.98411620597602,
160,0,160,0,,,,,,,,,,,,,,,,,,,,,,,,,,,,,,,,,,577.2264217000002,578.2522278999995,575.6409225999996,575.6409225999996,575.6409225999996,575.6409225999996,,old_stationery_43.png,161,2.0,1.5856489999996484,,028,01,2024-12-03_16h32.47.748,Surprise recog test,2023.1.3,59.98411620597602,
161,0,161,0,,,,,,,,,,,,,,,,,,,,,,,,,,,,,,,,,,580.8695552999998,581.8817219000002,578.2522278999995,578.2522278999995,578.2522278999995,578.2522278999995,,new_sceneIn_22.png,162,3.0,2.6176007000003665,,028,01,2024-12-03_16h32.47.748,Surprise recog test,2023.1.3,59.98411620597602,
162,0,162,0,,,,,,,,,,,,,,,,,,,,,,,,,,,,,,,,,,583.7227174999998,,581.8817219000002,581.8817219000002,581.8817219000002,581.8817219000002,,new_stationery_26.png,163,5.0,1.8394152000000759,,028,01,2024-12-03_16h32.47.748,Surprise recog test,2023.1.3,59.98411620597602,
163,0,163,0,,,,,,,,,,,,,,,,,,,,,,,,,,,,,,,,,,586.3148806999998,587.3395279999995,584.7478283999999,584.7478283999999,584.7478283999999,584.7478283999999,,new_sceneOut_18.png,164,5.0,1.5633061999997153,,028,01,2024-12-03_16h32.47.748,Surprise recog test,2023.1.3,59.98411620597602,
164,0,164,0,,,,,,,,,,,,,,,,,,,,,,,,,,,,,,,,,,588.9782011999996,,587.3395279999995,587.3395279999995,587.3395279999995,587.3395279999995,,old_stationery_22.png,165,1.0,1.6394172000000253,,028,01,2024-12-03_16h32.47.748,Surprise recog test,2023.1.3,59.98411620597602,
165,0,165,0,,,,,,,,,,,,,,,,,,,,,,,,,,,,,,,,,,592.0768201999999,593.0919682000003,590.0152978999995,590.0152978999995,590.0152978999995,590.0152978999995,,new_sceneIn_47.png,166,4.0,2.0641991000002236,,028,01,2024-12-03_16h32.47.748,Surprise recog test,2023.1.3,59.98411620597602,
166,0,166,0,,,,,,,,,,,,,,,,,,,,,,,,,,,,,,,,,,595.0893636999999,596.1159545,593.0919682000003,593.0919682000003,593.0919682000003,593.0919682000003,,new_fruit_40.png,167,4.0,1.9984632999994574,,028,01,2024-12-03_16h32.47.748,Surprise recog test,2023.1.3,59.98411620597602,
167,0,167,0,,,,,,,,,,,,,,,,,,,,,,,,,,,,,,,,,,598.4062100000001,599.4342121,596.1159545,596.1159545,596.1159545,596.1159545,,old_fruit_31.png,168,2.0,2.2923911999996562,,028,01,2024-12-03_16h32.47.748,Surprise recog test,2023.1.3,59.98411620597602,
168,0,168,0,,,,,,,,,,,,,,,,,,,,,,,,,,,,,,,,,,601.7027222999996,602.7173737000003,599.4342121,599.4342121,599.4342121,599.4342121,,new_sceneOut_11.png,169,5.0,2.270535999999993,,028,01,2024-12-03_16h32.47.748,Surprise recog test,2023.1.3,59.98411620597602,
169,0,169,0,,,,,,,,,,,,,,,,,,,,,,,,,,,,,,,,,,604.2561385999998,,602.7173737000003,602.7173737000003,602.7173737000003,602.7173737000003,,new_sceneIn_11.png,170,5.0,1.5405978999997387,,028,01,2024-12-03_16h32.47.748,Surprise recog test,2023.1.3,59.98411620597602,
170,0,170,0,,,,,,,,,,,,,,,,,,,,,,,,,,,,,,,,,,607.4443238000003,,605.2775328999996,605.2775328999996,605.2775328999996,605.2775328999996,,old_stationery_33.png,171,1.0,2.1602711999994426,,028,01,2024-12-03_16h32.47.748,Surprise recog test,2023.1.3,59.98411620597602,
171,0,171,0,,,,,,,,,,,,,,,,,,,,,,,,,,,,,,,,,,610.8664208999999,611.8959955,608.4639533999998,608.4639533999998,608.4639533999998,608.4639533999998,,old_sceneOut_30.png,172,3.0,2.396190299999944,,028,01,2024-12-03_16h32.47.748,Surprise recog test,2023.1.3,59.98411620597602,
172,0,172,0,,,,,,,,,,,,,,,,,,,,,,,,,,,,,,,,,,613.5889231000001,614.6029872999998,611.8959955,611.8959955,611.8959955,611.8959955,,new_sceneIn_15.png,173,4.0,1.695366699999795,,028,01,2024-12-03_16h32.47.748,Surprise recog test,2023.1.3,59.98411620597602,
173,0,173,0,,,,,,,,,,,,,,,,,,,,,,,,,,,,,,,,,,616.8861197999995,617.9048358999999,614.6029872999998,614.6029872999998,614.6029872999998,614.6029872999998,,new_sceneOut_40.png,174,4.0,2.2790969999996378,,028,01,2024-12-03_16h32.47.748,Surprise recog test,2023.1.3,59.98411620597602,
174,0,174,0,,,,,,,,,,,,,,,,,,,,,,,,,,,,,,,,,,619.0951204000003,620.1070294000001,617.9048358999999,617.9048358999999,617.9048358999999,617.9048358999999,,new_stationery_30.png,175,1.0,1.1859777999998187,,028,01,2024-12-03_16h32.47.748,Surprise recog test,2023.1.3,59.98411620597602,
175,0,175,0,,,,,,,,,,,,,,,,,,,,,,,,,,,,,,,,,,622.3068375000003,,620.1070294000001,620.1070294000001,620.1070294000001,620.1070294000001,,old_sceneOut_7.png,176,2.0,2.1957178000002386,,028,01,2024-12-03_16h32.47.748,Surprise recog test,2023.1.3,59.98411620597602,
176,0,176,0,,,,,,,,,,,,,,,,,,,,,,,,,,,,,,,,,,625.0147459,626.0345859999998,623.3398612000001,623.3398612000001,623.3398612000001,623.3398612000001,,old_stationery_26.png,177,1.0,1.6744815000001836,,028,01,2024-12-03_16h32.47.748,Surprise recog test,2023.1.3,59.98411620597602,
177,0,177,0,,,,,,,,,,,,,,,,,,,,,,,,,,,,,,,,,,628.4678756000003,629.4821757,626.0345859999998,626.0345859999998,626.0345859999998,626.0345859999998,,new_sceneIn_42.png,178,5.0,2.4335021000006236,,028,01,2024-12-03_16h32.47.748,Surprise recog test,2023.1.3,59.98411620597602,
178,0,178,0,,,,,,,,,,,,,,,,,,,,,,,,,,,,,,,,,,630.9012149999999,631.9180409,629.4821757,629.4821757,629.4821757,629.4821757,,new_fruit_48.png,179,4.0,1.4140746000002764,,028,01,2024-12-03_16h32.47.748,Surprise recog test,2023.1.3,59.98411620597602,
179,0,179,0,,,,,,,,,,,,,,,,,,,,,,,,,,,,,,,,,,633.4868061999996,634.5110334000001,631.9180409,631.9180409,631.9180409,631.9180409,,new_sceneIn_36.png,180,5.0,1.5643414000005578,,028,01,2024-12-03_16h32.47.748,Surprise recog test,2023.1.3,59.98411620597602,
180,0,180,0,,,,,,,,,,,,,,,,,,,,,,,,,,,,,,,,,,637.8093958,638.837657,634.5110334000001,634.5110334000001,634.5110334000001,634.5110334000001,,new_sceneIn_19.png,181,2.0,3.2999592999995,,028,01,2024-12-03_16h32.47.748,Surprise recog test,2023.1.3,59.98411620597602,
181,0,181,0,,,,,,,,,,,,,,,,,,,,,,,,,,,,,,,,,,640.8468771999997,641.8774722999997,638.837657,638.837657,638.837657,638.837657,,old_fruit_14.png,182,2.0,2.0105040999997073,,028,01,2024-12-03_16h32.47.748,Surprise recog test,2023.1.3,59.98411620597602,
182,0,182,0,,,,,,,,,,,,,,,,,,,,,,,,,,,,,,,,,,643.3579529999997,644.3893759000002,641.8774722999997,641.8774722999997,641.8774722999997,641.8774722999997,,new_sceneIn_46.png,183,4.0,1.4849004999996396,,028,01,2024-12-03_16h32.47.748,Surprise recog test,2023.1.3,59.98411620597602,
183,0,183,0,,,,,,,,,,,,,,,,,,,,,,,,,,,,,,,,,,645.8962020999998,646.9127499999995,644.3893759000002,644.3893759000002,644.3893759000002,644.3893759000002,,new_sceneIn_32.png,184,5.0,1.5090376000007382,,028,01,2024-12-03_16h32.47.748,Surprise recog test,2023.1.3,59.98411620597602,
184,0,184,0,,,,,,,,,,,,,,,,,,,,,,,,,,,,,,,,,,648.4910067999999,649.5095671999998,646.9127499999995,646.9127499999995,646.9127499999995,646.9127499999995,,new_sceneIn_12.png,185,4.0,1.5745790999999372,,028,01,2024-12-03_16h32.47.748,Surprise recog test,2023.1.3,59.98411620597602,
185,0,185,0,,,,,,,,,,,,,,,,,,,,,,,,,,,,,,,,,,651.3667157,652.3913087999999,649.5095671999998,649.5095671999998,649.5095671999998,649.5095671999998,,new_fruit_33.png,186,4.0,1.8586586000001262,,028,01,2024-12-03_16h32.47.748,Surprise recog test,2023.1.3,59.98411620597602,
186,0,186,0,,,,,,,,,,,,,,,,,,,,,,,,,,,,,,,,,,654.8681666000002,655.8998271,652.3913087999999,652.3913087999999,652.3913087999999,652.3913087999999,,old_sceneIn_47.png,187,3.0,2.478229399999691,,028,01,2024-12-03_16h32.47.748,Surprise recog test,2023.1.3,59.98411620597602,
187,0,187,0,,,,,,,,,,,,,,,,,,,,,,,,,,,,,,,,,,657.8676675999995,,655.8998271,655.8998271,655.8998271,655.8998271,,old_sceneOut_14.png,188,1.0,1.9685388999996576,,028,01,2024-12-03_16h32.47.748,Surprise recog test,2023.1.3,59.98411620597602,
188,0,188,0,,,,,,,,,,,,,,,,,,,,,,,,,,,,,,,,,,660.7362900999997,,658.9002566999998,658.9002566999998,658.9002566999998,658.9002566999998,,new_sceneIn_7.png,189,4.0,1.8377016000004005,,028,01,2024-12-03_16h32.47.748,Surprise recog test,2023.1.3,59.98411620597602,
189,0,189,0,,,,,,,,,,,,,,,,,,,,,,,,,,,,,,,,,,663.4883013999997,,661.7665464000002,661.7665464000002,661.7665464000002,661.7665464000002,,new_stationery_18.png,190,1.0,1.7182953000001362,,028,01,2024-12-03_16h32.47.748,Surprise recog test,2023.1.3,59.98411620597602,
190,0,190,0,,,,,,,,,,,,,,,,,,,,,,,,,,,,,,,,,,666.5496143999999,667.5720196000002,664.5149697999996,664.5149697999996,664.5149697999996,664.5149697999996,,old_sceneOut_20.png,191,3.0,2.0343512999997984,,028,01,2024-12-03_16h32.47.748,Surprise recog test,2023.1.3,59.98411620597602,
191,0,191,0,,,,,,,,,,,,,,,,,,,,,,,,,,,,,,,,,,669.4482182000002,670.4628781000001,667.5720196000002,667.5720196000002,667.5720196000002,667.5720196000002,,new_fruit_30.png,192,3.0,1.8773873999998614,,028,01,2024-12-03_16h32.47.748,Surprise recog test,2023.1.3,59.98411620597602,
192,0,192,0,,,,,,,,,,,,,,,,,,,,,,,,,,,,,,,,,,671.8668693999998,672.8854005000003,670.4628781000001,670.4628781000001,670.4628781000001,670.4628781000001,,new_sceneIn_21.png,193,4.0,1.4003081999999267,,028,01,2024-12-03_16h32.47.748,Surprise recog test,2023.1.3,59.98411620597602,
193,0,193,0,,,,,,,,,,,,,,,,,,,,,,,,,,,,,,,,,,674.6652967999999,,672.8854005000003,672.8854005000003,672.8854005000003,672.8854005000003,,old_sceneOut_44.png,194,4.0,1.774085500000183,,028,01,2024-12-03_16h32.47.748,Surprise recog test,2023.1.3,59.98411620597602,
194,0,194,0,,,,,,,,,,,,,,,,,,,,,,,,,,,,,,,,,,677.5485499999995,678.5545339999999,675.6853771999995,675.6853771999995,675.6853771999995,675.6853771999995,,old_fruit_39.png,195,1.0,1.8590177999994921,,028,01,2024-12-03_16h32.47.748,Surprise recog test,2023.1.3,59.98411620597602,
195,0,195,0,,,,,,,,,,,,,,,,,,,,,,,,,,,,,,,,,,680.2375203000001,,678.5545339999999,678.5545339999999,678.5545339999999,678.5545339999999,,new_sceneIn_41.png,196,3.0,1.6790772000003926,,028,01,2024-12-03_16h32.47.748,Surprise recog test,2023.1.3,59.98411620597602,
196,0,196,0,,,,,,,,,,,,,,,,,,,,,,,,,,,,,,,,,,682.7825592999998,683.8073205000001,681.2621934999997,681.2621934999997,681.2621934999997,681.2621934999997,,old_sceneOut_40.png,197,4.0,1.5200095000000147,,028,01,2024-12-03_16h32.47.748,Surprise recog test,2023.1.3,59.98411620597602,
197,0,197,0,,,,,,,,,,,,,,,,,,,,,,,,,,,,,,,,,,684.9587633000001,685.9865177000001,683.8073205000001,683.8073205000001,683.8073205000001,683.8073205000001,,new_stationery_13.png,198,1.0,1.1542914999999994,,028,01,2024-12-03_16h32.47.748,Surprise recog test,2023.1.3,59.98411620597602,
198,0,198,0,,,,,,,,,,,,,,,,,,,,,,,,,,,,,,,,,,687.3060072999997,688.3286154999996,685.9865177000001,685.9865177000001,685.9865177000001,685.9865177000001,,old_stationery_18.png,199,1.0,1.318110400000478,,028,01,2024-12-03_16h32.47.748,Surprise recog test,2023.1.3,59.98411620597602,
199,0,199,0,,,,,,,,,,,,,,,,,,,,,,,,,,,,,,,,,,690.2084364000002,691.2300176999997,688.3286154999996,688.3286154999996,688.3286154999996,688.3286154999996,,new_fruit_27.png,200,3.0,1.8775294999995822,,028,01,2024-12-03_16h32.47.748,Surprise recog test,2023.1.3,59.98411620597602,
200,0,200,0,,,,,,,,,,,,,,,,,,,,,,,,,,,,,,,,,,693.0133581,,691.2300176999997,691.2300176999997,691.2300176999997,691.2300176999997,,new_stationery_8.png,201,5.0,1.786229800000001,,028,01,2024-12-03_16h32.47.748,Surprise recog test,2023.1.3,59.98411620597602,
201,0,201,0,,,,,,,,,,,,,,,,,,,,,,,,,,,,,,,,,,696.6346371,,694.0517827000003,694.0517827000003,694.0517827000003,694.0517827000003,,new_sceneOut_36.png,202,3.0,2.5846000999999887,,028,01,2024-12-03_16h32.47.748,Surprise recog test,2023.1.3,59.98411620597602,
202,0,202,0,,,,,,,,,,,,,,,,,,,,,,,,,,,,,,,,,,699.1490904000002,700.1626034999999,697.6665487,697.6665487,697.6665487,697.6665487,,new_fruit_39.png,203,2.0,1.4850063000003502,,028,01,2024-12-03_16h32.47.748,Surprise recog test,2023.1.3,59.98411620597602,
203,0,203,0,,,,,,,,,,,,,,,,,,,,,,,,,,,,,,,,,,701.7564642999996,702.7867139,700.1626034999999,700.1626034999999,700.1626034999999,700.1626034999999,,new_stationery_12.png,204,2.0,1.594210600000224,,028,01,2024-12-03_16h32.47.748,Surprise recog test,2023.1.3,59.98411620597602,
204,0,204,0,,,,,,,,,,,,,,,,,,,,,,,,,,,,,,,,,,704.9863478999996,705.9956670000001,702.7867139,702.7867139,702.7867139,702.7867139,,old_fruit_17.png,205,4.0,2.2008817000005365,,028,01,2024-12-03_16h32.47.748,Surprise recog test,2023.1.3,59.98411620597602,
205,0,205,0,,,,,,,,,,,,,,,,,,,,,,,,,,,,,,,,,,708.9633900999997,709.9924265999998,705.9956670000001,705.9956670000001,705.9956670000001,705.9956670000001,,new_sceneIn_35.png,206,4.0,2.9629898999992292,,028,01,2024-12-03_16h32.47.748,Surprise recog test,2023.1.3,59.98411620597602,
206,0,206,0,,,,,,,,,,,,,,,,,,,,,,,,,,,,,,,,,,711.9144196999996,,709.9924265999998,709.9924265999998,709.9924265999998,709.9924265999998,,old_sceneOut_11.png,207,3.0,1.9215902000005372,,028,01,2024-12-03_16h32.47.748,Surprise recog test,2023.1.3,59.98411620597602,
207,0,207,0,,,,,,,,,,,,,,,,,,,,,,,,,,,,,,,,,,715.4715595999996,716.4883443999997,712.9411554999997,712.9411554999997,712.9411554999997,712.9411554999997,,old_sceneOut_34.png,208,4.0,2.5279700000000958,,028,01,2024-12-03_16h32.47.748,Surprise recog test,2023.1.3,59.98411620597602,
208,0,208,0,,,,,,,,,,,,,,,,,,,,,,,,,,,,,,,,,,719.0768935999995,720.0916099999995,716.4883443999997,716.4883443999997,716.4883443999997,716.4883443999997,,old_sceneIn_7.png,209,4.0,2.582376500000464,,028,01,2024-12-03_16h32.47.748,Surprise recog test,2023.1.3,59.98411620597602,
209,0,209,0,,,,,,,,,,,,,,,,,,,,,,,,,,,,,,,,,,723.7103331999997,724.7331818000002,720.0916099999995,720.0916099999995,720.0916099999995,720.0916099999995,,old_stationery_30.png,210,1.0,3.613908000000265,,028,01,2024-12-03_16h32.47.748,Surprise recog test,2023.1.3,59.98411620597602,
210,0,210,0,,,,,,,,,,,,,,,,,,,,,,,,,,,,,,,,,,726.3601546,727.3783549999998,724.7331818000002,724.7331818000002,724.7331818000002,724.7331818000002,,new_sceneOut_26.png,211,3.0,1.6280263000007835,,028,01,2024-12-03_16h32.47.748,Surprise recog test,2023.1.3,59.98411620597602,
211,0,211,0,,,,,,,,,,,,,,,,,,,,,,,,,,,,,,,,,,729.3174921999998,730.3389900000002,727.3783549999998,727.3783549999998,727.3783549999998,727.3783549999998,,old_fruit_28.png,212,2.0,1.936276899999939,,028,01,2024-12-03_16h32.47.748,Surprise recog test,2023.1.3,59.98411620597602,
212,0,212,0,,,,,,,,,,,,,,,,,,,,,,,,,,,,,,,,,,732.8534933000001,733.8762088000003,730.3389900000002,730.3389900000002,730.3389900000002,730.3389900000002,,old_sceneOut_23.png,213,4.0,2.515659400000004,,028,01,2024-12-03_16h32.47.748,Surprise recog test,2023.1.3,59.98411620597602,
213,0,213,0,,,,,,,,,,,,,,,,,,,,,,,,,,,,,,,,,,735.4359222000003,736.4529279999997,733.8762088000003,733.8762088000003,733.8762088000003,733.8762088000003,,new_sceneIn_8.png,214,4.0,1.5614959000004092,,028,01,2024-12-03_16h32.47.748,Surprise recog test,2023.1.3,59.98411620597602,
214,0,214,0,,,,,,,,,,,,,,,,,,,,,,,,,,,,,,,,,,738.4454674999997,739.4617926999999,736.4529279999997,736.4529279999997,736.4529279999997,736.4529279999997,,new_stationery_49.png,215,1.0,1.9863578000004054,,028,01,2024-12-03_16h32.47.748,Surprise recog test,2023.1.3,59.98411620597602,
215,0,215,0,,,,,,,,,,,,,,,,,,,,,,,,,,,,,,,,,,741.3597331000001,742.3753074999995,739.4617926999999,739.4617926999999,739.4617926999999,739.4617926999999,,new_fruit_20.png,216,3.0,1.8971769999998287,,028,01,2024-12-03_16h32.47.748,Surprise recog test,2023.1.3,59.98411620597602,
216,0,216,0,,,,,,,,,,,,,,,,,,,,,,,,,,,,,,,,,,744.0751689999997,745.0951599,742.3753074999995,742.3753074999995,742.3753074999995,742.3753074999995,,old_stationery_9.png,217,1.0,1.6942753000002995,,028,01,2024-12-03_16h32.47.748,Surprise recog test,2023.1.3,59.98411620597602,
217,0,217,0,,,,,,,,,,,,,,,,,,,,,,,,,,,,,,,,,,749.0537809999996,750.0679275000002,745.0951599,745.0951599,745.0951599,745.0951599,,old_sceneIn_46.png,218,4.0,3.9517509999996037,,028,01,2024-12-03_16h32.47.748,Surprise recog test,2023.1.3,59.98411620597602,
218,0,218,0,,,,,,,,,,,,,,,,,,,,,,,,,,,,,,,,,,752.1280336,753.1345420999996,750.0679275000002,750.0679275000002,750.0679275000002,750.0679275000002,,old_sceneIn_19.png,219,3.0,2.0559838999997737,,028,01,2024-12-03_16h32.47.748,Surprise recog test,2023.1.3,59.98411620597602,
219,0,219,0,,,,,,,,,,,,,,,,,,,,,,,,,,,,,,,,,,754.8663374999996,,753.1345420999996,753.1345420999996,753.1345420999996,753.1345420999996,,old_sceneIn_6.png,220,3.0,1.7278771000001143,,028,01,2024-12-03_16h32.47.748,Surprise recog test,2023.1.3,59.98411620597602,
220,0,220,0,,,,,,,,,,,,,,,,,,,,,,,,,,,,,,,,,,757.6368303999998,758.6688136000002,755.8992110999998,755.8992110999998,755.8992110999998,755.8992110999998,,old_sceneOut_9.png,221,4.0,1.7387642000003325,,028,01,2024-12-03_16h32.47.748,Surprise recog test,2023.1.3,59.98411620597602,
221,0,221,0,,,,,,,,,,,,,,,,,,,,,,,,,,,,,,,,,,760.1664647999996,761.1874583999997,758.6688136000002,758.6688136000002,758.6688136000002,758.6688136000002,,new_stationery_5.png,222,5.0,1.4946115000002465,,028,01,2024-12-03_16h32.47.748,Surprise recog test,2023.1.3,59.98411620597602,
222,0,222,0,,,,,,,,,,,,,,,,,,,,,,,,,,,,,,,,,,763.4011921000001,764.4145803000001,761.1874583999997,761.1874583999997,761.1874583999997,761.1874583999997,,new_sceneIn_2.png,223,4.0,2.2149311000002854,,028,01,2024-12-03_16h32.47.748,Surprise recog test,2023.1.3,59.98411620597602,
223,0,223,0,,,,,,,,,,,,,,,,,,,,,,,,,,,,,,,,,,766.4256061999995,,764.4145803000001,764.4145803000001,764.4145803000001,764.4145803000001,,old_stationery_20.png,224,2.0,2.010892799999965,,028,01,2024-12-03_16h32.47.748,Surprise recog test,2023.1.3,59.98411620597602,
224,0,224,0,,,,,,,,,,,,,,,,,,,,,,,,,,,,,,,,,,769.8511411999998,770.8762451000002,767.4556323999996,767.4556323999996,767.4556323999996,767.4556323999996,,new_sceneOut_22.png,225,4.0,2.3976620000003095,,028,01,2024-12-03_16h32.47.748,Surprise recog test,2023.1.3,59.98411620597602,
225,0,225,0,,,,,,,,,,,,,,,,,,,,,,,,,,,,,,,,,,772.2306355000001,,770.8762451000002,770.8762451000002,770.8762451000002,770.8762451000002,,new_sceneIn_34.png,226,4.0,1.3538135999997394,,028,01,2024-12-03_16h32.47.748,Surprise recog test,2023.1.3,59.98411620597602,
226,0,226,0,,,,,,,,,,,,,,,,,,,,,,,,,,,,,,,,,,774.9585599000002,775.9820717000002,773.2650007000002,773.2650007000002,773.2650007000002,773.2650007000002,,old_sceneOut_26.png,227,2.0,1.6986778000000413,,028,01,2024-12-03_16h32.47.748,Surprise recog test,2023.1.3,59.98411620597602,
227,0,227,0,,,,,,,,,,,,,,,,,,,,,,,,,,,,,,,,,,778.5938544999999,779.6172071999999,775.9820717000002,775.9820717000002,775.9820717000002,775.9820717000002,,new_sceneOut_39.png,228,2.0,2.6145044999993843,,028,01,2024-12-03_16h32.47.748,Surprise recog test,2023.1.3,59.98411620597602,
228,0,228,0,,,,,,,,,,,,,,,,,,,,,,,,,,,,,,,,,,781.1599393999995,782.1846218000001,779.6172071999999,779.6172071999999,779.6172071999999,779.6172071999999,,old_stationery_8.png,229,1.0,1.5447282000004634,,028,01,2024-12-03_16h32.47.748,Surprise recog test,2023.1.3,59.98411620597602,
229,0,229,0,,,,,,,,,,,,,,,,,,,,,,,,,,,,,,,,,,783.6347053,784.6419341000001,782.1846218000001,782.1846218000001,782.1846218000001,782.1846218000001,,new_sceneOut_44.png,230,4.0,1.4487186999995174,,028,01,2024-12-03_16h32.47.748,Surprise recog test,2023.1.3,59.98411620597602,
230,0,230,0,,,,,,,,,,,,,,,,,,,,,,,,,,,,,,,,,,786.5737529999997,,784.6419341000001,784.6419341000001,784.6419341000001,784.6419341000001,,old_fruit_21.png,231,2.0,1.9269031000003451,,028,01,2024-12-03_16h32.47.748,Surprise recog test,2023.1.3,59.98411620597602,
231,0,231,0,,,,,,,,,,,,,,,,,,,,,,,,,,,,,,,,,,788.7573143999998,789.7651757000003,787.6031873000002,787.6031873000002,787.6031873000002,787.6031873000002,,old_stationery_7.png,232,1.0,1.1544521000005261,,028,01,2024-12-03_16h32.47.748,Surprise recog test,2023.1.3,59.98411620597602,
232,0,232,0,,,,,,,,,,,,,,,,,,,,,,,,,,,,,,,,,,791.8040338000001,792.8269282000001,789.7651757000003,789.7651757000003,789.7651757000003,789.7651757000003,,new_sceneOut_42.png,233,4.0,2.0338001000000077,,028,01,2024-12-03_16h32.47.748,Surprise recog test,2023.1.3,59.98411620597602,
233,0,233,0,,,,,,,,,,,,,,,,,,,,,,,,,,,,,,,,,,794.7921971999995,795.7998287,792.8269282000001,792.8269282000001,792.8269282000001,792.8269282000001,,new_fruit_18.png,234,3.0,1.967385099999774,,028,01,2024-12-03_16h32.47.748,Surprise recog test,2023.1.3,59.98411620597602,
234,0,234,0,,,,,,,,,,,,,,,,,,,,,,,,,,,,,,,,,,797.2304330999996,798.2450227999998,795.7998287,795.7998287,795.7998287,795.7998287,,old_sceneOut_1.png,235,3.0,1.4198655999998664,,028,01,2024-12-03_16h32.47.748,Surprise recog test,2023.1.3,59.98411620597602,
235,0,235,0,,,,,,,,,,,,,,,,,,,,,,,,,,,,,,,,,,800.1399856999997,801.1694565999996,798.2450227999998,798.2450227999998,798.2450227999998,798.2450227999998,,old_sceneIn_29.png,236,3.0,1.8905962000008003,,028,01,2024-12-03_16h32.47.748,Surprise recog test,2023.1.3,59.98411620597602,
236,0,236,0,,,,,,,,,,,,,,,,,,,,,,,,,,,,,,,,,,802.7355160999996,803.7479377999998,801.1694565999996,801.1694565999996,801.1694565999996,801.1694565999996,,new_stationery_11.png,237,2.0,1.566710499999317,,028,01,2024-12-03_16h32.47.748,Surprise recog test,2023.1.3,59.98411620597602,
237,0,237,0,,,,,,,,,,,,,,,,,,,,,,,,,,,,,,,,,,805.5437024000003,806.5676668999995,803.7479377999998,803.7479377999998,803.7479377999998,803.7479377999998,,new_sceneOut_49.png,238,4.0,1.7963567999995576,,028,01,2024-12-03_16h32.47.748,Surprise recog test,2023.1.3,59.98411620597602,
238,0,238,0,,,,,,,,,,,,,,,,,,,,,,,,,,,,,,,,,,808.3498878,809.3622875000001,806.5676668999995,806.5676668999995,806.5676668999995,806.5676668999995,,new_stationery_46.png,239,5.0,1.7799838000000818,,028,01,2024-12-03_16h32.47.748,Surprise recog test,2023.1.3,59.98411620597602,
239,0,239,0,,,,,,,,,,,,,,,,,,,,,,,,,,,,,,,,,,811.8546391999998,812.8661376,809.3622875000001,809.3622875000001,809.3622875000001,809.3622875000001,,old_stationery_46.png,240,2.0,2.489036400000259,,028,01,2024-12-03_16h32.47.748,Surprise recog test,2023.1.3,59.98411620597602,
240,0,240,0,,,,,,,,,,,,,,,,,,,,,,,,,,,,,,,,,,814.4291961999998,815.4355227999995,812.8661376,812.8661376,812.8661376,812.8661376,,old_sceneIn_48.png,241,4.0,1.546391699999731,,028,01,2024-12-03_16h32.47.748,Surprise recog test,2023.1.3,59.98411620597602,
241,0,241,0,,,,,,,,,,,,,,,,,,,,,,,,,,,,,,,,,,818.5327951999998,819.5514158999995,815.4355227999995,815.4355227999995,815.4355227999995,815.4355227999995,,new_fruit_8.png,242,3.0,3.0922311999993326,,028,01,2024-12-03_16h32.47.748,Surprise recog test,2023.1.3,59.98411620597602,
242,0,242,0,,,,,,,,,,,,,,,,,,,,,,,,,,,,,,,,,,820.9101245000002,821.9322063999998,819.5514158999995,819.5514158999995,819.5514158999995,819.5514158999995,,new_sceneOut_47.png,243,4.0,1.360717399999885,,028,01,2024-12-03_16h32.47.748,Surprise recog test,2023.1.3,59.98411620597602,
243,0,243,0,,,,,,,,,,,,,,,,,,,,,,,,,,,,,,,,,,823.2477974000003,824.2595540000002,821.9322063999998,821.9322063999998,821.9322063999998,821.9322063999998,,new_fruit_47.png,244,4.0,1.315156399999978,,028,01,2024-12-03_16h32.47.748,Surprise recog test,2023.1.3,59.98411620597602,
244,0,244,0,,,,,,,,,,,,,,,,,,,,,,,,,,,,,,,,,,827.1567298,828.1638395,824.2595540000002,824.2595540000002,824.2595540000002,824.2595540000002,,new_stationery_34.png,245,3.0,2.894188999999642,,028,01,2024-12-03_16h32.47.748,Surprise recog test,2023.1.3,59.98411620597602,
245,0,245,0,,,,,,,,,,,,,,,,,,,,,,,,,,,,,,,,,,829.8005653999999,830.8157335999995,828.1638395,828.1638395,828.1638395,828.1638395,,new_stationery_15.png,246,1.0,1.6327363000000332,,028,01,2024-12-03_16h32.47.748,Surprise recog test,2023.1.3,59.98411620597602,
246,0,246,0,,,,,,,,,,,,,,,,,,,,,,,,,,,,,,,,,,833.2852597000001,834.3145819000001,830.8157335999995,830.8157335999995,830.8157335999995,830.8157335999995,,old_sceneIn_39.png,247,2.0,2.4636317000004055,,028,01,2024-12-03_16h32.47.748,Surprise recog test,2023.1.3,59.98411620597602,
247,0,247,0,,,,,,,,,,,,,,,,,,,,,,,,,,,,,,,,,,835.6261294999995,836.6374115999997,834.3145819000001,834.3145819000001,834.3145819000001,834.3145819000001,,old_stationery_29.png,248,1.0,1.3137534999996205,,028,01,2024-12-03_16h32.47.748,Surprise recog test,2023.1.3,59.98411620597602,
248,0,248,0,,,,,,,,,,,,,,,,,,,,,,,,,,,,,,,,,,839.7707037,840.7992812000002,836.6374115999997,836.6374115999997,836.6374115999997,836.6374115999997,,new_sceneIn_18.png,249,4.0,3.1267707999995764,,028,01,2024-12-03_16h32.47.748,Surprise recog test,2023.1.3,59.98411620597602,
249,0,249,0,,,,,,,,,,,,,,,,,,,,,,,,,,,,,,,,,,842.2353597000001,843.2583373999996,840.7992812000002,840.7992812000002,840.7992812000002,840.7992812000002,,new_sceneIn_6.png,250,5.0,1.4319730999995954,,028,01,2024-12-03_16h32.47.748,Surprise recog test,2023.1.3,59.98411620597602,
250,0,250,0,,,,,,,,,,,,,,,,,,,,,,,,,,,,,,,,,,844.9713861999999,845.9904336999998,843.2583373999996,843.2583373999996,843.2583373999996,843.2583373999996,,old_sceneIn_49.png,251,5.0,1.7170467999994798,,028,01,2024-12-03_16h32.47.748,Surprise recog test,2023.1.3,59.98411620597602,
251,0,251,0,,,,,,,,,,,,,,,,,,,,,,,,,,,,,,,,,,847.6124094999996,848.6312719999996,845.9904336999998,845.9904336999998,845.9904336999998,845.9904336999998,,old_fruit_12.png,252,4.0,1.6236760000001595,,028,01,2024-12-03_16h32.47.748,Surprise recog test,2023.1.3,59.98411620597602,
252,0,252,0,,,,,,,,,,,,,,,,,,,,,,,,,,,,,,,,,,850.3477427999997,851.3720571000003,848.6312719999996,848.6312719999996,848.6312719999996,848.6312719999996,,new_sceneOut_19.png,253,4.0,1.7123287000003984,,028,01,2024-12-03_16h32.47.748,Surprise recog test,2023.1.3,59.98411620597602,
253,0,253,0,,,,,,,,,,,,,,,,,,,,,,,,,,,,,,,,,,852.8694804999996,853.8904868999998,851.3720571000003,851.3720571000003,851.3720571000003,851.3720571000003,,new_fruit_11.png,254,3.0,1.4984224999998332,,028,01,2024-12-03_16h32.47.748,Surprise recog test,2023.1.3,59.98411620597602,
254,0,254,0,,,,,,,,,,,,,,,,,,,,,,,,,,,,,,,,,,856.0044902,857.0288523999998,853.8904868999998,853.8904868999998,853.8904868999998,853.8904868999998,,new_sceneIn_3.png,255,2.0,2.1086639999994077,,028,01,2024-12-03_16h32.47.748,Surprise recog test,2023.1.3,59.98411620597602,
255,0,255,0,,,,,,,,,,,,,,,,,,,,,,,,,,,,,,,,,,858.4894853999995,859.5035182000001,857.0288523999998,857.0288523999998,857.0288523999998,857.0288523999998,,new_fruit_17.png,256,1.0,1.4613940999997794,,028,01,2024-12-03_16h32.47.748,Surprise recog test,2023.1.3,59.98411620597602,
256,0,256,0,,,,,,,,,,,,,,,,,,,,,,,,,,,,,,,,,,861.1836559000003,862.1890328,859.5035182000001,859.5035182000001,859.5035182000001,859.5035182000001,,new_stationery_1.png,257,3.0,1.6701427999996667,,028,01,2024-12-03_16h32.47.748,Surprise recog test,2023.1.3,59.98411620597602,
257,0,257,0,,,,,,,,,,,,,,,,,,,,,,,,,,,,,,,,,,863.8217965000003,,862.1890328,862.1890328,862.1890328,862.1890328,,new_stationery_6.png,258,5.0,1.6294198000005053,,028,01,2024-12-03_16h32.47.748,Surprise recog test,2023.1.3,59.98411620597602,
258,0,258,0,,,,,,,,,,,,,,,,,,,,,,,,,,,,,,,,,,867.0550936999998,868.0759159999998,864.8409732999999,864.8409732999999,864.8409732999999,864.8409732999999,,old_sceneOut_46.png,259,3.0,2.204797899999903,,028,01,2024-12-03_16h32.47.748,Surprise recog test,2023.1.3,59.98411620597602,
259,0,259,0,,,,,,,,,,,,,,,,,,,,,,,,,,,,,,,,,,870.1329026000003,871.1602026999999,868.0759159999998,868.0759159999998,868.0759159999998,868.0759159999998,,old_fruit_46.png,260,3.0,2.06043740000041,,028,01,2024-12-03_16h32.47.748,Surprise recog test,2023.1.3,59.98411620597602,
260,0,260,0,,,,,,,,,,,,,,,,,,,,,,,,,,,,,,,,,,872.9298791000001,,871.1602026999999,871.1602026999999,871.1602026999999,871.1602026999999,,old_stationery_19.png,261,1.0,1.771740399999544,,028,01,2024-12-03_16h32.47.748,Surprise recog test,2023.1.3,59.98411620597602,
261,0,261,0,,,,,,,,,,,,,,,,,,,,,,,,,,,,,,,,,,875.2440157999999,876.2582235,873.9610055000003,873.9610055000003,873.9610055000003,873.9610055000003,,old_stationery_14.png,262,1.0,1.2843788000000131,,028,01,2024-12-03_16h32.47.748,Surprise recog test,2023.1.3,59.98411620597602,
262,0,262,0,,,,,,,,,,,,,,,,,,,,,,,,,,,,,,,,,,878.6246775,879.6367567999996,876.2582235,876.2582235,876.2582235,876.2582235,,old_sceneOut_10.png,263,4.0,2.36648839999998,,028,01,2024-12-03_16h32.47.748,Surprise recog test,2023.1.3,59.98411620597602,
263,0,263,0,,,,,,,,,,,,,,,,,,,,,,,,,,,,,,,,,,881.2529323999997,,879.6367567999996,879.6367567999996,879.6367567999996,879.6367567999996,,new_sceneIn_45.png,264,4.0,1.6126773000005414,,028,01,2024-12-03_16h32.47.748,Surprise recog test,2023.1.3,59.98411620597602,
264,0,264,0,,,,,,,,,,,,,,,,,,,,,,,,,,,,,,,,,,884.0593595,885.0826294999997,882.2837718999999,882.2837718999999,882.2837718999999,882.2837718999999,,old_fruit_11.png,265,1.0,1.7785194999996747,,028,01,2024-12-03_16h32.47.748,Surprise recog test,2023.1.3,59.98411620597602,
265,0,265,0,,,,,,,,,,,,,,,,,,,,,,,,,,,,,,,,,,887.5878219999995,888.5979122999997,885.0826294999997,885.0826294999997,885.0826294999997,885.0826294999997,,new_sceneIn_4.png,266,5.0,2.5007525999999416,,028,01,2024-12-03_16h32.47.748,Surprise recog test,2023.1.3,59.98411620597602,
266,0,266,0,,,,,,,,,,,,,,,,,,,,,,,,,,,,,,,,,,890.0525713999996,891.0769791000002,888.5979122999997,888.5979122999997,888.5979122999997,888.5979122999997,,old_sceneIn_34.png,267,4.0,1.4496926000001622,,028,01,2024-12-03_16h32.47.748,Surprise recog test,2023.1.3,59.98411620597602,
267,0,267,0,,,,,,,,,,,,,,,,,,,,,,,,,,,,,,,,,,892.7033206999995,893.7270994,891.0769791000002,891.0769791000002,891.0769791000002,891.0769791000002,,new_sceneIn_33.png,268,4.0,1.626000300000669,,028,01,2024-12-03_16h32.47.748,Surprise recog test,2023.1.3,59.98411620597602,
268,0,268,0,,,,,,,,,,,,,,,,,,,,,,,,,,,,,,,,,,895.8445297999997,896.8532325999995,893.7270994,893.7270994,893.7270994,893.7270994,,old_stationery_44.png,269,2.0,2.1182165999998688,,028,01,2024-12-03_16h32.47.748,Surprise recog test,2023.1.3,59.98411620597602,
269,0,269,0,,,,,,,,,,,,,,,,,,,,,,,,,,,,,,,,,,898.5646260000003,899.5811481000001,896.8532325999995,896.8532325999995,896.8532325999995,896.8532325999995,,new_sceneIn_14.png,270,5.0,1.7010145000003831,,028,01,2024-12-03_16h32.47.748,Surprise recog test,2023.1.3,59.98411620597602,
270,0,270,0,,,,,,,,,,,,,,,,,,,,,,,,,,,,,,,,,,900.8459620000003,901.8685391999998,899.5811481000001,899.5811481000001,899.5811481000001,899.5811481000001,,new_stationery_35.png,271,1.0,1.2662055000000692,,028,01,2024-12-03_16h32.47.748,Surprise recog test,2023.1.3,59.98411620597602,
271,0,271,0,,,,,,,,,,,,,,,,,,,,,,,,,,,,,,,,,,903.8723386000001,,901.8685391999998,901.8685391999998,901.8685391999998,901.8685391999998,,new_stationery_16.png,272,2.0,2.0047709000000395,,028,01,2024-12-03_16h32.47.748,Surprise recog test,2023.1.3,59.98411620597602,
272,0,272,0,,,,,,,,,,,,,,,,,,,,,,,,,,,,,,,,,,906.6423796999998,,904.8920883000001,904.8920883000001,904.8920883000001,904.8920883000001,,old_sceneIn_43.png,273,5.0,1.745606399999815,,028,01,2024-12-03_16h32.47.748,Surprise recog test,2023.1.3,59.98411620597602,
273,0,273,0,,,,,,,,,,,,,,,,,,,,,,,,,,,,,,,,,,909.4731253,910.4946988000002,907.6724416999996,907.6724416999996,907.6724416999996,907.6724416999996,,new_fruit_34.png,274,1.0,1.7989240999995673,,028,01,2024-12-03_16h32.47.748,Surprise recog test,2023.1.3,59.98411620597602,
274,0,274,0,,,,,,,,,,,,,,,,,,,,,,,,,,,,,,,,,,911.9169276000002,912.9455085999998,910.4946988000002,910.4946988000002,910.4946988000002,910.4946988000002,,old_sceneIn_33.png,275,3.0,1.4241675000002942,,028,01,2024-12-03_16h32.47.748,Surprise recog test,2023.1.3,59.98411620597602,
275,0,275,0,,,,,,,,,,,,,,,,,,,,,,,,,,,,,,,,,,914.1864825000002,915.2084377000001,912.9455085999998,912.9455085999998,912.9455085999998,912.9455085999998,,old_stationery_24.png,276,1.0,1.2418023000000176,,028,01,2024-12-03_16h32.47.748,Surprise recog test,2023.1.3,59.98411620597602,
276,0,276,0,,,,,,,,,,,,,,,,,,,,,,,,,,,,,,,,,,917.0799859999997,918.1039263000002,915.2084377000001,915.2084377000001,915.2084377000001,915.2084377000001,,new_fruit_32.png,277,4.0,1.8676833999998053,,028,01,2024-12-03_16h32.47.748,Surprise recog test,2023.1.3,59.98411620597602,
277,0,277,0,,,,,,,,,,,,,,,,,,,,,,,,,,,,,,,,,,920.1123410999999,921.1291141000002,918.1039263000002,918.1039263000002,918.1039263000002,918.1039263000002,,new_stationery_20.png,278,5.0,2.0092328000000634,,028,01,2024-12-03_16h32.47.748,Surprise recog test,2023.1.3,59.98411620597602,
278,0,278,0,,,,,,,,,,,,,,,,,,,,,,,,,,,,,,,,,,922.7928757,923.8089858000003,921.1291141000002,921.1291141000002,921.1291141000002,921.1291141000002,,new_sceneIn_1.png,279,5.0,1.6644199000002118,,028,01,2024-12-03_16h32.47.748,Surprise recog test,2023.1.3,59.98411620597602,
279,0,279,0,,,,,,,,,,,,,,,,,,,,,,,,,,,,,,,,,,925.7445460999998,926.7697225000002,923.8089858000003,923.8089858000003,923.8089858000003,923.8089858000003,,new_stationery_42.png,280,5.0,1.9306054999997286,,028,01,2024-12-03_16h32.47.748,Surprise recog test,2023.1.3,59.98411620597602,
280,0,280,0,,,,,,,,,,,,,,,,,,,,,,,,,,,,,,,,,,928.6858953999999,929.6947856999996,926.7697225000002,926.7697225000002,926.7697225000002,926.7697225000002,,old_sceneOut_3.png,281,4.0,1.9186794999995982,,028,01,2024-12-03_16h32.47.748,Surprise recog test,2023.1.3,59.98411620597602,
281,0,281,0,,,,,,,,,,,,,,,,,,,,,,,,,,,,,,,,,,931.5420035999996,932.5605991000002,929.6947856999996,929.6947856999996,929.6947856999996,929.6947856999996,,new_stationery_24.png,282,3.0,1.8397356999994372,,028,01,2024-12-03_16h32.47.748,Surprise recog test,2023.1.3,59.98411620597602,
282,0,282,0,,,,,,,,,,,,,,,,,,,,,,,,,,,,,,,,,,934.0414254999996,935.0501310999998,932.5605991000002,932.5605991000002,932.5605991000002,932.5605991000002,,old_stationery_1.png,283,4.0,1.4824910999996064,,028,01,2024-12-03_16h32.47.748,Surprise recog test,2023.1.3,59.98411620597602,
283,0,283,0,,,,,,,,,,,,,,,,,,,,,,,,,,,,,,,,,,937.2800555000003,938.2966208999997,935.0501310999998,935.0501310999998,935.0501310999998,935.0501310999998,,old_sceneOut_5.png,284,3.0,2.225081399999908,,028,01,2024-12-03_16h32.47.748,Surprise recog test,2023.1.3,59.98411620597602,
284,0,284,0,,,,,,,,,,,,,,,,,,,,,,,,,,,,,,,,,,939.7432416000001,940.7568518999997,938.2966208999997,938.2966208999997,938.2966208999997,938.2966208999997,,new_sceneOut_48.png,285,4.0,1.4476156000000628,,028,01,2024-12-03_16h32.47.748,Surprise recog test,2023.1.3,59.98411620597602,
285,0,285,0,,,,,,,,,,,,,,,,,,,,,,,,,,,,,,,,,,942.1914810999997,943.2150738,940.7568518999997,940.7568518999997,940.7568518999997,940.7568518999997,,old_sceneIn_30.png,286,5.0,1.4299063999997088,,028,01,2024-12-03_16h32.47.748,Surprise recog test,2023.1.3,59.98411620597602,
286,0,286,0,,,,,,,,,,,,,,,,,,,,,,,,,,,,,,,,,,945.1740946999998,,943.2150738,943.2150738,943.2150738,943.2150738,,old_sceneIn_23.png,287,5.0,1.9592021999997087,,028,01,2024-12-03_16h32.47.748,Surprise recog test,2023.1.3,59.98411620597602,
287,0,287,0,,,,,,,,,,,,,,,,,,,,,,,,,,,,,,,,,,948.8752912999998,,946.1988726,946.1988726,946.1988726,946.1988726,,new_sceneIn_48.png,288,4.0,2.67699839999932,,028,01,2024-12-03_16h32.47.748,Surprise recog test,2023.1.3,59.98411620597602,
288,0,288,0,,,,,,,,,,,,,,,,,,,,,,,,,,,,,,,,,,951.5133366999999,,949.9134143000001,949.9134143000001,949.9134143000001,949.9134143000001,,new_sceneOut_13.png,289,5.0,1.6041777999998885,,028,01,2024-12-03_16h32.47.748,Surprise recog test,2023.1.3,59.98411620597602,
289,0,289,0,,,,,,,,,,,,,,,,,,,,,,,,,,,,,,,,,,955.1679066999995,956.1916965,952.5324791000003,952.5324791000003,952.5324791000003,952.5324791000003,,new_fruit_29.png,290,3.0,2.6301232000005257,,028,01,2024-12-03_16h32.47.748,Surprise recog test,2023.1.3,59.98411620597602,
290,0,290,0,,,,,,,,,,,,,,,,,,,,,,,,,,,,,,,,,,957.8481148000001,958.8566652999998,956.1916965,956.1916965,956.1916965,956.1916965,,old_stationery_15.png,291,2.0,1.6526614000003974,,028,01,2024-12-03_16h32.47.748,Surprise recog test,2023.1.3,59.98411620597602,
291,0,291,0,,,,,,,,,,,,,,,,,,,,,,,,,,,,,,,,,,960.9183857999997,,958.8566652999998,958.8566652999998,958.8566652999998,958.8566652999998,,new_sceneOut_21.png,292,2.0,2.057579500000429,,028,01,2024-12-03_16h32.47.748,Surprise recog test,2023.1.3,59.98411620597602,
292,0,292,0,,,,,,,,,,,,,,,,,,,,,,,,,,,,,,,,,,963.3034237000002,964.3081019000001,961.9527038999995,961.9527038999995,961.9527038999995,961.9527038999995,,old_sceneOut_22.png,293,4.0,1.3533567999993465,,028,01,2024-12-03_16h32.47.748,Surprise recog test,2023.1.3,59.98411620597602,
293,0,293,0,,,,,,,,,,,,,,,,,,,,,,,,,,,,,,,,,,966.3374488999998,967.3420231,964.3081019000001,964.3081019000001,964.3081019000001,964.3081019000001,,new_stationery_10.png,294,3.0,2.0201908999997613,,028,01,2024-12-03_16h32.47.748,Surprise recog test,2023.1.3,59.98411620597602,
294,0,294,0,,,,,,,,,,,,,,,,,,,,,,,,,,,,,,,,,,969.4366094999996,970.4449364000002,967.3420231,967.3420231,967.3420231,967.3420231,,new_sceneOut_3.png,295,3.0,2.09050759999991,,028,01,2024-12-03_16h32.47.748,Surprise recog test,2023.1.3,59.98411620597602,
295,0,295,0,,,,,,,,,,,,,,,,,,,,,,,,,,,,,,,,,,972.1658127999999,973.1875641999995,970.4449364000002,970.4449364000002,970.4449364000002,970.4449364000002,,old_fruit_47.png,296,1.0,1.7178664000002755,,028,01,2024-12-03_16h32.47.748,Surprise recog test,2023.1.3,59.98411620597602,
296,0,296,0,,,,,,,,,,,,,,,,,,,,,,,,,,,,,,,,,,974.9799469,975.9872023999997,973.1875641999995,973.1875641999995,973.1875641999995,973.1875641999995,,new_stationery_47.png,297,4.0,1.7908672999992632,,028,01,2024-12-03_16h32.47.748,Surprise recog test,2023.1.3,59.98411620597602,
297,0,297,0,,,,,,,,,,,,,,,,,,,,,,,,,,,,,,,,,,979.3087119000002,980.3341978999997,975.9872023999997,975.9872023999997,975.9872023999997,975.9872023999997,,new_sceneOut_9.png,298,3.0,3.317710399999669,,028,01,2024-12-03_16h32.47.748,Surprise recog test,2023.1.3,59.98411620597602,
298,0,298,0,,,,,,,,,,,,,,,,,,,,,,,,,,,,,,,,,,982.2241676000003,983.2419675000001,980.3341978999997,980.3341978999997,980.3341978999997,980.3341978999997,,old_stationery_11.png,299,4.0,1.8914701000003333,,028,01,2024-12-03_16h32.47.748,Surprise recog test,2023.1.3,59.98411620597602,
299,0,299,0,,,,,,,,,,,,,,,,,,,,,,,,,,,,,,,,,,984.8295373000001,985.8560699,983.2419675000001,983.2419675000001,983.2419675000001,983.2419675000001,,old_fruit_49.png,300,3.0,1.5826432000003479,,028,01,2024-12-03_16h32.47.748,Surprise recog test,2023.1.3,59.98411620597602,
300,0,300,0,,,,,,,,,,,,,,,,,,,,,,,,,,,,,,,,,,987.1057002999996,988.1295660999995,985.8560699,985.8560699,985.8560699,985.8560699,,new_fruit_9.png,301,3.0,1.2502038000002358,,028,01,2024-12-03_16h32.47.748,Surprise recog test,2023.1.3,59.98411620597602,
301,0,301,0,,,,,,,,,,,,,,,,,,,,,,,,,,,,,,,,,,989.6194549000002,990.6430518999996,988.1295660999995,988.1295660999995,988.1295660999995,988.1295660999995,,new_sceneOut_5.png,302,4.0,1.4919770000005883,,028,01,2024-12-03_16h32.47.748,Surprise recog test,2023.1.3,59.98411620597602,
302,0,302,0,,,,,,,,,,,,,,,,,,,,,,,,,,,,,,,,,,992.0157019999997,993.0481484000002,990.6430518999996,990.6430518999996,990.6430518999996,990.6430518999996,,old_sceneOut_27.png,303,4.0,1.3744315000003553,,028,01,2024-12-03_16h32.47.748,Surprise recog test,2023.1.3,59.98411620597602,
303,0,303,0,,,,,,,,,,,,,,,,,,,,,,,,,,,,,,,,,,995.1901171999998,996.2156868000002,993.0481484000002,993.0481484000002,993.0481484000002,993.0481484000002,,new_sceneIn_39.png,304,2.0,2.1430976999999984,,028,01,2024-12-03_16h32.47.748,Surprise recog test,2023.1.3,59.98411620597602,
304,0,304,0,,,,,,,,,,,,,,,,,,,,,,,,,,,,,,,,,,997.6995605000002,,996.2156868000002,996.2156868000002,996.2156868000002,996.2156868000002,,new_stationery_50.png,305,4.0,1.4829053000003114,,028,01,2024-12-03_16h32.47.748,Surprise recog test,2023.1.3,59.98411620597602,
305,0,305,0,,,,,,,,,,,,,,,,,,,,,,,,,,,,,,,,,,1000.6689375999995,,998.7203985999995,998.7203985999995,998.7203985999995,998.7203985999995,,old_fruit_7.png,306,3.0,1.9421983000002,,028,01,2024-12-03_16h32.47.748,Surprise recog test,2023.1.3,59.98411620597602,
306,0,306,0,,,,,,,,,,,,,,,,,,,,,,,,,,,,,,,,,,1004.4625570999997,1005.4873999000001,1001.6996903999998,1001.6996903999998,1001.6996903999998,1001.6996903999998,,old_sceneIn_10.png,307,3.0,2.7617359999994733,,028,01,2024-12-03_16h32.47.748,Surprise recog test,2023.1.3,59.98411620597602,
307,0,307,0,,,,,,,,,,,,,,,,,,,,,,,,,,,,,,,,,,1006.6205455999998,1007.6430074999998,1005.4873999000001,1005.4873999000001,1005.4873999000001,1005.4873999000001,,old_sceneOut_29.png,308,4.0,1.1366475000004357,,028,01,2024-12-03_16h32.47.748,Surprise recog test,2023.1.3,59.98411620597602,
308,0,308,0,,,,,,,,,,,,,,,,,,,,,,,,,,,,,,,,,,1010.337743,1011.3608444000001,1007.6430074999998,1007.6430074999998,1007.6430074999998,1007.6430074999998,,new_sceneIn_5.png,309,3.0,2.6962824000002,,028,01,2024-12-03_16h32.47.748,Surprise recog test,2023.1.3,59.98411620597602,
309,0,309,0,,,,,,,,,,,,,,,,,,,,,,,,,,,,,,,,,,1012.4642579000001,1013.4899822999996,1011.3608444000001,1011.3608444000001,1011.3608444000001,1011.3608444000001,,new_fruit_25.png,310,3.0,1.105395700000372,,028,01,2024-12-03_16h32.47.748,Surprise recog test,2023.1.3,59.98411620597602,
310,0,310,0,,,,,,,,,,,,,,,,,,,,,,,,,,,,,,,,,,1015.3417094999995,1016.3541979000001,1013.4899822999996,1013.4899822999996,1013.4899822999996,1013.4899822999996,,new_fruit_22.png,311,4.0,1.8517814999995608,,028,01,2024-12-03_16h32.47.748,Surprise recog test,2023.1.3,59.98411620597602,
311,0,311,0,,,,,,,,,,,,,,,,,,,,,,,,,,,,,,,,,,1018.0137920999996,1019.0256755,1016.3541979000001,1016.3541979000001,1016.3541979000001,1016.3541979000001,,new_sceneIn_37.png,312,4.0,1.656195999999909,,028,01,2024-12-03_16h32.47.748,Surprise recog test,2023.1.3,59.98411620597602,
312,0,312,0,,,,,,,,,,,,,,,,,,,,,,,,,,,,,,,,,,1020.7733282999998,1021.7906914999994,1019.0256755,1019.0256755,1019.0256755,1019.0256755,,new_fruit_28.png,313,4.0,1.7479219000006196,,028,01,2024-12-03_16h32.47.748,Surprise recog test,2023.1.3,59.98411620597602,
313,0,313,0,,,,,,,,,,,,,,,,,,,,,,,,,,,,,,,,,,1024.1122263000007,1025.1375278000005,1021.7906914999994,1021.7906914999994,1021.7906914999994,1021.7906914999994,,new_fruit_38.png,314,3.0,2.3166321000007883,,028,01,2024-12-03_16h32.47.748,Surprise recog test,2023.1.3,59.98411620597602,
314,0,314,0,,,,,,,,,,,,,,,,,,,,,,,,,,,,,,,,,,1027.3455731000004,1028.3754763000006,1025.1375278000005,1025.1375278000005,1025.1375278000005,1025.1375278000005,,new_sceneIn_24.png,315,4.0,2.2100831999996444,,028,01,2024-12-03_16h32.47.748,Surprise recog test,2023.1.3,59.98411620597602,
315,0,315,0,,,,,,,,,,,,,,,,,,,,,,,,,,,,,,,,,,1030.2624637,1031.2829143000008,1028.3754763000006,1028.3754763000006,1028.3754763000006,1028.3754763000006,,old_sceneIn_41.png,316,1.0,1.8884555000004184,,028,01,2024-12-03_16h32.47.748,Surprise recog test,2023.1.3,59.98411620597602,
316,0,316,0,,,,,,,,,,,,,,,,,,,,,,,,,,,,,,,,,,1033.1521624000006,1034.1762143999995,1031.2829143000008,1031.2829143000008,1031.2829143000008,1031.2829143000008,,old_sceneIn_8.png,317,3.0,1.8655166999997164,,028,01,2024-12-03_16h32.47.748,Surprise recog test,2023.1.3,59.98411620597602,
317,0,317,0,,,,,,,,,,,,,,,,,,,,,,,,,,,,,,,,,,1035.8407063999994,1036.8669271000008,1034.1762143999995,1034.1762143999995,1034.1762143999995,1034.1762143999995,,new_sceneOut_45.png,318,4.0,1.6651314000009734,,028,01,2024-12-03_16h32.47.748,Surprise recog test,2023.1.3,59.98411620597602,
318,0,318,0,,,,,,,,,,,,,,,,,,,,,,,,,,,,,,,,,,1038.1609964999998,1039.1834160000008,1036.8669271000008,1036.8669271000008,1036.8669271000008,1036.8669271000008,,old_stationery_32.png,319,1.0,1.2967837000014697,,028,01,2024-12-03_16h32.47.748,Surprise recog test,2023.1.3,59.98411620597602,
319,0,319,0,,,,,,,,,,,,,,,,,,,,,,,,,,,,,,,,,,1040.8052710000002,1041.838552099999,1039.1834160000008,1039.1834160000008,1039.1834160000008,1039.1834160000008,,old_sceneOut_17.png,320,3.0,1.6240722999991704,,028,01,2024-12-03_16h32.47.748,Surprise recog test,2023.1.3,59.98411620597602,
320,0,320,0,,,,,,,,,,,,,,,,,,,,,,,,,,,,,,,,,,1042.9372400999991,,1041.838552099999,1041.838552099999,1041.838552099999,1041.838552099999,,old_stationery_48.png,321,1.0,1.1021244000003207,,028,01,2024-12-03_16h32.47.748,Surprise recog test,2023.1.3,59.98411620597602,
321,0,321,0,,,,,,,,,,,,,,,,,,,,,,,,,,,,,,,,,,1045.7561770000002,,1043.9673543,1043.9673543,1043.9673543,1043.9673543,,new_sceneOut_1.png,322,4.0,1.7888893999988795,,028,01,2024-12-03_16h32.47.748,Surprise recog test,2023.1.3,59.98411620597602,
322,0,322,0,,,,,,,,,,,,,,,,,,,,,,,,,,,,,,,,,,1048.7677802000007,1049.7830411999994,1046.7820634999998,1046.7820634999998,1046.7820634999998,1046.7820634999998,,new_sceneOut_17.png,323,5.0,1.985295300000871,,028,01,2024-12-03_16h32.47.748,Surprise recog test,2023.1.3,59.98411620597602,
323,0,323,0,,,,,,,,,,,,,,,,,,,,,,,,,,,,,,,,,,1051.1529725999999,1052.1780145000002,1049.7830411999994,1049.7830411999994,1049.7830411999994,1049.7830411999994,,new_stationery_14.png,324,1.0,1.3683358999987831,,028,01,2024-12-03_16h32.47.748,Surprise recog test,2023.1.3,59.98411620597602,
324,0,324,0,,,,,,,,,,,,,,,,,,,,,,,,,,,,,,,,,,1054.7940033999994,1055.8027923,1052.1780145000002,1052.1780145000002,1052.1780145000002,1052.1780145000002,,new_stationery_21.png,325,4.0,2.617572099999961,,028,01,2024-12-03_16h32.47.748,Surprise recog test,2023.1.3,59.98411620597602,
325,0,325,0,,,,,,,,,,,,,,,,,,,,,,,,,,,,,,,,,,1057.286235999999,1058.3174797000001,1055.8027923,1055.8027923,1055.8027923,1055.8027923,,old_fruit_10.png,326,3.0,1.4794720000008965,,028,01,2024-12-03_16h32.47.748,Surprise recog test,2023.1.3,59.98411620597602,
326,0,326,0,,,,,,,,,,,,,,,,,,,,,,,,,,,,,,,,,,1060.1820627000006,1061.2072562000003,1058.3174797000001,1058.3174797000001,1058.3174797000001,1058.3174797000001,,old_stationery_36.png,327,2.0,1.8630002999998396,,028,01,2024-12-03_16h32.47.748,Surprise recog test,2023.1.3,59.98411620597602,
327,0,327,0,,,,,,,,,,,,,,,,,,,,,,,,,,,,,,,,,,1062.9163192999995,1063.9356634000005,1061.2072562000003,1061.2072562000003,1061.2072562000003,1061.2072562000003,,old_fruit_32.png,328,2.0,1.7116917999992438,,028,01,2024-12-03_16h32.47.748,Surprise recog test,2023.1.3,59.98411620597602,
328,0,328,0,,,,,,,,,,,,,,,,,,,,,,,,,,,,,,,,,,1065.666988599999,1066.6836276000004,1063.9356634000005,1063.9356634000005,1063.9356634000005,1063.9356634000005,,old_stationery_23.png,329,1.0,1.733841900000698,,028,01,2024-12-03_16h32.47.748,Surprise recog test,2023.1.3,59.98411620597602,
329,0,329,0,,,,,,,,,,,,,,,,,,,,,,,,,,,,,,,,,,1068.300076299999,1069.3286660000003,1066.6836276000004,1066.6836276000004,1066.6836276000004,1066.6836276000004,,old_stationery_3.png,330,1.0,1.6164193000004161,,028,01,2024-12-03_16h32.47.748,Surprise recog test,2023.1.3,59.98411620597602,
330,0,330,0,,,,,,,,,,,,,,,,,,,,,,,,,,,,,,,,,,1070.7813665999993,1071.8097511000005,1069.3286660000003,1069.3286660000003,1069.3286660000003,1069.3286660000003,,old_stationery_49.png,331,1.0,1.4549471000009362,,028,01,2024-12-03_16h32.47.748,Surprise recog test,2023.1.3,59.98411620597602,
331,0,331,0,,,,,,,,,,,,,,,,,,,,,,,,,,,,,,,,,,1073.2602232,1074.2728433999991,1071.8097511000005,1071.8097511000005,1071.8097511000005,1071.8097511000005,,old_stationery_34.png,332,1.0,1.4527766999999585,,028,01,2024-12-03_16h32.47.748,Surprise recog test,2023.1.3,59.98411620597602,
332,0,332,0,,,,,,,,,,,,,,,,,,,,,,,,,,,,,,,,,,1076.3800008999997,1077.3864160000003,1074.2728433999991,1074.2728433999991,1074.2728433999991,1074.2728433999991,,old_sceneOut_24.png,333,4.0,2.107117700001254,,028,01,2024-12-03_16h32.47.748,Surprise recog test,2023.1.3,59.98411620597602,
333,0,333,0,,,,,,,,,,,,,,,,,,,,,,,,,,,,,,,,,,1079.115129499999,1080.1340917999996,1077.3864160000003,1077.3864160000003,1077.3864160000003,1077.3864160000003,,new_stationery_32.png,334,4.0,1.7223229999999603,,028,01,2024-12-03_16h32.47.748,Surprise recog test,2023.1.3,59.98411620597602,
334,0,334,0,,,,,,,,,,,,,,,,,,,,,,,,,,,,,,,,,,1081.4651449999992,1082.4868483,1080.1340917999996,1080.1340917999996,1080.1340917999996,1080.1340917999996,,new_sceneOut_7.png,335,3.0,1.3325048000006063,,028,01,2024-12-03_16h32.47.748,Surprise recog test,2023.1.3,59.98411620597602,
335,0,335,0,,,,,,,,,,,,,,,,,,,,,,,,,,,,,,,,,,1084.3187217000004,1085.331300499999,1082.4868483,1082.4868483,1082.4868483,1082.4868483,,old_sceneIn_20.png,336,4.0,1.8267952000005607,,028,01,2024-12-03_16h32.47.748,Surprise recog test,2023.1.3,59.98411620597602,
336,0,336,0,,,,,,,,,,,,,,,,,,,,,,,,,,,,,,,,,,1087.1272142000007,1088.1543291999997,1085.331300499999,1085.331300499999,1085.331300499999,1085.331300499999,,old_sceneIn_27.png,337,4.0,1.7963830000007874,,028,01,2024-12-03_16h32.47.748,Surprise recog test,2023.1.3,59.98411620597602,
337,0,337,0,,,,,,,,,,,,,,,,,,,,,,,,,,,,,,,,,,1090.2071807000002,1091.2221526000003,1088.1543291999997,1088.1543291999997,1088.1543291999997,1088.1543291999997,,new_fruit_16.png,338,2.0,2.046439800000371,,028,01,2024-12-03_16h32.47.748,Surprise recog test,2023.1.3,59.98411620597602,
338,0,338,0,,,,,,,,,,,,,,,,,,,,,,,,,,,,,,,,,,1092.7123143,,1091.2221526000003,1091.2221526000003,1091.2221526000003,1091.2221526000003,,old_stationery_2.png,339,1.0,1.4747655999999552,,028,01,2024-12-03_16h32.47.748,Surprise recog test,2023.1.3,59.98411620597602,
339,0,339,0,,,,,,,,,,,,,,,,,,,,,,,,,,,,,,,,,,1095.7393710999995,1096.7501545000005,1093.7336461999994,1093.7336461999994,1093.7336461999994,1093.7336461999994,,old_fruit_35.png,340,1.0,1.9969078000012814,,028,01,2024-12-03_16h32.47.748,Surprise recog test,2023.1.3,59.98411620597602,
340,0,340,0,,,,,,,,,,,,,,,,,,,,,,,,,,,,,,,,,,1098.9509681999998,,1096.7501545000005,1096.7501545000005,1096.7501545000005,1096.7501545000005,,old_sceneIn_1.png,341,4.0,2.1979890000002342,,028,01,2024-12-03_16h32.47.748,Surprise recog test,2023.1.3,59.98411620597602,
341,0,341,0,,,,,,,,,,,,,,,,,,,,,,,,,,,,,,,,,,1101.7937647999997,1102.8084716999992,1099.9704976999992,1099.9704976999992,1099.9704976999992,1099.9704976999992,,old_fruit_8.png,342,1.0,1.819000600000436,,028,01,2024-12-03_16h32.47.748,Surprise recog test,2023.1.3,59.98411620597602,
342,0,342,0,,,,,,,,,,,,,,,,,,,,,,,,,,,,,,,,,,1104.9076410999996,1105.9344850000007,1102.8084716999992,1102.8084716999992,1102.8084716999992,1102.8084716999992,,old_sceneOut_39.png,343,1.0,2.0949421000004804,,028,01,2024-12-03_16h32.47.748,Surprise recog test,2023.1.3,59.98411620597602,
343,0,343,0,,,,,,,,,,,,,,,,,,,,,,,,,,,,,,,,,,1107.7769987000001,1108.8044949000005,1105.9344850000007,1105.9344850000007,1105.9344850000007,1105.9344850000007,,old_sceneIn_38.png,344,5.0,1.8433183999986795,,028,01,2024-12-03_16h32.47.748,Surprise recog test,2023.1.3,59.98411620597602,
344,0,344,0,,,,,,,,,,,,,,,,,,,,,,,,,,,,,,,,,,1111.2412687000005,1112.2484995000004,1108.8044949000005,1108.8044949000005,1108.8044949000005,1108.8044949000005,,new_stationery_7.png,345,1.0,2.439536300000327,,028,01,2024-12-03_16h32.47.748,Surprise recog test,2023.1.3,59.98411620597602,
345,0,345,0,,,,,,,,,,,,,,,,,,,,,,,,,,,,,,,,,,1114.2103949000002,1115.2184996000005,1112.2484995000004,1112.2484995000004,1112.2484995000004,1112.2484995000004,,new_sceneOut_34.png,346,3.0,1.957760999999664,,028,01,2024-12-03_16h32.47.748,Surprise recog test,2023.1.3,59.98411620597602,
346,0,346,0,,,,,,,,,,,,,,,,,,,,,,,,,,,,,,,,,,1116.7276028000006,1117.7508786000008,1115.2184996000005,1115.2184996000005,1115.2184996000005,1115.2184996000005,,new_sceneOut_33.png,347,4.0,1.504575200000545,,028,01,2024-12-03_16h32.47.748,Surprise recog test,2023.1.3,59.98411620597602,
347,0,347,0,,,,,,,,,,,,,,,,,,,,,,,,,,,,,,,,,,1119.5783586999996,1120.5964768999993,1117.7508786000008,1117.7508786000008,1117.7508786000008,1117.7508786000008,,old_fruit_27.png,348,3.0,1.8307098999994196,,028,01,2024-12-03_16h32.47.748,Surprise recog test,2023.1.3,59.98411620597602,
348,0,348,0,,,,,,,,,,,,,,,,,,,,,,,,,,,,,,,,,,1122.1732215000002,1123.1994576000006,1120.5964768999993,1120.5964768999993,1120.5964768999993,1120.5964768999993,,new_sceneIn_17.png,349,5.0,1.5750962000001891,,028,01,2024-12-03_16h32.47.748,Surprise recog test,2023.1.3,59.98411620597602,
349,0,349,0,,,,,,,,,,,,,,,,,,,,,,,,,,,,,,,,,,1125.1692326999992,1126.1944307000003,1123.1994576000006,1123.1994576000006,1123.1994576000006,1123.1994576000006,,old_fruit_29.png,350,4.0,1.9666403999999602,,028,01,2024-12-03_16h32.47.748,Surprise recog test,2023.1.3,59.98411620597602,
350,0,350,0,,,,,,,,,,,,,,,,,,,,,,,,,,,,,,,,,,1127.7292091999998,1128.7452877000005,1126.1944307000003,1126.1944307000003,1126.1944307000003,1126.1944307000003,,new_sceneOut_4.png,351,5.0,1.537596800000756,,028,01,2024-12-03_16h32.47.748,Surprise recog test,2023.1.3,59.98411620597602,
351,0,351,0,,,,,,,,,,,,,,,,,,,,,,,,,,,,,,,,,,1130.2647795999992,1131.2902595999994,1128.7452877000005,1128.7452877000005,1128.7452877000005,1128.7452877000005,,new_sceneOut_41.png,352,4.0,1.5159261999997398,,028,01,2024-12-03_16h32.47.748,Surprise recog test,2023.1.3,59.98411620597602,
352,0,352,0,,,,,,,,,,,,,,,,,,,,,,,,,,,,,,,,,,1132.4549562999991,1133.4752378000003,1131.2902595999994,1131.2902595999994,1131.2902595999994,1131.2902595999994,,old_sceneOut_32.png,353,4.0,1.164195600000312,,028,01,2024-12-03_16h32.47.748,Surprise recog test,2023.1.3,59.98411620597602,
353,0,353,0,,,,,,,,,,,,,,,,,,,,,,,,,,,,,,,,,,1136.0282957999998,1137.0370668999994,1133.4752378000003,1133.4752378000003,1133.4752378000003,1133.4752378000003,,new_fruit_3.png,354,4.0,2.55193700000018,,028,01,2024-12-03_16h32.47.748,Surprise recog test,2023.1.3,59.98411620597602,
354,0,354,0,,,,,,,,,,,,,,,,,,,,,,,,,,,,,,,,,,1138.1541205999993,1139.1801055999995,1137.0370668999994,1137.0370668999994,1137.0370668999994,1137.0370668999994,,old_sceneOut_45.png,355,4.0,1.1104766999997082,,028,01,2024-12-03_16h32.47.748,Surprise recog test,2023.1.3,59.98411620597602,
355,0,355,0,,,,,,,,,,,,,,,,,,,,,,,,,,,,,,,,,,1140.6449932000005,1141.6691340000007,1139.1801055999995,1139.1801055999995,1139.1801055999995,1139.1801055999995,,new_fruit_45.png,356,4.0,1.466878799999904,,028,01,2024-12-03_16h32.47.748,Surprise recog test,2023.1.3,59.98411620597602,
356,0,356,0,,,,,,,,,,,,,,,,,,,,,,,,,,,,,,,,,,1144.3707805000004,,1141.6691340000007,1141.6691340000007,1141.6691340000007,1141.6691340000007,,old_sceneIn_24.png,357,5.0,2.699612399999751,,028,01,2024-12-03_16h32.47.748,Surprise recog test,2023.1.3,59.98411620597602,
