trial_loop.thisRepN,trial_loop.thisTrialN,trial_loop.thisN,trial_loop.thisIndex,VAS_slider.started,VAS_text.started,VAS_notstressed_text.started,VAS_stressed_text.started,continue_input.started,continue_text.started,label0.started,label10.started,label20.started,label30.started,label40.started,label50.started,label60.started,label70.started,label80.started,label90.started,label100.started,VAS_slider.response,VAS_slider.rt,VAS_slider.history,Answer_VAS,continue_input.keys,instruction_text.started,continue_text_2.started,continue_input_2.started,continue_input_2.keys,continue_input_2.rt,continue_input_2.duration,example_text.started,example_slider_2.started,example_image.started,example_slider_2.response,example_slider_2.rt,fixcross.started,fixcross.stopped,front_square.started,stim_images.started,trial_inst_images.started,slider_images.started,thisImg,trial_count,slider_images.response,slider_images.rt,slider_images.stopped,outro.started,participant,condition,date,expName,psychopyVersion,frameRate,
,,,,234.840908599901,234.840908599901,234.840908599901,234.840908599901,234.840908599901,234.840908599901,234.840908599901,234.840908599901,234.840908599901,234.840908599901,234.840908599901,234.840908599901,234.840908599901,234.840908599901,234.840908599901,234.840908599901,234.840908599901,0,13.545605699997395,"[(0, 13.545605699997395)]",0,None,,,,,,,,,,,,,,,,,,,,,,,,029,10,2025-01-23_14h18.52.901,Surprise recog test,2023.1.3,59.94700684719856,
,,,,,,,,,,,,,,,,,,,,,,,,,,248.41381479997654,248.41381479997654,248.41381479997654,space,22.428467500023544,None,,,,,,,,,,,,,,,,,,029,10,2025-01-23_14h18.52.901,Surprise recog test,2023.1.3,59.94700684719856,
0,0,0,0,,,,,,,,,,,,,,,,,,,,,,,,,,,,,270.96296549995895,270.96296549995895,270.96296549995895,3.0,31.367323499987833,306.58476070000324,307.6188626999501,303.3089916999452,303.3089916999452,303.3089916999452,303.3089916999452,new_sceneIn_12.png,1,4.0,3.281510000000708,,,029,10,2025-01-23_14h18.52.901,Surprise recog test,2023.1.3,59.94700684719856,
1,0,1,0,,,,,,,,,,,,,,,,,,,,,,,,,,,,,,,,,,309.6971522999229,310.71742909995373,307.6188626999501,307.6188626999501,307.6188626999501,307.6188626999501,old_stationery_23.png,2,4.0,2.081546099972911,,,029,10,2025-01-23_14h18.52.901,Surprise recog test,2023.1.3,59.94700684719856,
2,0,2,0,,,,,,,,,,,,,,,,,,,,,,,,,,,,,,,,,,312.90665349992923,313.9338223999366,310.71742909995373,310.71742909995373,310.71742909995373,310.71742909995373,old_fruit_44.png,3,2.0,2.1895015999907628,,,029,10,2025-01-23_14h18.52.901,Surprise recog test,2023.1.3,59.94700684719856,
3,0,3,0,,,,,,,,,,,,,,,,,,,,,,,,,,,,,,,,,,316.17476089997217,317.20317499991506,313.9338223999366,313.9338223999366,313.9338223999366,313.9338223999366,old_fruit_13.png,4,3.0,2.239745199913159,,,029,10,2025-01-23_14h18.52.901,Surprise recog test,2023.1.3,59.94700684719856,
4,0,4,0,,,,,,,,,,,,,,,,,,,,,,,,,,,,,,,,,,319.27445859997533,,317.20317499991506,317.20317499991506,317.20317499991506,317.20317499991506,new_sceneOut_37.png,5,3.0,2.073819400044158,,,029,10,2025-01-23_14h18.52.901,Surprise recog test,2023.1.3,59.94700684719856,
5,0,5,0,,,,,,,,,,,,,,,,,,,,,,,,,,,,,,,,,,324.15738849993795,325.1838557999581,320.3118293998996,320.3118293998996,320.3118293998996,320.3118293998996,new_sceneIn_6.png,6,2.0,3.8481854000128806,,,029,10,2025-01-23_14h18.52.901,Surprise recog test,2023.1.3,59.94700684719856,
6,0,6,0,,,,,,,,,,,,,,,,,,,,,,,,,,,,,,,,,,326.31373940000776,,325.1838557999581,325.1838557999581,325.1838557999581,325.1838557999581,new_fruit_46.png,7,2.0,1.135610800003633,,,029,10,2025-01-23_14h18.52.901,Surprise recog test,2023.1.3,59.94700684719856,
7,0,7,0,,,,,,,,,,,,,,,,,,,,,,,,,,,,,,,,,,328.2693549999967,329.2994468999095,327.33192479994614,327.33192479994614,327.33192479994614,327.33192479994614,old_fruit_12.png,8,2.0,0.9325217999285087,,,029,10,2025-01-23_14h18.52.901,Surprise recog test,2023.1.3,59.94700684719856,
8,0,8,0,,,,,,,,,,,,,,,,,,,,,,,,,,,,,,,,,,330.1642630000133,331.1717395999003,329.2994468999095,329.2994468999095,329.2994468999095,329.2994468999095,old_stationery_20.png,9,2.0,0.860812500002794,,,029,10,2025-01-23_14h18.52.901,Surprise recog test,2023.1.3,59.94700684719856,
9,0,9,0,,,,,,,,,,,,,,,,,,,,,,,,,,,,,,,,,,332.98625740001444,,331.1717395999003,331.1717395999003,331.1717395999003,331.1717395999003,old_sceneIn_31.png,10,1.0,1.8091692000161856,,,029,10,2025-01-23_14h18.52.901,Surprise recog test,2023.1.3,59.94700684719856,
10,0,10,0,,,,,,,,,,,,,,,,,,,,,,,,,,,,,,,,,,335.2253570999019,336.2430538999615,334.0040459999582,334.0040459999582,334.0040459999582,334.0040459999582,old_sceneIn_23.png,11,1.0,1.215429599978961,,,029,10,2025-01-23_14h18.52.901,Surprise recog test,2023.1.3,59.94700684719856,
11,0,11,0,,,,,,,,,,,,,,,,,,,,,,,,,,,,,,,,,,338.0441363999853,339.0788998999633,336.2430538999615,336.2430538999615,336.2430538999615,336.2430538999615,new_stationery_33.png,12,2.0,1.7969029999803752,,,029,10,2025-01-23_14h18.52.901,Surprise recog test,2023.1.3,59.94700684719856,
12,0,12,0,,,,,,,,,,,,,,,,,,,,,,,,,,,,,,,,,,340.8286286999937,341.8626085999422,339.0788998999633,339.0788998999633,339.0788998999633,339.0788998999633,new_sceneOut_20.png,13,1.0,1.7537335000233725,,,029,10,2025-01-23_14h18.52.901,Surprise recog test,2023.1.3,59.94700684719856,
13,0,13,0,,,,,,,,,,,,,,,,,,,,,,,,,,,,,,,,,,343.47550049994607,344.4955257999245,341.8626085999422,341.8626085999422,341.8626085999422,341.8626085999422,new_fruit_45.png,14,2.0,1.6085899999598041,,,029,10,2025-01-23_14h18.52.901,Surprise recog test,2023.1.3,59.94700684719856,
14,0,14,0,,,,,,,,,,,,,,,,,,,,,,,,,,,,,,,,,,346.1776247000089,347.19445109996013,344.4955257999245,344.4955257999245,344.4955257999245,344.4955257999245,new_sceneIn_20.png,15,1.0,1.6807093999814242,,,029,10,2025-01-23_14h18.52.901,Surprise recog test,2023.1.3,59.94700684719856,
15,0,15,0,,,,,,,,,,,,,,,,,,,,,,,,,,,,,,,,,,348.97165299998596,349.99706789990887,347.19445109996013,347.19445109996013,347.19445109996013,347.19445109996013,old_stationery_8.png,16,2.0,1.7792535000480711,,,029,10,2025-01-23_14h18.52.901,Surprise recog test,2023.1.3,59.94700684719856,
16,0,16,0,,,,,,,,,,,,,,,,,,,,,,,,,,,,,,,,,,351.54884639999364,352.5572398999939,349.99706789990887,349.99706789990887,349.99706789990887,349.99706789990887,old_stationery_41.png,17,1.0,1.5543840999016538,,,029,10,2025-01-23_14h18.52.901,Surprise recog test,2023.1.3,59.94700684719856,
17,0,17,0,,,,,,,,,,,,,,,,,,,,,,,,,,,,,,,,,,354.9738584998995,355.99330889992416,352.5572398999939,352.5572398999939,352.5572398999939,352.5572398999939,old_stationery_10.png,18,2.0,2.4127684000413865,,,029,10,2025-01-23_14h18.52.901,Surprise recog test,2023.1.3,59.94700684719856,
18,0,18,0,,,,,,,,,,,,,,,,,,,,,,,,,,,,,,,,,,357.6259724999545,358.6570250999648,355.99330889992416,355.99330889992416,355.99330889992416,355.99330889992416,old_sceneIn_38.png,19,1.0,1.6286270000273362,,,029,10,2025-01-23_14h18.52.901,Surprise recog test,2023.1.3,59.94700684719856,
19,0,19,0,,,,,,,,,,,,,,,,,,,,,,,,,,,,,,,,,,360.5906993999379,361.6097479999298,358.6570250999648,358.6570250999648,358.6570250999648,358.6570250999648,old_sceneOut_39.png,20,2.0,1.9351043999195099,,,029,10,2025-01-23_14h18.52.901,Surprise recog test,2023.1.3,59.94700684719856,
20,0,20,0,,,,,,,,,,,,,,,,,,,,,,,,,,,,,,,,,,363.95440399996005,364.98152999999,361.6097479999298,361.6097479999298,361.6097479999298,361.6097479999298,old_stationery_15.png,21,1.0,2.345373799907975,,,029,10,2025-01-23_14h18.52.901,Surprise recog test,2023.1.3,59.94700684719856,
21,0,21,0,,,,,,,,,,,,,,,,,,,,,,,,,,,,,,,,,,369.27997149992734,370.30020099994726,364.98152999999,364.98152999999,364.98152999999,364.98152999999,new_stationery_19.png,22,2.0,4.296705699991435,,,029,10,2025-01-23_14h18.52.901,Surprise recog test,2023.1.3,59.94700684719856,
22,0,22,0,,,,,,,,,,,,,,,,,,,,,,,,,,,,,,,,,,371.7321587000042,372.74028439994436,370.30020099994726,370.30020099994726,370.30020099994726,370.30020099994726,new_fruit_36.png,23,3.0,1.4288161000004038,,,029,10,2025-01-23_14h18.52.901,Surprise recog test,2023.1.3,59.94700684719856,
23,0,23,0,,,,,,,,,,,,,,,,,,,,,,,,,,,,,,,,,,375.74189860001206,376.7608622999396,372.74028439994436,372.74028439994436,372.74028439994436,372.74028439994436,new_sceneIn_49.png,24,3.0,2.9956956999376416,,,029,10,2025-01-23_14h18.52.901,Surprise recog test,2023.1.3,59.94700684719856,
24,0,24,0,,,,,,,,,,,,,,,,,,,,,,,,,,,,,,,,,,379.5970482999692,380.6138615999371,376.7608622999396,376.7608622999396,376.7608622999396,376.7608622999396,old_sceneIn_47.png,25,3.0,2.8316407999955118,,,029,10,2025-01-23_14h18.52.901,Surprise recog test,2023.1.3,59.94700684719856,
25,0,25,0,,,,,,,,,,,,,,,,,,,,,,,,,,,,,,,,,,381.92114190000575,382.94515819998924,380.6138615999371,380.6138615999371,380.6138615999371,380.6138615999371,new_stationery_5.png,26,2.0,1.3026839999947697,,,029,10,2025-01-23_14h18.52.901,Surprise recog test,2023.1.3,59.94700684719856,
26,0,26,0,,,,,,,,,,,,,,,,,,,,,,,,,,,,,,,,,,384.46558690001257,385.4966393999057,382.94515819998924,382.94515819998924,382.94515819998924,382.94515819998924,old_stationery_6.png,27,2.0,1.5231641000136733,,,029,10,2025-01-23_14h18.52.901,Surprise recog test,2023.1.3,59.94700684719856,
27,0,27,0,,,,,,,,,,,,,,,,,,,,,,,,,,,,,,,,,,388.2459254999412,389.25072119990364,385.4966393999057,385.4966393999057,385.4966393999057,385.4966393999057,new_sceneOut_21.png,28,2.0,2.7447037999518216,,,029,10,2025-01-23_14h18.52.901,Surprise recog test,2023.1.3,59.94700684719856,
28,0,28,0,,,,,,,,,,,,,,,,,,,,,,,,,,,,,,,,,,393.2696846999461,,389.25072119990364,389.25072119990364,389.25072119990364,389.25072119990364,new_stationery_27.png,29,2.0,4.0150030999211594,,,029,10,2025-01-23_14h18.52.901,Surprise recog test,2023.1.3,59.94700684719856,
29,0,29,0,,,,,,,,,,,,,,,,,,,,,,,,,,,,,,,,,,395.90284939995036,396.91029039991554,394.29273499990813,394.29273499990813,394.29273499990813,394.29273499990813,new_fruit_15.png,30,2.0,1.6056735999882221,,,029,10,2025-01-23_14h18.52.901,Surprise recog test,2023.1.3,59.94700684719856,
30,0,30,0,,,,,,,,,,,,,,,,,,,,,,,,,,,,,,,,,,398.33756809995975,399.3588740999112,396.91029039991554,396.91029039991554,396.91029039991554,396.91029039991554,old_sceneOut_38.png,31,3.0,1.4178198999725282,,,029,10,2025-01-23_14h18.52.901,Surprise recog test,2023.1.3,59.94700684719856,
31,0,31,0,,,,,,,,,,,,,,,,,,,,,,,,,,,,,,,,,,400.3735321999993,401.3805654000025,399.3588740999112,399.3588740999112,399.3588740999112,399.3588740999112,old_sceneIn_33.png,32,3.0,1.016905799973756,,,029,10,2025-01-23_14h18.52.901,Surprise recog test,2023.1.3,59.94700684719856,
32,0,32,0,,,,,,,,,,,,,,,,,,,,,,,,,,,,,,,,,,403.0983762999531,404.1309066999238,401.3805654000025,401.3805654000025,401.3805654000025,401.3805654000025,old_stationery_31.png,33,4.0,1.7112182000419125,,,029,10,2025-01-23_14h18.52.901,Surprise recog test,2023.1.3,59.94700684719856,
33,0,33,0,,,,,,,,,,,,,,,,,,,,,,,,,,,,,,,,,,405.33394099993166,406.3657937999815,404.1309066999238,404.1309066999238,404.1309066999238,404.1309066999238,old_fruit_38.png,34,4.0,1.2070903000421822,,,029,10,2025-01-23_14h18.52.901,Surprise recog test,2023.1.3,59.94700684719856,
34,0,34,0,,,,,,,,,,,,,,,,,,,,,,,,,,,,,,,,,,407.2991822999902,,406.3657937999815,406.3657937999815,406.3657937999815,406.3657937999815,old_sceneOut_25.png,35,4.0,0.93718870007433,,,029,10,2025-01-23_14h18.52.901,Surprise recog test,2023.1.3,59.94700684719856,
35,0,35,0,,,,,,,,,,,,,,,,,,,,,,,,,,,,,,,,,,409.6526391999796,410.68357649992686,408.33410809992347,408.33410809992347,408.33410809992347,408.33410809992347,new_stationery_8.png,36,4.0,1.3199922000057995,,,029,10,2025-01-23_14h18.52.901,Surprise recog test,2023.1.3,59.94700684719856,
36,0,36,0,,,,,,,,,,,,,,,,,,,,,,,,,,,,,,,,,,411.4439647999825,412.4705049999757,410.68357649992686,410.68357649992686,410.68357649992686,410.68357649992686,old_sceneOut_21.png,37,4.0,0.76227100007236,,,029,10,2025-01-23_14h18.52.901,Surprise recog test,2023.1.3,59.94700684719856,
37,0,37,0,,,,,,,,,,,,,,,,,,,,,,,,,,,,,,,,,,414.5844451999292,415.5976171999937,412.4705049999757,412.4705049999757,412.4705049999757,412.4705049999757,old_fruit_32.png,38,2.0,2.1106706999707967,,,029,10,2025-01-23_14h18.52.901,Surprise recog test,2023.1.3,59.94700684719856,
38,0,38,0,,,,,,,,,,,,,,,,,,,,,,,,,,,,,,,,,,417.26548069994897,418.27911329991184,415.5976171999937,415.5976171999937,415.5976171999937,415.5976171999937,old_fruit_17.png,39,2.0,1.668671099934727,,,029,10,2025-01-23_14h18.52.901,Surprise recog test,2023.1.3,59.94700684719856,
39,0,39,0,,,,,,,,,,,,,,,,,,,,,,,,,,,,,,,,,,420.0177638999885,421.04377429990564,418.27911329991184,418.27911329991184,418.27911329991184,418.27911329991184,new_fruit_3.png,40,2.0,1.7348662000149488,,,029,10,2025-01-23_14h18.52.901,Surprise recog test,2023.1.3,59.94700684719856,
40,0,40,0,,,,,,,,,,,,,,,,,,,,,,,,,,,,,,,,,,422.38054149993695,423.4111430000048,421.04377429990564,421.04377429990564,421.04377429990564,421.04377429990564,old_sceneOut_35.png,41,3.0,1.3369215000420809,,,029,10,2025-01-23_14h18.52.901,Surprise recog test,2023.1.3,59.94700684719856,
41,0,41,0,,,,,,,,,,,,,,,,,,,,,,,,,,,,,,,,,,425.1860888999654,426.20215069991536,423.4111430000048,423.4111430000048,423.4111430000048,423.4111430000048,new_sceneOut_3.png,42,3.0,1.7745732000330463,,,029,10,2025-01-23_14h18.52.901,Surprise recog test,2023.1.3,59.94700684719856,
42,0,42,0,,,,,,,,,,,,,,,,,,,,,,,,,,,,,,,,,,427.0688366999384,428.0983552999096,426.20215069991536,426.20215069991536,426.20215069991536,426.20215069991536,old_sceneOut_5.png,43,3.0,0.8620532000204548,,,029,10,2025-01-23_14h18.52.901,Surprise recog test,2023.1.3,59.94700684719856,
43,0,43,0,,,,,,,,,,,,,,,,,,,,,,,,,,,,,,,,,,431.640374599956,432.66240619996097,428.0983552999096,428.0983552999096,428.0983552999096,428.0983552999096,new_stationery_22.png,44,4.0,3.543324699974619,,,029,10,2025-01-23_14h18.52.901,Surprise recog test,2023.1.3,59.94700684719856,
44,0,44,0,,,,,,,,,,,,,,,,,,,,,,,,,,,,,,,,,,434.40823509998154,435.4398246000055,432.66240619996097,432.66240619996097,432.66240619996097,432.66240619996097,new_stationery_18.png,45,4.0,1.746986599988304,,,029,10,2025-01-23_14h18.52.901,Surprise recog test,2023.1.3,59.94700684719856,
45,0,45,0,,,,,,,,,,,,,,,,,,,,,,,,,,,,,,,,,,437.50804779992905,,435.4398246000055,435.4398246000055,435.4398246000055,435.4398246000055,new_stationery_3.png,46,3.0,2.0698712000157684,,,029,10,2025-01-23_14h18.52.901,Surprise recog test,2023.1.3,59.94700684719856,
46,0,46,0,,,,,,,,,,,,,,,,,,,,,,,,,,,,,,,,,,439.6157861999236,440.6287938999012,438.53128529991955,438.53128529991955,438.53128529991955,438.53128529991955,new_fruit_30.png,47,3.0,1.0805181000614539,,,029,10,2025-01-23_14h18.52.901,Surprise recog test,2023.1.3,59.94700684719856,
47,0,47,0,,,,,,,,,,,,,,,,,,,,,,,,,,,,,,,,,,441.8982418999076,442.92954299994744,440.6287938999012,440.6287938999012,440.6287938999012,440.6287938999012,new_stationery_32.png,48,3.0,1.2660700000124052,,,029,10,2025-01-23_14h18.52.901,Surprise recog test,2023.1.3,59.94700684719856,
48,0,48,0,,,,,,,,,,,,,,,,,,,,,,,,,,,,,,,,,,444.78133569995407,445.81444190000184,442.92954299994744,442.92954299994744,442.92954299994744,442.92954299994744,old_sceneOut_9.png,49,2.0,1.8553757999325171,,,029,10,2025-01-23_14h18.52.901,Surprise recog test,2023.1.3,59.94700684719856,
49,0,49,0,,,,,,,,,,,,,,,,,,,,,,,,,,,,,,,,,,447.97850440000184,449.0004279999994,445.81444190000184,445.81444190000184,445.81444190000184,445.81444190000184,old_stationery_22.png,50,4.0,2.166550400084816,,,029,10,2025-01-23_14h18.52.901,Surprise recog test,2023.1.3,59.94700684719856,
50,0,50,0,,,,,,,,,,,,,,,,,,,,,,,,,,,,,,,,,,450.8646337999962,451.87317219993565,449.0004279999994,449.0004279999994,449.0004279999994,449.0004279999994,new_fruit_17.png,51,4.0,1.8646525000222027,,,029,10,2025-01-23_14h18.52.901,Surprise recog test,2023.1.3,59.94700684719856,
51,0,51,0,,,,,,,,,,,,,,,,,,,,,,,,,,,,,,,,,,453.6585078999633,454.67512989998795,451.87317219993565,451.87317219993565,451.87317219993565,451.87317219993565,new_sceneIn_30.png,52,4.0,1.780152800027281,,,029,10,2025-01-23_14h18.52.901,Surprise recog test,2023.1.3,59.94700684719856,
52,0,52,0,,,,,,,,,,,,,,,,,,,,,,,,,,,,,,,,,,455.6640707999468,456.6943037000019,454.67512989998795,454.67512989998795,454.67512989998795,454.67512989998795,old_sceneOut_7.png,53,4.0,0.984293199959211,,,029,10,2025-01-23_14h18.52.901,Surprise recog test,2023.1.3,59.94700684719856,
53,0,53,0,,,,,,,,,,,,,,,,,,,,,,,,,,,,,,,,,,461.69018149992917,,456.6943037000019,456.6943037000019,456.6943037000019,456.6943037000019,new_sceneOut_44.png,54,None,None,461.6752339999657,,029,10,2025-01-23_14h18.52.901,Surprise recog test,2023.1.3,59.94700684719856,
54,0,54,0,,,,,,,,,,,,,,,,,,,,,,,,,,,,,,,,,,464.30594449990895,465.3298614999512,462.69931719999295,462.69931719999295,462.69931719999295,462.69931719999295,new_sceneIn_48.png,55,2.0,1.6040947999572381,,,029,10,2025-01-23_14h18.52.901,Surprise recog test,2023.1.3,59.94700684719856,
55,0,55,0,,,,,,,,,,,,,,,,,,,,,,,,,,,,,,,,,,467.064255699981,,465.3298614999512,465.3298614999512,465.3298614999512,465.3298614999512,new_stationery_38.png,56,4.0,1.7346078000264242,,,029,10,2025-01-23_14h18.52.901,Surprise recog test,2023.1.3,59.94700684719856,
56,0,56,0,,,,,,,,,,,,,,,,,,,,,,,,,,,,,,,,,,469.0629584999988,470.07324609998614,468.085557699902,468.085557699902,468.085557699902,468.085557699902,new_fruit_10.png,57,4.0,0.9668269000248984,,,029,10,2025-01-23_14h18.52.901,Surprise recog test,2023.1.3,59.94700684719856,
57,0,57,0,,,,,,,,,,,,,,,,,,,,,,,,,,,,,,,,,,471.0213658999419,472.04703449993394,470.07324609998614,470.07324609998614,470.07324609998614,470.07324609998614,old_sceneIn_13.png,58,4.0,0.9455171999288723,,,029,10,2025-01-23_14h18.52.901,Surprise recog test,2023.1.3,59.94700684719856,
58,0,58,0,,,,,,,,,,,,,,,,,,,,,,,,,,,,,,,,,,473.3404023000039,474.3595132000046,472.04703449993394,472.04703449993394,472.04703449993394,472.04703449993394,new_fruit_47.png,59,4.0,1.2940066000446677,,,029,10,2025-01-23_14h18.52.901,Surprise recog test,2023.1.3,59.94700684719856,
59,0,59,0,,,,,,,,,,,,,,,,,,,,,,,,,,,,,,,,,,476.4620838999981,477.49018530000467,474.3595132000046,474.3595132000046,474.3595132000046,474.3595132000046,old_fruit_10.png,60,1.0,2.0980248999549076,,,029,10,2025-01-23_14h18.52.901,Surprise recog test,2023.1.3,59.94700684719856,
60,0,60,0,,,,,,,,,,,,,,,,,,,,,,,,,,,,,,,,,,479.04465910000727,480.07009839999955,477.49018530000467,477.49018530000467,477.49018530000467,477.49018530000467,old_stationery_13.png,61,3.0,1.5581795999314636,,,029,10,2025-01-23_14h18.52.901,Surprise recog test,2023.1.3,59.94700684719856,
61,0,61,0,,,,,,,,,,,,,,,,,,,,,,,,,,,,,,,,,,481.0679583000019,482.0960144000128,480.07009839999955,480.07009839999955,480.07009839999955,480.07009839999955,old_stationery_33.png,62,3.0,0.9979020999744534,,,029,10,2025-01-23_14h18.52.901,Surprise recog test,2023.1.3,59.94700684719856,
62,0,62,0,,,,,,,,,,,,,,,,,,,,,,,,,,,,,,,,,,484.9045366999926,485.9235120000085,482.0960144000128,482.0960144000128,482.0960144000128,482.0960144000128,new_sceneOut_18.png,63,4.0,2.80860049999319,,,029,10,2025-01-23_14h18.52.901,Surprise recog test,2023.1.3,59.94700684719856,
63,0,63,0,,,,,,,,,,,,,,,,,,,,,,,,,,,,,,,,,,488.41343829990365,489.43574699992314,485.9235120000085,485.9235120000085,485.9235120000085,485.9235120000085,new_sceneOut_36.png,64,5.0,2.4817851000698283,,,029,10,2025-01-23_14h18.52.901,Surprise recog test,2023.1.3,59.94700684719856,
64,0,64,0,,,,,,,,,,,,,,,,,,,,,,,,,,,,,,,,,,490.52294319996145,491.5526237000013,489.43574699992314,489.43574699992314,489.43574699992314,489.43574699992314,old_sceneOut_13.png,65,5.0,1.091119599994272,,,029,10,2025-01-23_14h18.52.901,Surprise recog test,2023.1.3,59.94700684719856,
65,0,65,0,,,,,,,,,,,,,,,,,,,,,,,,,,,,,,,,,,492.84787599998526,493.8708939999342,491.5526237000013,491.5526237000013,491.5526237000013,491.5526237000013,old_sceneOut_34.png,66,4.0,1.297582200029865,,,029,10,2025-01-23_14h18.52.901,Surprise recog test,2023.1.3,59.94700684719856,
66,0,66,0,,,,,,,,,,,,,,,,,,,,,,,,,,,,,,,,,,494.720326700015,,493.8708939999342,493.8708939999342,493.8708939999342,493.8708939999342,new_stationery_1.png,67,4.0,0.8515708000632003,,,029,10,2025-01-23_14h18.52.901,Surprise recog test,2023.1.3,59.94700684719856,
67,0,67,0,,,,,,,,,,,,,,,,,,,,,,,,,,,,,,,,,,497.37348479998764,,495.7432451999048,495.7432451999048,495.7432451999048,495.7432451999048,old_fruit_3.png,68,3.0,1.6274843000574037,,,029,10,2025-01-23_14h18.52.901,Surprise recog test,2023.1.3,59.94700684719856,
68,0,68,0,,,,,,,,,,,,,,,,,,,,,,,,,,,,,,,,,,499.55751189996954,,498.39436709997244,498.39436709997244,498.39436709997244,498.39436709997244,old_sceneOut_32.png,69,3.0,1.1566899999743327,,,029,10,2025-01-23_14h18.52.901,Surprise recog test,2023.1.3,59.94700684719856,
69,0,69,0,,,,,,,,,,,,,,,,,,,,,,,,,,,,,,,,,,504.80293909995817,505.83139019994996,500.58542269992176,500.58542269992176,500.58542269992176,500.58542269992176,new_sceneIn_31.png,70,4.0,4.217656700056978,,,029,10,2025-01-23_14h18.52.901,Surprise recog test,2023.1.3,59.94700684719856,
70,0,70,0,,,,,,,,,,,,,,,,,,,,,,,,,,,,,,,,,,506.96447389991954,,505.83139019994996,505.83139019994996,505.83139019994996,505.83139019994996,new_fruit_7.png,71,4.0,1.1352244999725372,,,029,10,2025-01-23_14h18.52.901,Surprise recog test,2023.1.3,59.94700684719856,
71,0,71,0,,,,,,,,,,,,,,,,,,,,,,,,,,,,,,,,,,510.14940110000316,,507.99730759998783,507.99730759998783,507.99730759998783,507.99730759998783,new_stationery_7.png,72,2.0,2.1533688000636175,,,029,10,2025-01-23_14h18.52.901,Surprise recog test,2023.1.3,59.94700684719856,
72,0,72,0,,,,,,,,,,,,,,,,,,,,,,,,,,,,,,,,,,512.8677171999589,513.8747925999342,511.1838138999883,511.1838138999883,511.1838138999883,511.1838138999883,new_fruit_40.png,73,3.0,1.6846924000419676,,,029,10,2025-01-23_14h18.52.901,Surprise recog test,2023.1.3,59.94700684719856,
73,0,73,0,,,,,,,,,,,,,,,,,,,,,,,,,,,,,,,,,,514.6560679000104,515.6755057999399,513.8747925999342,513.8747925999342,513.8747925999342,513.8747925999342,old_fruit_34.png,74,3.0,0.7773745999438688,,,029,10,2025-01-23_14h18.52.901,Surprise recog test,2023.1.3,59.94700684719856,
74,0,74,0,,,,,,,,,,,,,,,,,,,,,,,,,,,,,,,,,,516.6982377999229,517.7252162999939,515.6755057999399,515.6755057999399,515.6755057999399,515.6755057999399,new_fruit_50.png,75,3.0,1.0159931000089273,,,029,10,2025-01-23_14h18.52.901,Surprise recog test,2023.1.3,59.94700684719856,
75,0,75,0,,,,,,,,,,,,,,,,,,,,,,,,,,,,,,,,,,519.3293133999687,520.3471637999173,517.7252162999939,517.7252162999939,517.7252162999939,517.7252162999939,old_sceneOut_1.png,76,4.0,1.6063714000629261,,,029,10,2025-01-23_14h18.52.901,Surprise recog test,2023.1.3,59.94700684719856,
76,0,76,0,,,,,,,,,,,,,,,,,,,,,,,,,,,,,,,,,,521.9238984999247,522.9472206999781,520.3471637999173,520.3471637999173,520.3471637999173,520.3471637999173,old_stationery_43.png,77,2.0,1.5653060000622645,,,029,10,2025-01-23_14h18.52.901,Surprise recog test,2023.1.3,59.94700684719856,
77,0,77,0,,,,,,,,,,,,,,,,,,,,,,,,,,,,,,,,,,525.9531175999437,526.9807458999567,522.9472206999781,522.9472206999781,522.9472206999781,522.9472206999781,new_stationery_43.png,78,3.0,3.0100629999069497,,,029,10,2025-01-23_14h18.52.901,Surprise recog test,2023.1.3,59.94700684719856,
78,0,78,0,,,,,,,,,,,,,,,,,,,,,,,,,,,,,,,,,,528.2957160999067,529.3041611999506,526.9807458999567,526.9807458999567,526.9807458999567,526.9807458999567,new_sceneOut_34.png,79,3.0,1.3104630999732763,,,029,10,2025-01-23_14h18.52.901,Surprise recog test,2023.1.3,59.94700684719856,
79,0,79,0,,,,,,,,,,,,,,,,,,,,,,,,,,,,,,,,,,530.9645891999826,531.9856568999821,529.3041611999506,529.3041611999506,529.3041611999506,529.3041611999506,old_fruit_25.png,80,2.0,1.655615899944678,,,029,10,2025-01-23_14h18.52.901,Surprise recog test,2023.1.3,59.94700684719856,
80,0,80,0,,,,,,,,,,,,,,,,,,,,,,,,,,,,,,,,,,534.1322700999444,535.1384807999711,531.9856568999821,531.9856568999821,531.9856568999821,531.9856568999821,old_sceneIn_41.png,81,4.0,2.147847000043839,,,029,10,2025-01-23_14h18.52.901,Surprise recog test,2023.1.3,59.94700684719856,
81,0,81,0,,,,,,,,,,,,,,,,,,,,,,,,,,,,,,,,,,536.2022285999265,537.2225689999759,535.1384807999711,535.1384807999711,535.1384807999711,535.1384807999711,old_sceneOut_2.png,82,4.0,1.0572748000267893,,,029,10,2025-01-23_14h18.52.901,Surprise recog test,2023.1.3,59.94700684719856,
82,0,82,0,,,,,,,,,,,,,,,,,,,,,,,,,,,,,,,,,,538.2717358999653,539.2788235999178,537.2225689999759,537.2225689999759,537.2225689999759,537.2225689999759,new_sceneOut_35.png,83,4.0,1.0505902000004426,,,029,10,2025-01-23_14h18.52.901,Surprise recog test,2023.1.3,59.94700684719856,
83,0,83,0,,,,,,,,,,,,,,,,,,,,,,,,,,,,,,,,,,541.272687299992,542.293025199906,539.2788235999178,539.2788235999178,539.2788235999178,539.2788235999178,old_sceneOut_8.png,84,4.0,1.9880585999926552,,,029,10,2025-01-23_14h18.52.901,Surprise recog test,2023.1.3,59.94700684719856,
84,0,84,0,,,,,,,,,,,,,,,,,,,,,,,,,,,,,,,,,,544.3591157000046,545.3789298000047,542.293025199906,542.293025199906,542.293025199906,542.293025199906,old_sceneIn_6.png,85,1.0,2.0611976999789476,,,029,10,2025-01-23_14h18.52.901,Surprise recog test,2023.1.3,59.94700684719856,
85,0,85,0,,,,,,,,,,,,,,,,,,,,,,,,,,,,,,,,,,547.2956732999301,548.3030382000143,545.3789298000047,545.3789298000047,545.3789298000047,545.3789298000047,old_sceneIn_43.png,86,3.0,1.9180847000097856,,,029,10,2025-01-23_14h18.52.901,Surprise recog test,2023.1.3,59.94700684719856,
86,0,86,0,,,,,,,,,,,,,,,,,,,,,,,,,,,,,,,,,,548.9687916999683,549.9967427999945,548.3030382000143,548.3030382000143,548.3030382000143,548.3030382000143,old_stationery_38.png,87,3.0,0.660398899926804,,,029,10,2025-01-23_14h18.52.901,Surprise recog test,2023.1.3,59.94700684719856,
87,0,87,0,,,,,,,,,,,,,,,,,,,,,,,,,,,,,,,,,,551.7689671999542,,549.9967427999945,549.9967427999945,549.9967427999945,549.9967427999945,new_sceneIn_5.png,88,4.0,1.7746325000189245,,,029,10,2025-01-23_14h18.52.901,Surprise recog test,2023.1.3,59.94700684719856,
88,0,88,0,,,,,,,,,,,,,,,,,,,,,,,,,,,,,,,,,,553.692827199935,554.7216478999471,552.8013944999548,552.8013944999548,552.8013944999548,552.8013944999548,new_sceneOut_25.png,89,4.0,0.8939755000174046,,,029,10,2025-01-23_14h18.52.901,Surprise recog test,2023.1.3,59.94700684719856,
89,0,89,0,,,,,,,,,,,,,,,,,,,,,,,,,,,,,,,,,,556.5266789000016,557.5492903999984,554.7216478999471,554.7216478999471,554.7216478999471,554.7216478999471,old_sceneOut_27.png,90,4.0,1.8057574999984354,,,029,10,2025-01-23_14h18.52.901,Surprise recog test,2023.1.3,59.94700684719856,
90,0,90,0,,,,,,,,,,,,,,,,,,,,,,,,,,,,,,,,,,559.0297941999743,560.0474103000015,557.5492903999984,557.5492903999984,557.5492903999984,557.5492903999984,old_sceneIn_15.png,91,4.0,1.4819984000641853,,,029,10,2025-01-23_14h18.52.901,Surprise recog test,2023.1.3,59.94700684719856,
91,0,91,0,,,,,,,,,,,,,,,,,,,,,,,,,,,,,,,,,,561.7904700000072,562.8107017999282,560.0474103000015,560.0474103000015,560.0474103000015,560.0474103000015,new_fruit_24.png,92,3.0,1.7389521000441164,,,029,10,2025-01-23_14h18.52.901,Surprise recog test,2023.1.3,59.94700684719856,
92,0,92,0,,,,,,,,,,,,,,,,,,,,,,,,,,,,,,,,,,563.4336001999909,564.446520700003,562.8107017999282,562.8107017999282,562.8107017999282,562.8107017999282,old_sceneOut_42.png,93,3.0,0.6225157999433577,,,029,10,2025-01-23_14h18.52.901,Surprise recog test,2023.1.3,59.94700684719856,
93,0,93,0,,,,,,,,,,,,,,,,,,,,,,,,,,,,,,,,,,566.7456595000112,567.7511696999427,564.446520700003,564.446520700003,564.446520700003,564.446520700003,new_stationery_20.png,94,4.0,2.2937208999646828,,,029,10,2025-01-23_14h18.52.901,Surprise recog test,2023.1.3,59.94700684719856,
94,0,94,0,,,,,,,,,,,,,,,,,,,,,,,,,,,,,,,,,,568.7894746999955,569.8033157999162,567.7511696999427,567.7511696999427,567.7511696999427,567.7511696999427,old_sceneOut_29.png,95,4.0,1.034418600029312,,,029,10,2025-01-23_14h18.52.901,Surprise recog test,2023.1.3,59.94700684719856,
95,0,95,0,,,,,,,,,,,,,,,,,,,,,,,,,,,,,,,,,,571.3856089999899,,569.8033157999162,569.8033157999162,569.8033157999162,569.8033157999162,old_stationery_45.png,96,3.0,1.5779413999989629,,,029,10,2025-01-23_14h18.52.901,Surprise recog test,2023.1.3,59.94700684719856,
96,0,96,0,,,,,,,,,,,,,,,,,,,,,,,,,,,,,,,,,,577.4029857999412,,572.419411299983,572.419411299983,572.419411299983,572.419411299983,new_fruit_39.png,97,None,None,577.388479999965,,029,10,2025-01-23_14h18.52.901,Surprise recog test,2023.1.3,59.94700684719856,
97,0,97,0,,,,,,,,,,,,,,,,,,,,,,,,,,,,,,,,,,579.3252288999502,,578.4121494999854,578.4121494999854,578.4121494999854,578.4121494999854,old_sceneIn_5.png,98,3.0,0.9098702999763191,,,029,10,2025-01-23_14h18.52.901,Surprise recog test,2023.1.3,59.94700684719856,
98,0,98,0,,,,,,,,,,,,,,,,,,,,,,,,,,,,,,,,,,582.2640507000033,583.2953451999929,580.3540661999723,580.3540661999723,580.3540661999723,580.3540661999723,new_stationery_49.png,99,4.0,1.91121499997098,,,029,10,2025-01-23_14h18.52.901,Surprise recog test,2023.1.3,59.94700684719856,
99,0,99,0,,,,,,,,,,,,,,,,,,,,,,,,,,,,,,,,,,584.1753854999552,585.1838417999679,583.2953451999929,583.2953451999929,583.2953451999929,583.2953451999929,new_fruit_37.png,100,4.0,0.8765438999980688,,,029,10,2025-01-23_14h18.52.901,Surprise recog test,2023.1.3,59.94700684719856,
100,0,100,0,,,,,,,,,,,,,,,,,,,,,,,,,,,,,,,,,,585.9252709000139,586.9483770999359,585.1838417999679,585.1838417999679,585.1838417999679,585.1838417999679,new_stationery_10.png,101,4.0,0.7350001999875531,,,029,10,2025-01-23_14h18.52.901,Surprise recog test,2023.1.3,59.94700684719856,
101,0,101,0,,,,,,,,,,,,,,,,,,,,,,,,,,,,,,,,,,588.6057557999156,589.6207779999822,586.9483770999359,586.9483770999359,586.9483770999359,586.9483770999359,old_sceneIn_35.png,102,5.0,1.6560454000718892,,,029,10,2025-01-23_14h18.52.901,Surprise recog test,2023.1.3,59.94700684719856,
102,0,102,0,,,,,,,,,,,,,,,,,,,,,,,,,,,,,,,,,,590.940354899969,591.9561380000087,589.6207779999822,589.6207779999822,589.6207779999822,589.6207779999822,new_stationery_17.png,103,4.0,1.315394900040701,,,029,10,2025-01-23_14h18.52.901,Surprise recog test,2023.1.3,59.94700684719856,
103,0,103,0,,,,,,,,,,,,,,,,,,,,,,,,,,,,,,,,,,594.7649477999657,595.7873197000008,591.9561380000087,591.9561380000087,591.9561380000087,591.9561380000087,new_sceneIn_41.png,104,3.0,2.804367500008084,,,029,10,2025-01-23_14h18.52.901,Surprise recog test,2023.1.3,59.94700684719856,
104,0,104,0,,,,,,,,,,,,,,,,,,,,,,,,,,,,,,,,,,597.4346950999461,598.4599814999383,595.7873197000008,595.7873197000008,595.7873197000008,595.7873197000008,new_sceneIn_43.png,105,3.0,1.6502631000475958,,,029,10,2025-01-23_14h18.52.901,Surprise recog test,2023.1.3,59.94700684719856,
105,0,105,0,,,,,,,,,,,,,,,,,,,,,,,,,,,,,,,,,,600.5276227999711,601.5561753999209,598.4599814999383,598.4599814999383,598.4599814999383,598.4599814999383,new_sceneIn_39.png,106,4.0,2.0716045000590384,,,029,10,2025-01-23_14h18.52.901,Surprise recog test,2023.1.3,59.94700684719856,
106,0,106,0,,,,,,,,,,,,,,,,,,,,,,,,,,,,,,,,,,602.3405885999091,603.3612774999347,601.5561753999209,601.5561753999209,601.5561753999209,601.5561753999209,new_sceneIn_3.png,107,4.0,0.7818536000559106,,,029,10,2025-01-23_14h18.52.901,Surprise recog test,2023.1.3,59.94700684719856,
107,0,107,0,,,,,,,,,,,,,,,,,,,,,,,,,,,,,,,,,,604.3194977999665,605.341182300006,603.3612774999347,603.3612774999347,603.3612774999347,603.3612774999347,new_sceneIn_35.png,108,4.0,0.9562184000387788,,,029,10,2025-01-23_14h18.52.901,Surprise recog test,2023.1.3,59.94700684719856,
108,0,108,0,,,,,,,,,,,,,,,,,,,,,,,,,,,,,,,,,,606.961105800001,607.9690816999646,605.341182300006,605.341182300006,605.341182300006,605.341182300006,new_sceneOut_10.png,109,3.0,1.61701579997316,,,029,10,2025-01-23_14h18.52.901,Surprise recog test,2023.1.3,59.94700684719856,
109,0,109,0,,,,,,,,,,,,,,,,,,,,,,,,,,,,,,,,,,609.1962506999262,610.2180778000038,607.9690816999646,607.9690816999646,607.9690816999646,607.9690816999646,old_fruit_40.png,110,3.0,1.2169054999249056,,,029,10,2025-01-23_14h18.52.901,Surprise recog test,2023.1.3,59.94700684719856,
110,0,110,0,,,,,,,,,,,,,,,,,,,,,,,,,,,,,,,,,,612.0373599999584,613.0571225999156,610.2180778000038,610.2180778000038,610.2180778000038,610.2180778000038,new_sceneOut_32.png,111,3.0,1.8209909000433981,,,029,10,2025-01-23_14h18.52.901,Surprise recog test,2023.1.3,59.94700684719856,
111,0,111,0,,,,,,,,,,,,,,,,,,,,,,,,,,,,,,,,,,614.3164670999395,615.3232789000031,613.0571225999156,613.0571225999156,613.0571225999156,613.0571225999156,old_fruit_11.png,112,2.0,1.2544731000671163,,,029,10,2025-01-23_14h18.52.901,Surprise recog test,2023.1.3,59.94700684719856,
112,0,112,0,,,,,,,,,,,,,,,,,,,,,,,,,,,,,,,,,,616.6857714999933,617.7083521999884,615.3232789000031,615.3232789000031,615.3232789000031,615.3232789000031,old_sceneOut_10.png,113,3.0,1.3534762000199407,,,029,10,2025-01-23_14h18.52.901,Surprise recog test,2023.1.3,59.94700684719856,
113,0,113,0,,,,,,,,,,,,,,,,,,,,,,,,,,,,,,,,,,618.7543393999804,619.7741872000042,617.7083521999884,617.7083521999884,617.7083521999884,617.7083521999884,new_sceneOut_27.png,114,3.0,1.043309299973771,,,029,10,2025-01-23_14h18.52.901,Surprise recog test,2023.1.3,59.94700684719856,
114,0,114,0,,,,,,,,,,,,,,,,,,,,,,,,,,,,,,,,,,620.5056496999459,621.5138232999016,619.7741872000042,619.7741872000042,619.7741872000042,619.7741872000042,old_fruit_31.png,115,3.0,0.7309145000763237,,,029,10,2025-01-23_14h18.52.901,Surprise recog test,2023.1.3,59.94700684719856,
115,0,115,0,,,,,,,,,,,,,,,,,,,,,,,,,,,,,,,,,,623.2992008000147,624.3225057999371,621.5138232999016,621.5138232999016,621.5138232999016,621.5138232999016,new_stationery_30.png,116,3.0,1.7776529000839218,,,029,10,2025-01-23_14h18.52.901,Surprise recog test,2023.1.3,59.94700684719856,
116,0,116,0,,,,,,,,,,,,,,,,,,,,,,,,,,,,,,,,,,625.4808457999025,,624.3225057999371,624.3225057999371,624.3225057999371,624.3225057999371,old_sceneOut_14.png,117,2.0,1.15982579998672,,,029,10,2025-01-23_14h18.52.901,Surprise recog test,2023.1.3,59.94700684719856,
117,0,117,0,,,,,,,,,,,,,,,,,,,,,,,,,,,,,,,,,,627.2936527999118,628.3197981999256,626.514294499997,626.514294499997,626.514294499997,626.514294499997,old_sceneIn_11.png,118,3.0,0.7818920999998227,,,029,10,2025-01-23_14h18.52.901,Surprise recog test,2023.1.3,59.94700684719856,
118,0,118,0,,,,,,,,,,,,,,,,,,,,,,,,,,,,,,,,,,629.3819396999897,,628.3197981999256,628.3197981999256,628.3197981999256,628.3197981999256,new_fruit_9.png,119,4.0,1.0654441999504343,,,029,10,2025-01-23_14h18.52.901,Surprise recog test,2023.1.3,59.94700684719856,
119,0,119,0,,,,,,,,,,,,,,,,,,,,,,,,,,,,,,,,,,631.0478086000076,632.0679539999692,630.4170527999522,630.4170527999522,630.4170527999522,630.4170527999522,new_sceneOut_16.png,120,4.0,0.6267356000607833,,,029,10,2025-01-23_14h18.52.901,Surprise recog test,2023.1.3,59.94700684719856,
120,0,120,0,,,,,,,,,,,,,,,,,,,,,,,,,,,,,,,,,,632.8330311999889,633.8539643000113,632.0679539999692,632.0679539999692,632.0679539999692,632.0679539999692,new_sceneOut_5.png,121,4.0,0.7662662999937311,,,029,10,2025-01-23_14h18.52.901,Surprise recog test,2023.1.3,59.94700684719856,
121,0,121,0,,,,,,,,,,,,,,,,,,,,,,,,,,,,,,,,,,635.2623175999615,636.2722779999021,633.8539643000113,633.8539643000113,633.8539643000113,633.8539643000113,new_stationery_28.png,122,2.0,1.4100263000000268,,,029,10,2025-01-23_14h18.52.901,Surprise recog test,2023.1.3,59.94700684719856,
122,0,122,0,,,,,,,,,,,,,,,,,,,,,,,,,,,,,,,,,,637.9163307999261,638.9414479999105,636.2722779999021,636.2722779999021,636.2722779999021,636.2722779999021,new_fruit_20.png,123,3.0,1.6378033999353647,,,029,10,2025-01-23_14h18.52.901,Surprise recog test,2023.1.3,59.94700684719856,
123,0,123,0,,,,,,,,,,,,,,,,,,,,,,,,,,,,,,,,,,639.7677371999016,640.7971287999535,638.9414479999105,638.9414479999105,638.9414479999105,638.9414479999105,old_stationery_29.png,124,3.0,0.8292625999310985,,,029,10,2025-01-23_14h18.52.901,Surprise recog test,2023.1.3,59.94700684719856,
124,0,124,0,,,,,,,,,,,,,,,,,,,,,,,,,,,,,,,,,,641.680071999901,642.7121428999817,640.7971287999535,640.7971287999535,640.7971287999535,640.7971287999535,old_stationery_19.png,125,3.0,0.8882837999844924,,,029,10,2025-01-23_14h18.52.901,Surprise recog test,2023.1.3,59.94700684719856,
125,0,125,0,,,,,,,,,,,,,,,,,,,,,,,,,,,,,,,,,,643.727438599919,,642.7121428999817,642.7121428999817,642.7121428999817,642.7121428999817,old_sceneOut_15.png,126,4.0,1.0166847000364214,,,029,10,2025-01-23_14h18.52.901,Surprise recog test,2023.1.3,59.94700684719856,
126,0,126,0,,,,,,,,,,,,,,,,,,,,,,,,,,,,,,,,,,645.9601852999767,646.980046599987,644.750731099979,644.750731099979,644.750731099979,644.750731099979,old_sceneOut_16.png,127,4.0,1.2058324000099674,,,029,10,2025-01-23_14h18.52.901,Surprise recog test,2023.1.3,59.94700684719856,
127,0,127,0,,,,,,,,,,,,,,,,,,,,,,,,,,,,,,,,,,647.8445381999481,648.8541845999425,646.980046599987,646.980046599987,646.980046599987,646.980046599987,old_fruit_37.png,128,4.0,0.8639735999749973,,,029,10,2025-01-23_14h18.52.901,Surprise recog test,2023.1.3,59.94700684719856,
128,0,128,0,,,,,,,,,,,,,,,,,,,,,,,,,,,,,,,,,,649.7273168999236,650.7392021999694,648.8541845999425,648.8541845999425,648.8541845999425,648.8541845999425,old_fruit_41.png,129,4.0,0.8666363999946043,,,029,10,2025-01-23_14h18.52.901,Surprise recog test,2023.1.3,59.94700684719856,
129,0,129,0,,,,,,,,,,,,,,,,,,,,,,,,,,,,,,,,,,652.382188999909,653.3998262999812,650.7392021999694,650.7392021999694,650.7392021999694,650.7392021999694,old_stationery_30.png,130,2.0,1.6351362999994308,,,029,10,2025-01-23_14h18.52.901,Surprise recog test,2023.1.3,59.94700684719856,
130,0,130,0,,,,,,,,,,,,,,,,,,,,,,,,,,,,,,,,,,654.5688713999698,655.5870488999644,653.3998262999812,653.3998262999812,653.3998262999812,653.3998262999812,new_stationery_6.png,131,3.0,1.1633176000323147,,,029,10,2025-01-23_14h18.52.901,Surprise recog test,2023.1.3,59.94700684719856,
131,0,131,0,,,,,,,,,,,,,,,,,,,,,,,,,,,,,,,,,,656.2689602999017,657.292325999937,655.5870488999644,655.5870488999644,655.5870488999644,655.5870488999644,new_fruit_14.png,132,3.0,0.6815678999992087,,,029,10,2025-01-23_14h18.52.901,Surprise recog test,2023.1.3,59.94700684719856,
132,0,132,0,,,,,,,,,,,,,,,,,,,,,,,,,,,,,,,,,,658.5303694999311,659.5587810999714,657.292325999937,657.292325999937,657.292325999937,657.292325999937,old_sceneOut_44.png,133,4.0,1.2407655999995768,,,029,10,2025-01-23_14h18.52.901,Surprise recog test,2023.1.3,59.94700684719856,
133,0,133,0,,,,,,,,,,,,,,,,,,,,,,,,,,,,,,,,,,661.0727770999074,662.0916240999941,659.5587810999714,659.5587810999714,659.5587810999714,659.5587810999714,old_sceneIn_9.png,134,4.0,1.5143734000157565,,,029,10,2025-01-23_14h18.52.901,Surprise recog test,2023.1.3,59.94700684719856,
134,0,134,0,,,,,,,,,,,,,,,,,,,,,,,,,,,,,,,,,,663.639077699976,664.6608543999027,662.0916240999941,662.0916240999941,662.0916240999941,662.0916240999941,new_sceneIn_46.png,135,3.0,1.5490718999644741,,,029,10,2025-01-23_14h18.52.901,Surprise recog test,2023.1.3,59.94700684719856,
135,0,135,0,,,,,,,,,,,,,,,,,,,,,,,,,,,,,,,,,,665.9247481999919,666.9457669999683,664.6608543999027,664.6608543999027,664.6608543999027,664.6608543999027,new_sceneIn_50.png,136,3.0,1.2667252999963239,,,029,10,2025-01-23_14h18.52.901,Surprise recog test,2023.1.3,59.94700684719856,
136,0,136,0,,,,,,,,,,,,,,,,,,,,,,,,,,,,,,,,,,668.5006755999057,669.518915399909,666.9457669999683,666.9457669999683,666.9457669999683,666.9457669999683,old_fruit_42.png,137,3.0,1.556657399982214,,,029,10,2025-01-23_14h18.52.901,Surprise recog test,2023.1.3,59.94700684719856,
137,0,137,0,,,,,,,,,,,,,,,,,,,,,,,,,,,,,,,,,,671.3533800999867,672.3863701999653,669.518915399909,669.518915399909,669.518915399909,669.518915399909,old_fruit_36.png,138,2.0,1.8305636999430135,,,029,10,2025-01-23_14h18.52.901,Surprise recog test,2023.1.3,59.94700684719856,
138,0,138,0,,,,,,,,,,,,,,,,,,,,,,,,,,,,,,,,,,674.2506841999711,675.2766453999793,672.3863701999653,672.3863701999653,672.3863701999653,672.3863701999653,new_sceneIn_1.png,139,4.0,1.8660966999595985,,,029,10,2025-01-23_14h18.52.901,Surprise recog test,2023.1.3,59.94700684719856,
139,0,139,0,,,,,,,,,,,,,,,,,,,,,,,,,,,,,,,,,,677.3504587999778,678.3718117999379,675.2766453999793,675.2766453999793,675.2766453999793,675.2766453999793,new_stationery_45.png,140,5.0,2.0762676999438554,,,029,10,2025-01-23_14h18.52.901,Surprise recog test,2023.1.3,59.94700684719856,
140,0,140,0,,,,,,,,,,,,,,,,,,,,,,,,,,,,,,,,,,679.5909248999087,,678.3718117999379,678.3718117999379,678.3718117999379,678.3718117999379,new_stationery_23.png,141,4.0,1.222242100047879,,,029,10,2025-01-23_14h18.52.901,Surprise recog test,2023.1.3,59.94700684719856,
141,0,141,0,,,,,,,,,,,,,,,,,,,,,,,,,,,,,,,,,,682.6258784999372,683.6443564000074,680.6253707999131,680.6253707999131,680.6253707999131,680.6253707999131,new_sceneOut_50.png,142,5.0,2.0011713999556378,,,029,10,2025-01-23_14h18.52.901,Surprise recog test,2023.1.3,59.94700684719856,
142,0,142,0,,,,,,,,,,,,,,,,,,,,,,,,,,,,,,,,,,685.709855999914,686.7322426999453,683.6443564000074,683.6443564000074,683.6443564000074,683.6443564000074,new_sceneIn_32.png,143,4.0,2.060738999978639,,,029,10,2025-01-23_14h18.52.901,Surprise recog test,2023.1.3,59.94700684719856,
143,0,143,0,,,,,,,,,,,,,,,,,,,,,,,,,,,,,,,,,,688.4622002999531,689.4708832999459,686.7322426999453,686.7322426999453,686.7322426999453,686.7322426999453,new_sceneIn_9.png,144,3.0,1.7278227999340743,,,029,10,2025-01-23_14h18.52.901,Surprise recog test,2023.1.3,59.94700684719856,
144,0,144,0,,,,,,,,,,,,,,,,,,,,,,,,,,,,,,,,,,690.9351271999767,,689.4708832999459,689.4708832999459,689.4708832999459,689.4708832999459,old_fruit_9.png,145,2.0,1.4604912999784574,,,029,10,2025-01-23_14h18.52.901,Surprise recog test,2023.1.3,59.94700684719856,
145,0,145,0,,,,,,,,,,,,,,,,,,,,,,,,,,,,,,,,,,693.6436848999001,694.6688859999413,691.9551113999914,691.9551113999914,691.9551113999914,691.9551113999914,old_fruit_30.png,146,1.0,1.6824517999775708,,,029,10,2025-01-23_14h18.52.901,Surprise recog test,2023.1.3,59.94700684719856,
146,0,146,0,,,,,,,,,,,,,,,,,,,,,,,,,,,,,,,,,,695.8849792999681,696.9056876999093,694.6688859999413,694.6688859999413,694.6688859999413,694.6688859999413,new_fruit_1.png,147,2.0,1.2158554999623448,,,029,10,2025-01-23_14h18.52.901,Surprise recog test,2023.1.3,59.94700684719856,
147,0,147,0,,,,,,,,,,,,,,,,,,,,,,,,,,,,,,,,,,698.7081859000027,,696.9056876999093,696.9056876999093,696.9056876999093,696.9056876999093,old_sceneIn_12.png,148,3.0,1.8047194000100717,,,029,10,2025-01-23_14h18.52.901,Surprise recog test,2023.1.3,59.94700684719856,
148,0,148,0,,,,,,,,,,,,,,,,,,,,,,,,,,,,,,,,,,702.2508797999471,703.2760202999925,699.7283562999219,699.7283562999219,699.7283562999219,699.7283562999219,old_sceneIn_14.png,149,4.0,2.5176811000565067,,,029,10,2025-01-23_14h18.52.901,Surprise recog test,2023.1.3,59.94700684719856,
149,0,149,0,,,,,,,,,,,,,,,,,,,,,,,,,,,,,,,,,,703.9384416999528,704.9511746999342,703.2760202999925,703.2760202999925,703.2760202999925,703.2760202999925,old_sceneOut_50.png,150,4.0,0.6627494000131264,,,029,10,2025-01-23_14h18.52.901,Surprise recog test,2023.1.3,59.94700684719856,
150,0,150,0,,,,,,,,,,,,,,,,,,,,,,,,,,,,,,,,,,706.1557580999797,707.1804438999388,704.9511746999342,704.9511746999342,704.9511746999342,704.9511746999342,new_stationery_25.png,151,4.0,1.2018750000279397,,,029,10,2025-01-23_14h18.52.901,Surprise recog test,2023.1.3,59.94700684719856,
151,0,151,0,,,,,,,,,,,,,,,,,,,,,,,,,,,,,,,,,,707.8798340999056,708.894138099975,707.1804438999388,707.1804438999388,707.1804438999388,707.1804438999388,new_sceneIn_45.png,152,4.0,0.7014018000336364,,,029,10,2025-01-23_14h18.52.901,Surprise recog test,2023.1.3,59.94700684719856,
152,0,152,0,,,,,,,,,,,,,,,,,,,,,,,,,,,,,,,,,,709.5214199000038,710.5505549999652,708.894138099975,708.894138099975,708.894138099975,708.894138099975,old_sceneOut_40.png,153,4.0,0.6230682999594137,,,029,10,2025-01-23_14h18.52.901,Surprise recog test,2023.1.3,59.94700684719856,
153,0,153,0,,,,,,,,,,,,,,,,,,,,,,,,,,,,,,,,,,711.2643378999783,712.2854763999349,710.5505549999652,710.5505549999652,710.5505549999652,710.5505549999652,new_sceneIn_13.png,154,4.0,0.7141985000343993,,,029,10,2025-01-23_14h18.52.901,Surprise recog test,2023.1.3,59.94700684719856,
154,0,154,0,,,,,,,,,,,,,,,,,,,,,,,,,,,,,,,,,,713.5165902998997,714.5301491999999,712.2854763999349,712.2854763999349,712.2854763999349,712.2854763999349,new_fruit_48.png,155,3.0,1.2300962000153959,,,029,10,2025-01-23_14h18.52.901,Surprise recog test,2023.1.3,59.94700684719856,
155,0,155,0,,,,,,,,,,,,,,,,,,,,,,,,,,,,,,,,,,715.5647067999234,716.5822241000133,714.5301491999999,714.5301491999999,714.5301491999999,714.5301491999999,new_sceneOut_12.png,156,3.0,1.0340810000197962,,,029,10,2025-01-23_14h18.52.901,Surprise recog test,2023.1.3,59.94700684719856,
156,0,156,0,,,,,,,,,,,,,,,,,,,,,,,,,,,,,,,,,,717.7865669999737,718.8103693999583,716.5822241000133,716.5822241000133,716.5822241000133,716.5822241000133,new_sceneOut_13.png,157,5.0,1.1978029999881983,,,029,10,2025-01-23_14h18.52.901,Surprise recog test,2023.1.3,59.94700684719856,
157,0,157,0,,,,,,,,,,,,,,,,,,,,,,,,,,,,,,,,,,720.0494254999794,721.0782596999779,718.8103693999583,718.8103693999583,718.8103693999583,718.8103693999583,old_stationery_2.png,158,4.0,1.2421407999936491,,,029,10,2025-01-23_14h18.52.901,Surprise recog test,2023.1.3,59.94700684719856,
158,0,158,0,,,,,,,,,,,,,,,,,,,,,,,,,,,,,,,,,,722.1623041999992,723.1893061998999,721.0782596999779,721.0782596999779,721.0782596999779,721.0782596999779,old_sceneIn_45.png,159,4.0,1.0844498999649659,,,029,10,2025-01-23_14h18.52.901,Surprise recog test,2023.1.3,59.94700684719856,
159,0,159,0,,,,,,,,,,,,,,,,,,,,,,,,,,,,,,,,,,723.8068644999294,724.8265176999848,723.1893061998999,723.1893061998999,723.1893061998999,723.1893061998999,new_sceneOut_29.png,160,4.0,0.6165680000558496,,,029,10,2025-01-23_14h18.52.901,Surprise recog test,2023.1.3,59.94700684719856,
160,0,160,0,,,,,,,,,,,,,,,,,,,,,,,,,,,,,,,,,,726.1830709999194,727.2138558999868,724.8265176999848,724.8265176999848,724.8265176999848,724.8265176999848,old_sceneIn_2.png,161,4.0,1.3585274000652134,,,029,10,2025-01-23_14h18.52.901,Surprise recog test,2023.1.3,59.94700684719856,
161,0,161,0,,,,,,,,,,,,,,,,,,,,,,,,,,,,,,,,,,729.3309019999579,730.3380670999177,727.2138558999868,727.2138558999868,727.2138558999868,727.2138558999868,old_sceneIn_44.png,162,4.0,2.1179832000052556,,,029,10,2025-01-23_14h18.52.901,Surprise recog test,2023.1.3,59.94700684719856,
162,0,162,0,,,,,,,,,,,,,,,,,,,,,,,,,,,,,,,,,,733.6707492999267,,730.3380670999177,730.3380670999177,730.3380670999177,730.3380670999177,new_sceneOut_6.png,163,5.0,3.3281534999841824,,,029,10,2025-01-23_14h18.52.901,Surprise recog test,2023.1.3,59.94700684719856,
163,0,163,0,,,,,,,,,,,,,,,,,,,,,,,,,,,,,,,,,,736.2762644999893,737.3070090999827,734.6911221999908,734.6911221999908,734.6911221999908,734.6911221999908,new_fruit_5.png,164,2.0,1.5812852999661118,,,029,10,2025-01-23_14h18.52.901,Surprise recog test,2023.1.3,59.94700684719856,
164,0,164,0,,,,,,,,,,,,,,,,,,,,,,,,,,,,,,,,,,738.1801535999402,739.2023631999036,737.3070090999827,737.3070090999827,737.3070090999827,737.3070090999827,old_sceneOut_26.png,165,3.0,0.8760852999985218,,,029,10,2025-01-23_14h18.52.901,Surprise recog test,2023.1.3,59.94700684719856,
165,0,165,0,,,,,,,,,,,,,,,,,,,,,,,,,,,,,,,,,,739.821549699991,740.8400497999974,739.2023631999036,739.2023631999036,739.2023631999036,739.2023631999036,old_fruit_45.png,166,3.0,0.6179461000720039,,,029,10,2025-01-23_14h18.52.901,Surprise recog test,2023.1.3,59.94700684719856,
166,0,166,0,,,,,,,,,,,,,,,,,,,,,,,,,,,,,,,,,,741.9163336999482,742.9429722999921,740.8400497999974,740.8400497999974,740.8400497999974,740.8400497999974,old_sceneOut_22.png,167,4.0,1.0754809000063688,,,029,10,2025-01-23_14h18.52.901,Surprise recog test,2023.1.3,59.94700684719856,
167,0,167,0,,,,,,,,,,,,,,,,,,,,,,,,,,,,,,,,,,743.8834914999316,744.9047497999854,742.9429722999921,742.9429722999921,742.9429722999921,742.9429722999921,old_fruit_21.png,168,3.0,0.9416935999179259,,,029,10,2025-01-23_14h18.52.901,Surprise recog test,2023.1.3,59.94700684719856,
168,0,168,0,,,,,,,,,,,,,,,,,,,,,,,,,,,,,,,,,,745.7852786999429,746.8014915999956,744.9047497999854,744.9047497999854,744.9047497999854,744.9047497999854,new_sceneOut_26.png,169,3.0,0.8746751999715343,,,029,10,2025-01-23_14h18.52.901,Surprise recog test,2023.1.3,59.94700684719856,
169,0,169,0,,,,,,,,,,,,,,,,,,,,,,,,,,,,,,,,,,748.0783219999867,749.0989242999349,746.8014915999956,746.8014915999956,746.8014915999956,746.8014915999956,old_fruit_16.png,170,2.0,1.2660668999888003,,,029,10,2025-01-23_14h18.52.901,Surprise recog test,2023.1.3,59.94700684719856,
170,0,170,0,,,,,,,,,,,,,,,,,,,,,,,,,,,,,,,,,,750.2136033999268,751.2335273999488,749.0989242999349,749.0989242999349,749.0989242999349,749.0989242999349,old_sceneOut_33.png,171,4.0,1.1098822000203654,,,029,10,2025-01-23_14h18.52.901,Surprise recog test,2023.1.3,59.94700684719856,
171,0,171,0,,,,,,,,,,,,,,,,,,,,,,,,,,,,,,,,,,753.6468869999517,754.6708527998999,751.2335273999488,751.2335273999488,751.2335273999488,751.2335273999488,old_sceneIn_29.png,172,4.0,2.414005799917504,,,029,10,2025-01-23_14h18.52.901,Surprise recog test,2023.1.3,59.94700684719856,
172,0,172,0,,,,,,,,,,,,,,,,,,,,,,,,,,,,,,,,,,757.0609768999275,758.0915945000015,754.6708527998999,754.6708527998999,754.6708527998999,754.6708527998999,old_sceneIn_30.png,173,3.0,2.392837400082499,,,029,10,2025-01-23_14h18.52.901,Surprise recog test,2023.1.3,59.94700684719856,
173,0,173,0,,,,,,,,,,,,,,,,,,,,,,,,,,,,,,,,,,758.9009301000042,759.9141200999729,758.0915945000015,758.0915945000015,758.0915945000015,758.0915945000015,new_sceneIn_19.png,174,3.0,0.8119854999240488,,,029,10,2025-01-23_14h18.52.901,Surprise recog test,2023.1.3,59.94700684719856,
174,0,174,0,,,,,,,,,,,,,,,,,,,,,,,,,,,,,,,,,,760.8146121999016,761.8421472999034,759.9141200999729,759.9141200999729,759.9141200999729,759.9141200999729,old_stationery_44.png,175,4.0,0.8970215000445023,,,029,10,2025-01-23_14h18.52.901,Surprise recog test,2023.1.3,59.94700684719856,
175,0,175,0,,,,,,,,,,,,,,,,,,,,,,,,,,,,,,,,,,763.157543499954,764.176750899991,761.8421472999034,761.8421472999034,761.8421472999034,761.8421472999034,old_sceneOut_49.png,176,4.0,1.3106532000238076,,,029,10,2025-01-23_14h18.52.901,Surprise recog test,2023.1.3,59.94700684719856,
176,0,176,0,,,,,,,,,,,,,,,,,,,,,,,,,,,,,,,,,,764.864516499918,765.9009916000068,764.176750899991,764.176750899991,764.176750899991,764.176750899991,old_sceneOut_31.png,177,4.0,0.688723599887453,,,029,10,2025-01-23_14h18.52.901,Surprise recog test,2023.1.3,59.94700684719856,
177,0,177,0,,,,,,,,,,,,,,,,,,,,,,,,,,,,,,,,,,767.5363195999525,768.5662213999312,765.9009916000068,765.9009916000068,765.9009916000068,765.9009916000068,new_stationery_24.png,178,3.0,1.6410566000267863,,,029,10,2025-01-23_14h18.52.901,Surprise recog test,2023.1.3,59.94700684719856,
178,0,178,0,,,,,,,,,,,,,,,,,,,,,,,,,,,,,,,,,,769.2625959999859,770.2826709999936,768.5662213999312,768.5662213999312,768.5662213999312,768.5662213999312,old_fruit_48.png,179,3.0,0.696267900057137,,,029,10,2025-01-23_14h18.52.901,Surprise recog test,2023.1.3,59.94700684719856,
179,0,179,0,,,,,,,,,,,,,,,,,,,,,,,,,,,,,,,,,,771.2954692000058,772.3175147000002,770.2826709999936,770.2826709999936,770.2826709999936,770.2826709999936,new_fruit_11.png,180,2.0,1.0149194999830797,,,029,10,2025-01-23_14h18.52.901,Surprise recog test,2023.1.3,59.94700684719856,
180,0,180,0,,,,,,,,,,,,,,,,,,,,,,,,,,,,,,,,,,773.0991876999615,774.1144260999281,772.3175147000002,772.3175147000002,772.3175147000002,772.3175147000002,new_fruit_25.png,181,3.0,0.7775482001015916,,,029,10,2025-01-23_14h18.52.901,Surprise recog test,2023.1.3,59.94700684719856,
181,0,181,0,,,,,,,,,,,,,,,,,,,,,,,,,,,,,,,,,,775.0842092999956,776.1120284999488,774.1144260999281,774.1144260999281,774.1144260999281,774.1144260999281,old_sceneIn_39.png,182,4.0,0.9657940999604762,,,029,10,2025-01-23_14h18.52.901,Surprise recog test,2023.1.3,59.94700684719856,
182,0,182,0,,,,,,,,,,,,,,,,,,,,,,,,,,,,,,,,,,776.7965296999319,777.8160730999662,776.1120284999488,776.1120284999488,776.1120284999488,776.1120284999488,new_stationery_44.png,183,4.0,0.6874987001065165,,,029,10,2025-01-23_14h18.52.901,Surprise recog test,2023.1.3,59.94700684719856,
183,0,183,0,,,,,,,,,,,,,,,,,,,,,,,,,,,,,,,,,,778.5820114999078,779.5948202,777.8160730999662,777.8160730999662,777.8160730999662,777.8160730999662,old_sceneOut_28.png,184,3.0,0.7620381999295205,,,029,10,2025-01-23_14h18.52.901,Surprise recog test,2023.1.3,59.94700684719856,
184,0,184,0,,,,,,,,,,,,,,,,,,,,,,,,,,,,,,,,,,780.2371884000022,781.2436883999035,779.5948202,779.5948202,779.5948202,779.5948202,old_stationery_17.png,185,3.0,0.63729450001847,,,029,10,2025-01-23_14h18.52.901,Surprise recog test,2023.1.3,59.94700684719856,
185,0,185,0,,,,,,,,,,,,,,,,,,,,,,,,,,,,,,,,,,782.0606356000062,,781.2436883999035,781.2436883999035,781.2436883999035,781.2436883999035,new_sceneIn_4.png,186,3.0,0.8142500000540167,,,029,10,2025-01-23_14h18.52.901,Surprise recog test,2023.1.3,59.94700684719856,
186,0,186,0,,,,,,,,,,,,,,,,,,,,,,,,,,,,,,,,,,783.875305900001,784.8965960999485,783.0808735999744,783.0808735999744,783.0808735999744,783.0808735999744,old_fruit_14.png,187,4.0,0.7880227999994531,,,029,10,2025-01-23_14h18.52.901,Surprise recog test,2023.1.3,59.94700684719856,
187,0,187,0,,,,,,,,,,,,,,,,,,,,,,,,,,,,,,,,,,785.8155202999478,786.834770699963,784.8965960999485,784.8965960999485,784.8965960999485,784.8965960999485,new_sceneIn_25.png,188,3.0,0.9213652000762522,,,029,10,2025-01-23_14h18.52.901,Surprise recog test,2023.1.3,59.94700684719856,
188,0,188,0,,,,,,,,,,,,,,,,,,,,,,,,,,,,,,,,,,787.8781746999593,788.8867700999836,786.834770699963,786.834770699963,786.834770699963,786.834770699963,new_stationery_40.png,189,3.0,1.0366915999911726,,,029,10,2025-01-23_14h18.52.901,Surprise recog test,2023.1.3,59.94700684719856,
189,0,189,0,,,,,,,,,,,,,,,,,,,,,,,,,,,,,,,,,,790.5055671998998,791.5219052999746,788.8867700999836,788.8867700999836,788.8867700999836,788.8867700999836,old_fruit_18.png,190,1.0,1.6146466999780387,,,029,10,2025-01-23_14h18.52.901,Surprise recog test,2023.1.3,59.94700684719856,
190,0,190,0,,,,,,,,,,,,,,,,,,,,,,,,,,,,,,,,,,793.0888578000013,794.1187564999564,791.5219052999746,791.5219052999746,791.5219052999746,791.5219052999746,old_stationery_36.png,191,1.0,1.5620749000227079,,,029,10,2025-01-23_14h18.52.901,Surprise recog test,2023.1.3,59.94700684719856,
191,0,191,0,,,,,,,,,,,,,,,,,,,,,,,,,,,,,,,,,,795.1259038000135,796.1561186999315,794.1187564999564,794.1187564999564,794.1187564999564,794.1187564999564,new_stationery_47.png,192,2.0,1.0086640999652445,,,029,10,2025-01-23_14h18.52.901,Surprise recog test,2023.1.3,59.94700684719856,
192,0,192,0,,,,,,,,,,,,,,,,,,,,,,,,,,,,,,,,,,797.026390499901,798.0443725999212,796.1561186999315,796.1561186999315,796.1561186999315,796.1561186999315,old_stationery_40.png,193,2.0,0.8719332000473514,,,029,10,2025-01-23_14h18.52.901,Surprise recog test,2023.1.3,59.94700684719856,
193,0,193,0,,,,,,,,,,,,,,,,,,,,,,,,,,,,,,,,,,799.0954692999367,800.1264142999426,798.0443725999212,798.0443725999212,798.0443725999212,798.0443725999212,new_sceneIn_18.png,194,3.0,1.0449311999836937,,,029,10,2025-01-23_14h18.52.901,Surprise recog test,2023.1.3,59.94700684719856,
194,0,194,0,,,,,,,,,,,,,,,,,,,,,,,,,,,,,,,,,,801.0052098999731,802.0116723999381,800.1264142999426,800.1264142999426,800.1264142999426,800.1264142999426,old_sceneIn_27.png,195,3.0,0.8802618000190705,,,029,10,2025-01-23_14h18.52.901,Surprise recog test,2023.1.3,59.94700684719856,
195,0,195,0,,,,,,,,,,,,,,,,,,,,,,,,,,,,,,,,,,802.9239152999362,803.9459893999156,802.0116723999381,802.0116723999381,802.0116723999381,802.0116723999381,new_sceneOut_8.png,196,4.0,0.9050496999407187,,,029,10,2025-01-23_14h18.52.901,Surprise recog test,2023.1.3,59.94700684719856,
196,0,196,0,,,,,,,,,,,,,,,,,,,,,,,,,,,,,,,,,,804.6754893999314,805.6986384999473,803.9459893999156,803.9459893999156,803.9459893999156,803.9459893999156,old_fruit_6.png,197,3.0,0.7253755000419915,,,029,10,2025-01-23_14h18.52.901,Surprise recog test,2023.1.3,59.94700684719856,
197,0,197,0,,,,,,,,,,,,,,,,,,,,,,,,,,,,,,,,,,806.2531270999461,807.2689977999544,805.6986384999473,805.6986384999473,805.6986384999473,805.6986384999473,new_sceneOut_43.png,198,3.0,0.5581279000034556,,,029,10,2025-01-23_14h18.52.901,Surprise recog test,2023.1.3,59.94700684719856,
198,0,198,0,,,,,,,,,,,,,,,,,,,,,,,,,,,,,,,,,,808.0333749999991,809.0646229999838,807.2689977999544,807.2689977999544,807.2689977999544,807.2689977999544,old_sceneOut_47.png,199,4.0,0.7606800999492407,,,029,10,2025-01-23_14h18.52.901,Surprise recog test,2023.1.3,59.94700684719856,
199,0,199,0,,,,,,,,,,,,,,,,,,,,,,,,,,,,,,,,,,809.8307035999605,810.8488884000108,809.0646229999838,809.0646229999838,809.0646229999838,809.0646229999838,old_stationery_3.png,200,3.0,0.7650473000248894,,,029,10,2025-01-23_14h18.52.901,Surprise recog test,2023.1.3,59.94700684719856,
200,0,200,0,,,,,,,,,,,,,,,,,,,,,,,,,,,,,,,,,,811.6699667999055,812.7027045999421,810.8488884000108,810.8488884000108,810.8488884000108,810.8488884000108,new_stationery_31.png,201,3.0,0.8227343999315053,,,029,10,2025-01-23_14h18.52.901,Surprise recog test,2023.1.3,59.94700684719856,
201,0,201,0,,,,,,,,,,,,,,,,,,,,,,,,,,,,,,,,,,813.3877525000134,814.4082380000036,812.7027045999421,812.7027045999421,812.7027045999421,812.7027045999421,new_fruit_27.png,202,2.0,0.6870601999107748,,,029,10,2025-01-23_14h18.52.901,Surprise recog test,2023.1.3,59.94700684719856,
202,0,202,0,,,,,,,,,,,,,,,,,,,,,,,,,,,,,,,,,,815.3178720999276,816.3358026999049,814.4082380000036,814.4082380000036,814.4082380000036,814.4082380000036,new_sceneIn_37.png,203,4.0,0.9053383000427857,,,029,10,2025-01-23_14h18.52.901,Surprise recog test,2023.1.3,59.94700684719856,
203,0,203,0,,,,,,,,,,,,,,,,,,,,,,,,,,,,,,,,,,817.2972964999499,818.327299800003,816.3358026999049,816.3358026999049,816.3358026999049,816.3358026999049,old_fruit_19.png,204,4.0,0.9632595999864861,,,029,10,2025-01-23_14h18.52.901,Surprise recog test,2023.1.3,59.94700684719856,
204,0,204,0,,,,,,,,,,,,,,,,,,,,,,,,,,,,,,,,,,818.9873398999916,820.0099508999847,818.327299800003,818.327299800003,818.327299800003,818.327299800003,new_stationery_26.png,205,3.0,0.6627864999463782,,,029,10,2025-01-23_14h18.52.901,Surprise recog test,2023.1.3,59.94700684719856,
205,0,205,0,,,,,,,,,,,,,,,,,,,,,,,,,,,,,,,,,,820.6802501999773,821.7075928999111,820.0099508999847,820.0099508999847,820.0099508999847,820.0099508999847,new_sceneOut_39.png,206,2.0,0.6737778000533581,,,029,10,2025-01-23_14h18.52.901,Surprise recog test,2023.1.3,59.94700684719856,
206,0,206,0,,,,,,,,,,,,,,,,,,,,,,,,,,,,,,,,,,822.2800551999826,823.3110454999842,821.7075928999111,821.7075928999111,821.7075928999111,821.7075928999111,old_stationery_34.png,207,3.0,0.5730636999942362,,,029,10,2025-01-23_14h18.52.901,Surprise recog test,2023.1.3,59.94700684719856,
207,0,207,0,,,,,,,,,,,,,,,,,,,,,,,,,,,,,,,,,,823.7769023999572,,823.3110454999842,823.3110454999842,823.3110454999842,823.3110454999842,old_fruit_2.png,208,3.0,0.46850660000927746,,,029,10,2025-01-23_14h18.52.901,Surprise recog test,2023.1.3,59.94700684719856,
208,0,208,0,,,,,,,,,,,,,,,,,,,,,,,,,,,,,,,,,,825.3197694999399,826.3478194999043,824.7990543999476,824.7990543999476,824.7990543999476,824.7990543999476,new_sceneOut_11.png,209,3.0,0.5134290000423789,,,029,10,2025-01-23_14h18.52.901,Surprise recog test,2023.1.3,59.94700684719856,
209,0,209,0,,,,,,,,,,,,,,,,,,,,,,,,,,,,,,,,,,827.0044085999252,828.0299461999675,826.3478194999043,826.3478194999043,826.3478194999043,826.3478194999043,old_sceneOut_17.png,210,2.0,0.6576382000930607,,,029,10,2025-01-23_14h18.52.901,Surprise recog test,2023.1.3,59.94700684719856,
210,0,210,0,,,,,,,,,,,,,,,,,,,,,,,,,,,,,,,,,,829.0037775000092,830.0322817999404,828.0299461999675,828.0299461999675,828.0299461999675,828.0299461999675,new_sceneIn_36.png,211,3.0,0.9783407000359148,,,029,10,2025-01-23_14h18.52.901,Surprise recog test,2023.1.3,59.94700684719856,
211,0,211,0,,,,,,,,,,,,,,,,,,,,,,,,,,,,,,,,,,831.1992817999562,832.2163200000068,830.0322817999404,830.0322817999404,830.0322817999404,830.0322817999404,old_fruit_47.png,212,1.0,1.1664439999731258,,,029,10,2025-01-23_14h18.52.901,Surprise recog test,2023.1.3,59.94700684719856,
212,0,212,0,,,,,,,,,,,,,,,,,,,,,,,,,,,,,,,,,,833.3834608999314,834.4010857999092,832.2163200000068,832.2163200000068,832.2163200000068,832.2163200000068,new_sceneOut_41.png,213,2.0,1.1694601000053808,,,029,10,2025-01-23_14h18.52.901,Surprise recog test,2023.1.3,59.94700684719856,
213,0,213,0,,,,,,,,,,,,,,,,,,,,,,,,,,,,,,,,,,835.0478336999658,836.0584914999781,834.4010857999092,834.4010857999092,834.4010857999092,834.4010857999092,old_fruit_20.png,214,2.0,0.6507383000571281,,,029,10,2025-01-23_14h18.52.901,Surprise recog test,2023.1.3,59.94700684719856,
214,0,214,0,,,,,,,,,,,,,,,,,,,,,,,,,,,,,,,,,,836.6142603999469,837.6385592999868,836.0584914999781,836.0584914999781,836.0584914999781,836.0584914999781,new_fruit_12.png,215,4.0,0.5489139000419527,,,029,10,2025-01-23_14h18.52.901,Surprise recog test,2023.1.3,59.94700684719856,
215,0,215,0,,,,,,,,,,,,,,,,,,,,,,,,,,,,,,,,,,838.1141377999447,839.1399840000086,837.6385592999868,837.6385592999868,837.6385592999868,837.6385592999868,new_fruit_49.png,216,3.0,0.47759240004234016,,,029,10,2025-01-23_14h18.52.901,Surprise recog test,2023.1.3,59.94700684719856,
216,0,216,0,,,,,,,,,,,,,,,,,,,,,,,,,,,,,,,,,,839.8536558999913,840.875705699902,839.1399840000086,839.1399840000086,839.1399840000086,839.1399840000086,old_stationery_49.png,217,3.0,0.7139722999418154,,,029,10,2025-01-23_14h18.52.901,Surprise recog test,2023.1.3,59.94700684719856,
217,0,217,0,,,,,,,,,,,,,,,,,,,,,,,,,,,,,,,,,,841.5412893999601,842.55851969996,840.875705699902,840.875705699902,840.875705699902,840.875705699902,old_stationery_11.png,218,3.0,0.6685912000248209,,,029,10,2025-01-23_14h18.52.901,Surprise recog test,2023.1.3,59.94700684719856,
218,0,218,0,,,,,,,,,,,,,,,,,,,,,,,,,,,,,,,,,,843.2917651999742,844.2995452999603,842.55851969996,842.55851969996,842.55851969996,842.55851969996,new_stationery_21.png,219,3.0,0.7341117999749258,,,029,10,2025-01-23_14h18.52.901,Surprise recog test,2023.1.3,59.94700684719856,
219,0,219,0,,,,,,,,,,,,,,,,,,,,,,,,,,,,,,,,,,844.7939201999689,845.8031976999482,844.2995452999603,844.2995452999603,844.2995452999603,844.2995452999603,old_sceneIn_28.png,220,2.0,0.48967060004360974,,,029,10,2025-01-23_14h18.52.901,Surprise recog test,2023.1.3,59.94700684719856,
220,0,220,0,,,,,,,,,,,,,,,,,,,,,,,,,,,,,,,,,,846.3601468999404,847.3761113999644,845.8031976999482,845.8031976999482,845.8031976999482,845.8031976999482,new_fruit_26.png,221,4.0,0.5510857999324799,,,029,10,2025-01-23_14h18.52.901,Surprise recog test,2023.1.3,59.94700684719856,
221,0,221,0,,,,,,,,,,,,,,,,,,,,,,,,,,,,,,,,,,848.2639437000034,,847.3761113999644,847.3761113999644,847.3761113999644,847.3761113999644,new_fruit_33.png,222,3.0,0.8894572000717744,,,029,10,2025-01-23_14h18.52.901,Surprise recog test,2023.1.3,59.94700684719856,
222,0,222,0,,,,,,,,,,,,,,,,,,,,,,,,,,,,,,,,,,850.1132586000022,851.1324321000138,849.2919171999674,849.2919171999674,849.2919171999674,849.2919171999674,old_sceneIn_24.png,223,2.0,0.8210839999374002,,,029,10,2025-01-23_14h18.52.901,Surprise recog test,2023.1.3,59.94700684719856,
223,0,223,0,,,,,,,,,,,,,,,,,,,,,,,,,,,,,,,,,,851.8081947999308,852.8362720999867,851.1324321000138,851.1324321000138,851.1324321000138,851.1324321000138,new_sceneOut_1.png,224,3.0,0.6775614999933168,,,029,10,2025-01-23_14h18.52.901,Surprise recog test,2023.1.3,59.94700684719856,
224,0,224,0,,,,,,,,,,,,,,,,,,,,,,,,,,,,,,,,,,853.6661850999808,854.6756846999051,852.8362720999867,852.8362720999867,852.8362720999867,852.8362720999867,old_fruit_39.png,225,2.0,0.8283034000778571,,,029,10,2025-01-23_14h18.52.901,Surprise recog test,2023.1.3,59.94700684719856,
225,0,225,0,,,,,,,,,,,,,,,,,,,,,,,,,,,,,,,,,,855.2345610999037,856.24712179997,854.6756846999051,854.6756846999051,854.6756846999051,854.6756846999051,new_sceneOut_40.png,226,2.0,0.5553897999925539,,,029,10,2025-01-23_14h18.52.901,Surprise recog test,2023.1.3,59.94700684719856,
226,0,226,0,,,,,,,,,,,,,,,,,,,,,,,,,,,,,,,,,,856.7020644999575,857.7233762999531,856.24712179997,856.24712179997,856.24712179997,856.24712179997,old_sceneOut_11.png,227,3.0,0.4490454000188038,,,029,10,2025-01-23_14h18.52.901,Surprise recog test,2023.1.3,59.94700684719856,
227,0,227,0,,,,,,,,,,,,,,,,,,,,,,,,,,,,,,,,,,858.3797780999448,859.407217699918,857.7233762999531,857.7233762999531,857.7233762999531,857.7233762999531,old_sceneIn_34.png,228,4.0,0.6567920000525191,,,029,10,2025-01-23_14h18.52.901,Surprise recog test,2023.1.3,59.94700684719856,
228,0,228,0,,,,,,,,,,,,,,,,,,,,,,,,,,,,,,,,,,860.1529826999176,861.1764072999358,859.407217699918,859.407217699918,859.407217699918,859.407217699918,new_sceneIn_34.png,229,3.0,0.7479458999587223,,,029,10,2025-01-23_14h18.52.901,Surprise recog test,2023.1.3,59.94700684719856,
229,0,229,0,,,,,,,,,,,,,,,,,,,,,,,,,,,,,,,,,,861.9635527000064,862.9956525999587,861.1764072999358,861.1764072999358,861.1764072999358,861.1764072999358,new_sceneIn_33.png,230,4.0,0.7896048999391496,,,029,10,2025-01-23_14h18.52.901,Surprise recog test,2023.1.3,59.94700684719856,
230,0,230,0,,,,,,,,,,,,,,,,,,,,,,,,,,,,,,,,,,863.6291181999259,864.649920900003,862.9956525999587,862.9956525999587,862.9956525999587,862.9956525999587,new_sceneIn_29.png,231,4.0,0.6369757000356913,,,029,10,2025-01-23_14h18.52.901,Surprise recog test,2023.1.3,59.94700684719856,
231,0,231,0,,,,,,,,,,,,,,,,,,,,,,,,,,,,,,,,,,865.4201918999897,866.4496302999323,864.649920900003,864.649920900003,864.649920900003,864.649920900003,old_stationery_32.png,232,4.0,0.7669047999661416,,,029,10,2025-01-23_14h18.52.901,Surprise recog test,2023.1.3,59.94700684719856,
232,0,232,0,,,,,,,,,,,,,,,,,,,,,,,,,,,,,,,,,,867.2129943999462,,866.4496302999323,866.4496302999323,866.4496302999323,866.4496302999323,new_sceneOut_46.png,233,3.0,0.7667855999898165,,,029,10,2025-01-23_14h18.52.901,Surprise recog test,2023.1.3,59.94700684719856,
233,0,233,0,,,,,,,,,,,,,,,,,,,,,,,,,,,,,,,,,,869.1790754999965,870.1885982999811,868.2348840999184,868.2348840999184,868.2348840999184,868.2348840999184,old_fruit_26.png,234,2.0,0.9364272999810055,,,029,10,2025-01-23_14h18.52.901,Surprise recog test,2023.1.3,59.94700684719856,
234,0,234,0,,,,,,,,,,,,,,,,,,,,,,,,,,,,,,,,,,870.8264537999639,871.8510308999103,870.1885982999811,870.1885982999811,870.1885982999811,870.1885982999811,old_sceneIn_3.png,235,5.0,0.6335470000049099,,,029,10,2025-01-23_14h18.52.901,Surprise recog test,2023.1.3,59.94700684719856,
235,0,235,0,,,,,,,,,,,,,,,,,,,,,,,,,,,,,,,,,,872.4982314999215,873.5180635999423,871.8510308999103,871.8510308999103,871.8510308999103,871.8510308999103,new_sceneOut_30.png,236,3.0,0.6487478000344709,,,029,10,2025-01-23_14h18.52.901,Surprise recog test,2023.1.3,59.94700684719856,
236,0,236,0,,,,,,,,,,,,,,,,,,,,,,,,,,,,,,,,,,874.350574699929,875.3718609999632,873.5180635999423,873.5180635999423,873.5180635999423,873.5180635999423,new_sceneIn_23.png,237,3.0,0.8337664999999106,,,029,10,2025-01-23_14h18.52.901,Surprise recog test,2023.1.3,59.94700684719856,
237,0,237,0,,,,,,,,,,,,,,,,,,,,,,,,,,,,,,,,,,875.8732974999584,876.904581299983,875.3718609999632,875.3718609999632,875.3718609999632,875.3718609999632,new_sceneOut_48.png,238,4.0,0.5027422000421211,,,029,10,2025-01-23_14h18.52.901,Surprise recog test,2023.1.3,59.94700684719856,
238,0,238,0,,,,,,,,,,,,,,,,,,,,,,,,,,,,,,,,,,878.3455142999301,879.3617052999325,876.904581299983,876.904581299983,876.904581299983,876.904581299983,old_fruit_33.png,239,2.0,1.4426229000091553,,,029,10,2025-01-23_14h18.52.901,Surprise recog test,2023.1.3,59.94700684719856,
239,0,239,0,,,,,,,,,,,,,,,,,,,,,,,,,,,,,,,,,,879.9008159999503,880.9188039000146,879.3617052999325,879.3617052999325,879.3617052999325,879.3617052999325,old_fruit_7.png,240,2.0,0.5346393999643624,,,029,10,2025-01-23_14h18.52.901,Surprise recog test,2023.1.3,59.94700684719856,
240,0,240,0,,,,,,,,,,,,,,,,,,,,,,,,,,,,,,,,,,881.5785712999059,882.5991354999132,880.9188039000146,880.9188039000146,880.9188039000146,880.9188039000146,old_stationery_5.png,241,4.0,0.6571270999265835,,,029,10,2025-01-23_14h18.52.901,Surprise recog test,2023.1.3,59.94700684719856,
241,0,241,0,,,,,,,,,,,,,,,,,,,,,,,,,,,,,,,,,,883.3262299000053,884.344674599939,882.5991354999132,882.5991354999132,882.5991354999132,882.5991354999132,new_stationery_9.png,242,5.0,0.7230159000027925,,,029,10,2025-01-23_14h18.52.901,Surprise recog test,2023.1.3,59.94700684719856,
242,0,242,0,,,,,,,,,,,,,,,,,,,,,,,,,,,,,,,,,,885.0381222999422,886.0509071999695,884.344674599939,884.344674599939,884.344674599939,884.344674599939,old_stationery_46.png,243,3.0,0.692618599976413,,,029,10,2025-01-23_14h18.52.901,Surprise recog test,2023.1.3,59.94700684719856,
243,0,243,0,,,,,,,,,,,,,,,,,,,,,,,,,,,,,,,,,,886.8826724999817,887.9132915999508,886.0509071999695,886.0509071999695,886.0509071999695,886.0509071999695,old_fruit_46.png,244,2.0,0.823341800016351,,,029,10,2025-01-23_14h18.52.901,Surprise recog test,2023.1.3,59.94700684719856,
244,0,244,0,,,,,,,,,,,,,,,,,,,,,,,,,,,,,,,,,,888.4721433999948,889.4871161999181,887.9132915999508,887.9132915999508,887.9132915999508,887.9132915999508,old_sceneOut_18.png,245,2.0,0.5610433999681845,,,029,10,2025-01-23_14h18.52.901,Surprise recog test,2023.1.3,59.94700684719856,
245,0,245,0,,,,,,,,,,,,,,,,,,,,,,,,,,,,,,,,,,890.1603740999708,891.1851089999545,889.4871161999181,889.4871161999181,889.4871161999181,889.4871161999181,old_sceneOut_41.png,246,2.0,0.6670378000708297,,,029,10,2025-01-23_14h18.52.901,Surprise recog test,2023.1.3,59.94700684719856,
246,0,246,0,,,,,,,,,,,,,,,,,,,,,,,,,,,,,,,,,,891.9640382999787,892.9712995999726,891.1851089999545,891.1851089999545,891.1851089999545,891.1851089999545,new_fruit_2.png,247,2.0,0.7808308000676334,,,029,10,2025-01-23_14h18.52.901,Surprise recog test,2023.1.3,59.94700684719856,
247,0,247,0,,,,,,,,,,,,,,,,,,,,,,,,,,,,,,,,,,894.4349965999136,895.4492894000141,892.9712995999726,892.9712995999726,892.9712995999726,892.9712995999726,old_sceneIn_19.png,248,2.0,1.4610994999529794,,,029,10,2025-01-23_14h18.52.901,Surprise recog test,2023.1.3,59.94700684719856,
248,0,248,0,,,,,,,,,,,,,,,,,,,,,,,,,,,,,,,,,,897.552579500014,898.5751295000082,895.4492894000141,895.4492894000141,895.4492894000141,895.4492894000141,old_stationery_42.png,249,3.0,2.1037820000201464,,,029,10,2025-01-23_14h18.52.901,Surprise recog test,2023.1.3,59.94700684719856,
249,0,249,0,,,,,,,,,,,,,,,,,,,,,,,,,,,,,,,,,,899.4617390999338,900.4917411999777,898.5751295000082,898.5751295000082,898.5751295000082,898.5751295000082,old_sceneIn_36.png,250,3.0,0.8879192000022158,,,029,10,2025-01-23_14h18.52.901,Surprise recog test,2023.1.3,59.94700684719856,
250,0,250,0,,,,,,,,,,,,,,,,,,,,,,,,,,,,,,,,,,901.7760587999364,,900.4917411999777,900.4917411999777,900.4917411999777,900.4917411999777,old_stationery_21.png,251,3.0,1.2865273000206798,,,029,10,2025-01-23_14h18.52.901,Surprise recog test,2023.1.3,59.94700684719856,
251,0,251,0,,,,,,,,,,,,,,,,,,,,,,,,,,,,,,,,,,903.2919341999805,904.3072365999687,902.8076532999985,902.8076532999985,902.8076532999985,902.8076532999985,new_sceneIn_10.png,252,4.0,0.4881669000023976,,,029,10,2025-01-23_14h18.52.901,Surprise recog test,2023.1.3,59.94700684719856,
252,0,252,0,,,,,,,,,,,,,,,,,,,,,,,,,,,,,,,,,,904.8121061999118,,904.3072365999687,904.3072365999687,904.3072365999687,904.3072365999687,new_sceneOut_24.png,253,4.0,0.4999919000547379,,,029,10,2025-01-23_14h18.52.901,Surprise recog test,2023.1.3,59.94700684719856,
253,0,253,0,,,,,,,,,,,,,,,,,,,,,,,,,,,,,,,,,,906.6710447999649,907.6849674999248,905.8464887000155,905.8464887000155,905.8464887000155,905.8464887000155,new_sceneOut_19.png,254,5.0,0.8237364999949932,,,029,10,2025-01-23_14h18.52.901,Surprise recog test,2023.1.3,59.94700684719856,
254,0,254,0,,,,,,,,,,,,,,,,,,,,,,,,,,,,,,,,,,908.312828599941,909.3359862999059,907.6849674999248,907.6849674999248,907.6849674999248,907.6849674999248,new_sceneOut_31.png,255,4.0,0.619714800035581,,,029,10,2025-01-23_14h18.52.901,Surprise recog test,2023.1.3,59.94700684719856,
255,0,255,0,,,,,,,,,,,,,,,,,,,,,,,,,,,,,,,,,,909.8390848999843,910.86666900001,909.3359862999059,909.3359862999059,909.3359862999059,909.3359862999059,old_sceneOut_45.png,256,4.0,0.5047412000130862,,,029,10,2025-01-23_14h18.52.901,Surprise recog test,2023.1.3,59.94700684719856,
256,0,256,0,,,,,,,,,,,,,,,,,,,,,,,,,,,,,,,,,,911.5515270999167,,910.86666900001,910.86666900001,910.86666900001,910.86666900001,new_sceneIn_14.png,257,4.0,0.6873775999993086,,,029,10,2025-01-23_14h18.52.901,Surprise recog test,2023.1.3,59.94700684719856,
257,0,257,0,,,,,,,,,,,,,,,,,,,,,,,,,,,,,,,,,,913.3050458999351,914.335638999939,912.5843803999014,912.5843803999014,912.5843803999014,912.5843803999014,old_fruit_8.png,258,2.0,0.7234190000453964,,,029,10,2025-01-23_14h18.52.901,Surprise recog test,2023.1.3,59.94700684719856,
258,0,258,0,,,,,,,,,,,,,,,,,,,,,,,,,,,,,,,,,,914.7782363999868,915.794591999962,914.335638999939,914.335638999939,914.335638999939,914.335638999939,new_stationery_39.png,259,2.0,0.4447322000050917,,,029,10,2025-01-23_14h18.52.901,Surprise recog test,2023.1.3,59.94700684719856,
259,0,259,0,,,,,,,,,,,,,,,,,,,,,,,,,,,,,,,,,,916.2599761999445,917.277127899928,915.794591999962,915.794591999962,915.794591999962,915.794591999962,new_stationery_2.png,260,3.0,0.465876100002788,,,029,10,2025-01-23_14h18.52.901,Surprise recog test,2023.1.3,59.94700684719856,
260,0,260,0,,,,,,,,,,,,,,,,,,,,,,,,,,,,,,,,,,918.169800399919,919.1918308999157,917.277127899928,917.277127899928,917.277127899928,917.277127899928,new_fruit_21.png,261,4.0,0.8877290999516845,,,029,10,2025-01-23_14h18.52.901,Surprise recog test,2023.1.3,59.94700684719856,
261,0,261,0,,,,,,,,,,,,,,,,,,,,,,,,,,,,,,,,,,920.7126335999928,921.7300576999551,919.1918308999157,919.1918308999157,919.1918308999157,919.1918308999157,old_stationery_27.png,262,3.0,1.521844399976544,,,029,10,2025-01-23_14h18.52.901,Surprise recog test,2023.1.3,59.94700684719856,
262,0,262,0,,,,,,,,,,,,,,,,,,,,,,,,,,,,,,,,,,922.2607822999125,923.2792020000052,921.7300576999551,921.7300576999551,921.7300576999551,921.7300576999551,old_sceneIn_17.png,263,5.0,0.5258274000370875,,,029,10,2025-01-23_14h18.52.901,Surprise recog test,2023.1.3,59.94700684719856,
263,0,263,0,,,,,,,,,,,,,,,,,,,,,,,,,,,,,,,,,,923.6818485999247,924.6992302999133,923.2792020000052,923.2792020000052,923.2792020000052,923.2792020000052,old_sceneOut_4.png,264,4.0,0.3985910000046715,,,029,10,2025-01-23_14h18.52.901,Surprise recog test,2023.1.3,59.94700684719856,
264,0,264,0,,,,,,,,,,,,,,,,,,,,,,,,,,,,,,,,,,925.7669712000061,926.7943159999559,924.6992302999133,924.6992302999133,924.6992302999133,924.6992302999133,new_sceneOut_2.png,265,3.0,1.0627275999868289,,,029,10,2025-01-23_14h18.52.901,Surprise recog test,2023.1.3,59.94700684719856,
265,0,265,0,,,,,,,,,,,,,,,,,,,,,,,,,,,,,,,,,,927.7385351000121,928.7525901999325,926.7943159999559,926.7943159999559,926.7943159999559,926.7943159999559,old_fruit_28.png,266,3.0,0.9459974999772385,,,029,10,2025-01-23_14h18.52.901,Surprise recog test,2023.1.3,59.94700684719856,
266,0,266,0,,,,,,,,,,,,,,,,,,,,,,,,,,,,,,,,,,929.352512100013,930.3833944000071,928.7525901999325,928.7525901999325,928.7525901999325,928.7525901999325,new_fruit_8.png,267,2.0,0.5952057000249624,,,029,10,2025-01-23_14h18.52.901,Surprise recog test,2023.1.3,59.94700684719856,
267,0,267,0,,,,,,,,,,,,,,,,,,,,,,,,,,,,,,,,,,930.9471507999115,931.9558172000106,930.3833944000071,930.3833944000071,930.3833944000071,930.3833944000071,old_stationery_12.png,268,4.0,0.5607556999893859,,,029,10,2025-01-23_14h18.52.901,Surprise recog test,2023.1.3,59.94700684719856,
268,0,268,0,,,,,,,,,,,,,,,,,,,,,,,,,,,,,,,,,,932.6602486999473,933.6861723999027,931.9558172000106,931.9558172000106,931.9558172000106,931.9558172000106,new_sceneIn_16.png,269,2.0,0.6978386999107897,,,029,10,2025-01-23_14h18.52.901,Surprise recog test,2023.1.3,59.94700684719856,
269,0,269,0,,,,,,,,,,,,,,,,,,,,,,,,,,,,,,,,,,934.427437699982,935.4508736999705,933.6861723999027,933.6861723999027,933.6861723999027,933.6861723999027,new_fruit_13.png,270,3.0,0.7441274999873713,,,029,10,2025-01-23_14h18.52.901,Surprise recog test,2023.1.3,59.94700684719856,
270,0,270,0,,,,,,,,,,,,,,,,,,,,,,,,,,,,,,,,,,936.1653779000044,937.1887700000079,935.4508736999705,935.4508736999705,935.4508736999705,935.4508736999705,new_sceneOut_23.png,271,4.0,0.7169953000266105,,,029,10,2025-01-23_14h18.52.901,Surprise recog test,2023.1.3,59.94700684719856,
271,0,271,0,,,,,,,,,,,,,,,,,,,,,,,,,,,,,,,,,,938.1578747999156,939.1893021999858,937.1887700000079,937.1887700000079,937.1887700000079,937.1887700000079,old_fruit_29.png,272,3.0,0.9713129000738263,,,029,10,2025-01-23_14h18.52.901,Surprise recog test,2023.1.3,59.94700684719856,
272,0,272,0,,,,,,,,,,,,,,,,,,,,,,,,,,,,,,,,,,940.2383346999995,941.2614672000054,939.1893021999858,939.1893021999858,939.1893021999858,939.1893021999858,new_fruit_32.png,273,2.0,1.045520499930717,,,029,10,2025-01-23_14h18.52.901,Surprise recog test,2023.1.3,59.94700684719856,
273,0,273,0,,,,,,,,,,,,,,,,,,,,,,,,,,,,,,,,,,942.713936499902,943.728349699988,941.2614672000054,941.2614672000054,941.2614672000054,941.2614672000054,old_fruit_5.png,274,2.0,1.4557577999075875,,,029,10,2025-01-23_14h18.52.901,Surprise recog test,2023.1.3,59.94700684719856,
274,0,274,0,,,,,,,,,,,,,,,,,,,,,,,,,,,,,,,,,,945.5655032999348,946.5986215999583,943.728349699988,943.728349699988,943.728349699988,943.728349699988,new_stationery_42.png,275,4.0,1.8333672999870032,,,029,10,2025-01-23_14h18.52.901,Surprise recog test,2023.1.3,59.94700684719856,
275,0,275,0,,,,,,,,,,,,,,,,,,,,,,,,,,,,,,,,,,947.402852499974,948.4259196999483,946.5986215999583,946.5986215999583,946.5986215999583,946.5986215999583,old_sceneIn_21.png,276,3.0,0.8078950000926852,,,029,10,2025-01-23_14h18.52.901,Surprise recog test,2023.1.3,59.94700684719856,
276,0,276,0,,,,,,,,,,,,,,,,,,,,,,,,,,,,,,,,,,948.9810037999414,,948.4259196999483,948.4259196999483,948.4259196999483,948.4259196999483,old_sceneIn_16.png,277,5.0,0.5212764999596402,,,029,10,2025-01-23_14h18.52.901,Surprise recog test,2023.1.3,59.94700684719856,
277,0,277,0,,,,,,,,,,,,,,,,,,,,,,,,,,,,,,,,,,951.4218176999129,952.4430561999325,950.0018291999586,950.0018291999586,950.0018291999586,950.0018291999586,new_stationery_36.png,278,2.0,1.4157661999342963,,,029,10,2025-01-23_14h18.52.901,Surprise recog test,2023.1.3,59.94700684719856,
278,0,278,0,,,,,,,,,,,,,,,,,,,,,,,,,,,,,,,,,,953.2361687999219,,952.4430561999325,952.4430561999325,952.4430561999325,952.4430561999325,old_sceneIn_4.png,279,2.0,0.7924241999862716,,,029,10,2025-01-23_14h18.52.901,Surprise recog test,2023.1.3,59.94700684719856,
279,0,279,0,,,,,,,,,,,,,,,,,,,,,,,,,,,,,,,,,,954.9503700999776,955.9697364999447,954.2668917999836,954.2668917999836,954.2668917999836,954.2668917999836,new_sceneIn_11.png,280,2.0,0.6841866000322625,,,029,10,2025-01-23_14h18.52.901,Surprise recog test,2023.1.3,59.94700684719856,
280,0,280,0,,,,,,,,,,,,,,,,,,,,,,,,,,,,,,,,,,956.8555190999759,,955.9697364999447,955.9697364999447,955.9697364999447,955.9697364999447,new_sceneOut_22.png,281,4.0,0.8870820000302047,,,029,10,2025-01-23_14h18.52.901,Surprise recog test,2023.1.3,59.94700684719856,
281,0,281,0,,,,,,,,,,,,,,,,,,,,,,,,,,,,,,,,,,958.7200931999832,959.7280140999937,957.890936599928,957.890936599928,957.890936599928,957.890936599928,new_sceneOut_45.png,282,4.0,0.8252103000413626,,,029,10,2025-01-23_14h18.52.901,Surprise recog test,2023.1.3,59.94700684719856,
282,0,282,0,,,,,,,,,,,,,,,,,,,,,,,,,,,,,,,,,,961.1226930000121,962.1356248999946,959.7280140999937,959.7280140999937,959.7280140999937,959.7280140999937,old_stationery_1.png,283,2.0,1.3895499999634922,,,029,10,2025-01-23_14h18.52.901,Surprise recog test,2023.1.3,59.94700684719856,
283,0,283,0,,,,,,,,,,,,,,,,,,,,,,,,,,,,,,,,,,962.8976976999547,963.9242546999594,962.1356248999946,962.1356248999946,962.1356248999946,962.1356248999946,old_sceneIn_46.png,284,1.0,0.7628836000803858,,,029,10,2025-01-23_14h18.52.901,Surprise recog test,2023.1.3,59.94700684719856,
284,0,284,0,,,,,,,,,,,,,,,,,,,,,,,,,,,,,,,,,,964.5750862999121,965.5802455999656,963.9242546999594,963.9242546999594,963.9242546999594,963.9242546999594,new_fruit_34.png,285,3.0,0.6431682999245822,,,029,10,2025-01-23_14h18.52.901,Surprise recog test,2023.1.3,59.94700684719856,
285,0,285,0,,,,,,,,,,,,,,,,,,,,,,,,,,,,,,,,,,966.1136312999297,,965.5802455999656,965.5802455999656,965.5802455999656,965.5802455999656,old_sceneIn_32.png,286,3.0,0.5293178999563679,,,029,10,2025-01-23_14h18.52.901,Surprise recog test,2023.1.3,59.94700684719856,
286,0,286,0,,,,,,,,,,,,,,,,,,,,,,,,,,,,,,,,,,968.1664892999688,969.1870711999945,967.131208900013,967.131208900013,967.131208900013,967.131208900013,old_stationery_18.png,287,3.0,1.0283688999479637,,,029,10,2025-01-23_14h18.52.901,Surprise recog test,2023.1.3,59.94700684719856,
287,0,287,0,,,,,,,,,,,,,,,,,,,,,,,,,,,,,,,,,,970.4465805999935,971.4679000999313,969.1870711999945,969.1870711999945,969.1870711999945,969.1870711999945,new_sceneOut_28.png,288,2.0,1.2535492000170052,,,029,10,2025-01-23_14h18.52.901,Surprise recog test,2023.1.3,59.94700684719856,
288,0,288,0,,,,,,,,,,,,,,,,,,,,,,,,,,,,,,,,,,972.481650199974,973.5033471999923,971.4679000999313,971.4679000999313,971.4679000999313,971.4679000999313,old_sceneIn_42.png,289,2.0,1.0136967999860644,,,029,10,2025-01-23_14h18.52.901,Surprise recog test,2023.1.3,59.94700684719856,
289,0,289,0,,,,,,,,,,,,,,,,,,,,,,,,,,,,,,,,,,974.7887045999523,975.8245005999925,973.5033471999923,973.5033471999923,973.5033471999923,973.5033471999923,old_fruit_49.png,290,4.0,1.2868467000080273,,,029,10,2025-01-23_14h18.52.901,Surprise recog test,2023.1.3,59.94700684719856,
290,0,290,0,,,,,,,,,,,,,,,,,,,,,,,,,,,,,,,,,,976.9257674999535,977.9439010999631,975.8245005999925,975.8245005999925,975.8245005999925,975.8245005999925,new_fruit_18.png,291,3.0,1.1040944000706077,,,029,10,2025-01-23_14h18.52.901,Surprise recog test,2023.1.3,59.94700684719856,
291,0,291,0,,,,,,,,,,,,,,,,,,,,,,,,,,,,,,,,,,978.9395081999246,,977.9439010999631,977.9439010999631,977.9439010999631,977.9439010999631,new_sceneIn_28.png,292,2.0,0.9913813000312075,,,029,10,2025-01-23_14h18.52.901,Surprise recog test,2023.1.3,59.94700684719856,
292,0,292,0,,,,,,,,,,,,,,,,,,,,,,,,,,,,,,,,,,980.6351125999354,981.6447316999547,979.9765144999838,979.9765144999838,979.9765144999838,979.9765144999838,old_stationery_14.png,293,2.0,0.659739000024274,,,029,10,2025-01-23_14h18.52.901,Surprise recog test,2023.1.3,59.94700684719856,
293,0,293,0,,,,,,,,,,,,,,,,,,,,,,,,,,,,,,,,,,982.4231999999611,983.4295436999528,981.6447316999547,981.6447316999547,981.6447316999547,981.6447316999547,new_fruit_44.png,294,2.0,0.7728291999083012,,,029,10,2025-01-23_14h18.52.901,Surprise recog test,2023.1.3,59.94700684719856,
294,0,294,0,,,,,,,,,,,,,,,,,,,,,,,,,,,,,,,,,,984.2308277999982,985.24512769992,983.4295436999528,983.4295436999528,983.4295436999528,983.4295436999528,new_sceneIn_27.png,295,4.0,0.7980231000110507,,,029,10,2025-01-23_14h18.52.901,Surprise recog test,2023.1.3,59.94700684719856,
295,0,295,0,,,,,,,,,,,,,,,,,,,,,,,,,,,,,,,,,,986.0771213999251,987.0817572999513,985.24512769992,985.24512769992,985.24512769992,985.24512769992,new_stationery_34.png,296,3.0,0.8279518999624997,,,029,10,2025-01-23_14h18.52.901,Surprise recog test,2023.1.3,59.94700684719856,
296,0,296,0,,,,,,,,,,,,,,,,,,,,,,,,,,,,,,,,,,987.8275822999422,988.8382224999368,987.0817572999513,987.0817572999513,987.0817572999513,987.0817572999513,new_sceneIn_47.png,297,3.0,0.7372908000834286,,,029,10,2025-01-23_14h18.52.901,Surprise recog test,2023.1.3,59.94700684719856,
297,0,297,0,,,,,,,,,,,,,,,,,,,,,,,,,,,,,,,,,,989.7627325999783,990.78336329991,988.8382224999368,988.8382224999368,988.8382224999368,988.8382224999368,new_stationery_11.png,298,3.0,0.9196096000960097,,,029,10,2025-01-23_14h18.52.901,Surprise recog test,2023.1.3,59.94700684719856,
298,0,298,0,,,,,,,,,,,,,,,,,,,,,,,,,,,,,,,,,,992.2658776999451,993.284729899955,990.78336329991,990.78336329991,990.78336329991,990.78336329991,old_fruit_35.png,299,1.0,1.484806300024502,,,029,10,2025-01-23_14h18.52.901,Surprise recog test,2023.1.3,59.94700684719856,
299,0,299,0,,,,,,,,,,,,,,,,,,,,,,,,,,,,,,,,,,994.0060767999385,995.0369176999666,993.284729899955,993.284729899955,993.284729899955,993.284729899955,new_sceneIn_8.png,300,2.0,0.7241689999355003,,,029,10,2025-01-23_14h18.52.901,Surprise recog test,2023.1.3,59.94700684719856,
300,0,300,0,,,,,,,,,,,,,,,,,,,,,,,,,,,,,,,,,,996.3052999000065,,995.0369176999666,995.0369176999666,995.0369176999666,995.0369176999666,new_stationery_15.png,301,4.0,1.2688476000912488,,,029,10,2025-01-23_14h18.52.901,Surprise recog test,2023.1.3,59.94700684719856,
301,0,301,0,,,,,,,,,,,,,,,,,,,,,,,,,,,,,,,,,,998.0287401999813,999.0603210999398,997.3375947999302,997.3375947999302,997.3375947999302,997.3375947999302,old_stationery_35.png,302,4.0,0.6920102000003681,,,029,10,2025-01-23_14h18.52.901,Surprise recog test,2023.1.3,59.94700684719856,
302,0,302,0,,,,,,,,,,,,,,,,,,,,,,,,,,,,,,,,,,999.7913669999689,,999.0603210999398,999.0603210999398,999.0603210999398,999.0603210999398,new_stationery_50.png,303,4.0,0.7352716999594122,,,029,10,2025-01-23_14h18.52.901,Surprise recog test,2023.1.3,59.94700684719856,
303,0,303,0,,,,,,,,,,,,,,,,,,,,,,,,,,,,,,,,,,1001.9502678000135,1002.9649552999763,1000.8229237999767,1000.8229237999767,1000.8229237999767,1000.8229237999767,old_fruit_15.png,304,2.0,1.1276627000188455,,,029,10,2025-01-23_14h18.52.901,Surprise recog test,2023.1.3,59.94700684719856,
304,0,304,0,,,,,,,,,,,,,,,,,,,,,,,,,,,,,,,,,,1003.5495331999846,1004.5757912999252,1002.9649552999763,1002.9649552999763,1002.9649552999763,1002.9649552999763,new_fruit_4.png,305,3.0,0.5787432000506669,,,029,10,2025-01-23_14h18.52.901,Surprise recog test,2023.1.3,59.94700684719856,
305,0,305,0,,,,,,,,,,,,,,,,,,,,,,,,,,,,,,,,,,1005.3114844999509,,1004.5757912999252,1004.5757912999252,1004.5757912999252,1004.5757912999252,new_sceneOut_4.png,306,4.0,0.7350676000351086,,,029,10,2025-01-23_14h18.52.901,Surprise recog test,2023.1.3,59.94700684719856,
306,0,306,0,,,,,,,,,,,,,,,,,,,,,,,,,,,,,,,,,,1006.9472214999842,,1006.344534899923,1006.344534899923,1006.344534899923,1006.344534899923,old_stationery_25.png,307,2.0,0.6057722999248654,,,029,10,2025-01-23_14h18.52.901,Surprise recog test,2023.1.3,59.94700684719856,
307,0,307,0,,,,,,,,,,,,,,,,,,,,,,,,,,,,,,,,,,1008.7900210999651,1009.803342500003,1007.9818540000124,1007.9818540000124,1007.9818540000124,1007.9818540000124,old_fruit_1.png,308,3.0,0.8111124000279233,,,029,10,2025-01-23_14h18.52.901,Surprise recog test,2023.1.3,59.94700684719856,
308,0,308,0,,,,,,,,,,,,,,,,,,,,,,,,,,,,,,,,,,1010.4341847999021,,1009.803342500003,1009.803342500003,1009.803342500003,1009.803342500003,new_fruit_35.png,309,3.0,0.626656600041315,,,029,10,2025-01-23_14h18.52.901,Surprise recog test,2023.1.3,59.94700684719856,
309,0,309,0,,,,,,,,,,,,,,,,,,,,,,,,,,,,,,,,,,1012.3175298999995,,1011.4672203999944,1011.4672203999944,1011.4672203999944,1011.4672203999944,old_sceneOut_46.png,310,2.0,0.8503922000527382,,,029,10,2025-01-23_14h18.52.901,Surprise recog test,2023.1.3,59.94700684719856,
310,0,310,0,,,,,,,,,,,,,,,,,,,,,,,,,,,,,,,,,,1014.0458712999243,1015.0702125999378,1013.3525992999785,1013.3525992999785,1013.3525992999785,1013.3525992999785,old_sceneOut_37.png,311,2.0,0.6949808000354096,,,029,10,2025-01-23_14h18.52.901,Surprise recog test,2023.1.3,59.94700684719856,
311,0,311,0,,,,,,,,,,,,,,,,,,,,,,,,,,,,,,,,,,1015.5582213999005,1016.5756323999958,1015.0702125999378,1015.0702125999378,1015.0702125999378,1015.0702125999378,new_sceneIn_38.png,312,3.0,0.4864868000149727,,,029,10,2025-01-23_14h18.52.901,Surprise recog test,2023.1.3,59.94700684719856,
312,0,312,0,,,,,,,,,,,,,,,,,,,,,,,,,,,,,,,,,,1017.1411722999765,1018.1607355999295,1016.5756323999958,1016.5756323999958,1016.5756323999958,1016.5756323999958,old_sceneOut_43.png,313,3.0,0.5576395998941734,,,029,10,2025-01-23_14h18.52.901,Surprise recog test,2023.1.3,59.94700684719856,
313,0,313,0,,,,,,,,,,,,,,,,,,,,,,,,,,,,,,,,,,1018.8223234999459,,1018.1607355999295,1018.1607355999295,1018.1607355999295,1018.1607355999295,new_sceneOut_7.png,314,4.0,0.6547765000723302,,,029,10,2025-01-23_14h18.52.901,Surprise recog test,2023.1.3,59.94700684719856,
314,0,314,0,,,,,,,,,,,,,,,,,,,,,,,,,,,,,,,,,,1020.4669073999394,1021.4789500999032,1019.8438985999674,1019.8438985999674,1019.8438985999674,1019.8438985999674,new_sceneIn_44.png,315,3.0,0.6169232999673113,,,029,10,2025-01-23_14h18.52.901,Surprise recog test,2023.1.3,59.94700684719856,
315,0,315,0,,,,,,,,,,,,,,,,,,,,,,,,,,,,,,,,,,1022.2772463000147,,1021.4789500999032,1021.4789500999032,1021.4789500999032,1021.4789500999032,old_sceneOut_19.png,316,4.0,0.7943448999430984,,,029,10,2025-01-23_14h18.52.901,Surprise recog test,2023.1.3,59.94700684719856,
316,0,316,0,,,,,,,,,,,,,,,,,,,,,,,,,,,,,,,,,,1024.0139245999744,1025.0439106000122,1023.3098955999594,1023.3098955999594,1023.3098955999594,1023.3098955999594,new_sceneOut_38.png,317,4.0,0.7063407000387087,,,029,10,2025-01-23_14h18.52.901,Surprise recog test,2023.1.3,59.94700684719856,
317,0,317,0,,,,,,,,,,,,,,,,,,,,,,,,,,,,,,,,,,1025.8761054999195,1026.8974523999495,1025.0439106000122,1025.0439106000122,1025.0439106000122,1025.0439106000122,old_sceneIn_26.png,318,3.0,0.8347281999886036,,,029,10,2025-01-23_14h18.52.901,Surprise recog test,2023.1.3,59.94700684719856,
318,0,318,0,,,,,,,,,,,,,,,,,,,,,,,,,,,,,,,,,,1027.7456352999434,1028.7641478999285,1026.8974523999495,1026.8974523999495,1026.8974523999495,1026.8974523999495,old_stationery_48.png,319,4.0,0.8499993999721482,,,029,10,2025-01-23_14h18.52.901,Surprise recog test,2023.1.3,59.94700684719856,
319,0,319,0,,,,,,,,,,,,,,,,,,,,,,,,,,,,,,,,,,1029.657274600002,1030.6859504999593,1028.7641478999285,1028.7641478999285,1028.7641478999285,1028.7641478999285,new_stationery_16.png,320,2.0,0.8950497000478208,,,029,10,2025-01-23_14h18.52.901,Surprise recog test,2023.1.3,59.94700684719856,
320,0,320,0,,,,,,,,,,,,,,,,,,,,,,,,,,,,,,,,,,1031.5319928999525,1032.5394465000136,1030.6859504999593,1030.6859504999593,1030.6859504999593,1030.6859504999593,old_stationery_28.png,321,4.0,0.8498616999713704,,,029,10,2025-01-23_14h18.52.901,Surprise recog test,2023.1.3,59.94700684719856,
321,0,321,0,,,,,,,,,,,,,,,,,,,,,,,,,,,,,,,,,,1033.206742099952,1034.2387742999708,1032.5394465000136,1032.5394465000136,1032.5394465000136,1032.5394465000136,new_sceneIn_42.png,322,3.0,0.6617774999467656,,,029,10,2025-01-23_14h18.52.901,Surprise recog test,2023.1.3,59.94700684719856,
322,0,322,0,,,,,,,,,,,,,,,,,,,,,,,,,,,,,,,,,,1035.1169964999426,1036.139848999912,1034.2387742999708,1034.2387742999708,1034.2387742999708,1034.2387742999708,old_stationery_24.png,323,4.0,0.8766433999408036,,,029,10,2025-01-23_14h18.52.901,Surprise recog test,2023.1.3,59.94700684719856,
323,0,323,0,,,,,,,,,,,,,,,,,,,,,,,,,,,,,,,,,,1036.8051390999462,,1036.139848999912,1036.139848999912,1036.139848999912,1036.139848999912,old_sceneIn_25.png,324,3.0,0.668078999966383,,,029,10,2025-01-23_14h18.52.901,Surprise recog test,2023.1.3,59.94700684719856,
324,0,324,0,,,,,,,,,,,,,,,,,,,,,,,,,,,,,,,,,,1038.6421610999387,1039.6631540999515,1037.8275406999746,1037.8275406999746,1037.8275406999746,1037.8275406999746,new_fruit_38.png,325,3.0,0.8120473999297246,,,029,10,2025-01-23_14h18.52.901,Surprise recog test,2023.1.3,59.94700684719856,
325,0,325,0,,,,,,,,,,,,,,,,,,,,,,,,,,,,,,,,,,1040.788921499974,1041.7952568999026,1039.6631540999515,1039.6631540999515,1039.6631540999515,1039.6631540999515,old_stationery_39.png,326,2.0,1.1227464000694454,,,029,10,2025-01-23_14h18.52.901,Surprise recog test,2023.1.3,59.94700684719856,
326,0,326,0,,,,,,,,,,,,,,,,,,,,,,,,,,,,,,,,,,1042.6354404999875,1043.6604297999293,1041.7952568999026,1041.7952568999026,1041.7952568999026,1041.7952568999026,old_sceneIn_40.png,327,3.0,0.83611439995002,,,029,10,2025-01-23_14h18.52.901,Surprise recog test,2023.1.3,59.94700684719856,
327,0,327,0,,,,,,,,,,,,,,,,,,,,,,,,,,,,,,,,,,1044.5814975999529,1045.603745499975,1043.6604297999293,1043.6604297999293,1043.6604297999293,1043.6604297999293,new_sceneIn_15.png,328,2.0,0.9209176000440493,,,029,10,2025-01-23_14h18.52.901,Surprise recog test,2023.1.3,59.94700684719856,
328,0,328,0,,,,,,,,,,,,,,,,,,,,,,,,,,,,,,,,,,1047.1269983999664,1048.1477922999766,1045.603745499975,1045.603745499975,1045.603745499975,1045.603745499975,new_sceneIn_21.png,329,3.0,1.5136207999894395,,,029,10,2025-01-23_14h18.52.901,Surprise recog test,2023.1.3,59.94700684719856,
329,0,329,0,,,,,,,,,,,,,,,,,,,,,,,,,,,,,,,,,,1049.310486799921,1050.3362573999912,1048.1477922999766,1048.1477922999766,1048.1477922999766,1048.1477922999766,new_sceneOut_33.png,330,4.0,1.1601675000274554,,,029,10,2025-01-23_14h18.52.901,Surprise recog test,2023.1.3,59.94700684719856,
330,0,330,0,,,,,,,,,,,,,,,,,,,,,,,,,,,,,,,,,,1051.3676871999633,,1050.3362573999912,1050.3362573999912,1050.3362573999912,1050.3362573999912,new_fruit_22.png,331,2.0,1.034258299972862,,,029,10,2025-01-23_14h18.52.901,Surprise recog test,2023.1.3,59.94700684719856,
331,0,331,0,,,,,,,,,,,,,,,,,,,,,,,,,,,,,,,,,,1053.3807056999067,1054.4048055999447,1052.4010905999457,1052.4010905999457,1052.4010905999457,1052.4010905999457,new_fruit_16.png,332,4.0,0.9821977999527007,,,029,10,2025-01-23_14h18.52.901,Surprise recog test,2023.1.3,59.94700684719856,
332,0,332,0,,,,,,,,,,,,,,,,,,,,,,,,,,,,,,,,,,1055.5779758999124,1056.6043115999782,1054.4048055999447,1054.4048055999447,1054.4048055999447,1054.4048055999447,old_sceneOut_12.png,333,2.0,1.1768418999854475,,,029,10,2025-01-23_14h18.52.901,Surprise recog test,2023.1.3,59.94700684719856,
333,0,333,0,,,,,,,,,,,,,,,,,,,,,,,,,,,,,,,,,,1058.641428199946,1059.6717112999177,1056.6043115999782,1056.6043115999782,1056.6043115999782,1056.6043115999782,new_fruit_19.png,334,4.0,2.039076599990949,,,029,10,2025-01-23_14h18.52.901,Surprise recog test,2023.1.3,59.94700684719856,
334,0,334,0,,,,,,,,,,,,,,,,,,,,,,,,,,,,,,,,,,1061.228543599951,1062.2586544000078,1059.6717112999177,1059.6717112999177,1059.6717112999177,1059.6717112999177,new_stationery_48.png,335,4.0,1.5591590999392793,,,029,10,2025-01-23_14h18.52.901,Surprise recog test,2023.1.3,59.94700684719856,
335,0,335,0,,,,,,,,,,,,,,,,,,,,,,,,,,,,,,,,,,1062.9823773999233,1064.0024024999002,1062.2586544000078,1062.2586544000078,1062.2586544000078,1062.2586544000078,old_fruit_27.png,336,4.0,0.7250562999397516,,,029,10,2025-01-23_14h18.52.901,Surprise recog test,2023.1.3,59.94700684719856,
336,0,336,0,,,,,,,,,,,,,,,,,,,,,,,,,,,,,,,,,,1064.5922593999421,1065.6153949999716,1064.0024024999002,1064.0024024999002,1064.0024024999002,1064.0024024999002,new_sceneOut_15.png,337,4.0,0.5866914000362158,,,029,10,2025-01-23_14h18.52.901,Surprise recog test,2023.1.3,59.94700684719856,
337,0,337,0,,,,,,,,,,,,,,,,,,,,,,,,,,,,,,,,,,1066.6645399999106,1067.6884857999394,1065.6153949999716,1065.6153949999716,1065.6153949999716,1065.6153949999716,old_sceneOut_20.png,338,4.0,1.0512732000788674,,,029,10,2025-01-23_14h18.52.901,Surprise recog test,2023.1.3,59.94700684719856,
338,0,338,0,,,,,,,,,,,,,,,,,,,,,,,,,,,,,,,,,,1068.3003961999202,1069.3324672000017,1067.6884857999394,1067.6884857999394,1067.6884857999394,1067.6884857999394,old_stationery_37.png,339,4.0,0.6084326000418514,,,029,10,2025-01-23_14h18.52.901,Surprise recog test,2023.1.3,59.94700684719856,
339,0,339,0,,,,,,,,,,,,,,,,,,,,,,,,,,,,,,,,,,1069.8083199999528,1070.8376216999022,1069.3324672000017,1069.3324672000017,1069.3324672000017,1069.3324672000017,old_sceneOut_30.png,340,4.0,0.4780374000547454,,,029,10,2025-01-23_14h18.52.901,Surprise recog test,2023.1.3,59.94700684719856,
340,0,340,0,,,,,,,,,,,,,,,,,,,,,,,,,,,,,,,,,,1071.4188965999056,1072.4531981999753,1070.8376216999022,1070.8376216999022,1070.8376216999022,1070.8376216999022,old_sceneOut_3.png,341,4.0,0.5862989999586716,,,029,10,2025-01-23_14h18.52.901,Surprise recog test,2023.1.3,59.94700684719856,
341,0,341,0,,,,,,,,,,,,,,,,,,,,,,,,,,,,,,,,,,1073.1654058999848,1074.1836951998994,1072.4531981999753,1072.4531981999753,1072.4531981999753,1072.4531981999753,new_stationery_12.png,342,2.0,0.7097420999780297,,,029,10,2025-01-23_14h18.52.901,Surprise recog test,2023.1.3,59.94700684719856,
342,0,342,0,,,,,,,,,,,,,,,,,,,,,,,,,,,,,,,,,,1074.692636599997,1075.7194707999006,1074.1836951998994,1074.1836951998994,1074.1836951998994,1074.1836951998994,old_sceneIn_20.png,343,5.0,0.5110686999978498,,,029,10,2025-01-23_14h18.52.901,Surprise recog test,2023.1.3,59.94700684719856,
343,0,343,0,,,,,,,,,,,,,,,,,,,,,,,,,,,,,,,,,,1076.172015799908,,1075.7194707999006,1075.7194707999006,1075.7194707999006,1075.7194707999006,new_sceneIn_2.png,344,3.0,0.45468850003089756,,,029,10,2025-01-23_14h18.52.901,Surprise recog test,2023.1.3,59.94700684719856,
344,0,344,0,,,,,,,,,,,,,,,,,,,,,,,,,,,,,,,,,,1077.729425999918,1078.7514871999156,1077.1979549999814,1077.1979549999814,1077.1979549999814,1077.1979549999814,new_sceneIn_7.png,345,4.0,0.532207699958235,,,029,10,2025-01-23_14h18.52.901,Surprise recog test,2023.1.3,59.94700684719856,
345,0,345,0,,,,,,,,,,,,,,,,,,,,,,,,,,,,,,,,,,1079.1536416999297,1080.174464999931,1078.7514871999156,1078.7514871999156,1078.7514871999156,1078.7514871999156,old_fruit_23.png,346,4.0,0.39750289998482913,,,029,10,2025-01-23_14h18.52.901,Surprise recog test,2023.1.3,59.94700684719856,
346,0,346,0,,,,,,,,,,,,,,,,,,,,,,,,,,,,,,,,,,1080.7409486999968,,1080.174464999931,1080.174464999931,1080.174464999931,1080.174464999931,old_stationery_50.png,347,2.0,0.5687481999630108,,,029,10,2025-01-23_14h18.52.901,Surprise recog test,2023.1.3,59.94700684719856,
347,0,347,0,,,,,,,,,,,,,,,,,,,,,,,,,,,,,,,,,,1082.4339350999799,1083.4625365999527,1081.7701959999977,1081.7701959999977,1081.7701959999977,1081.7701959999977,new_sceneOut_14.png,348,3.0,0.6655817999271676,,,029,10,2025-01-23_14h18.52.901,Surprise recog test,2023.1.3,59.94700684719856,
348,0,348,0,,,,,,,,,,,,,,,,,,,,,,,,,,,,,,,,,,1084.0474753999151,1085.0658796000062,1083.4625365999527,1083.4625365999527,1083.4625365999527,1083.4625365999527,old_fruit_22.png,349,3.0,0.588981100008823,,,029,10,2025-01-23_14h18.52.901,Surprise recog test,2023.1.3,59.94700684719856,
349,0,349,0,,,,,,,,,,,,,,,,,,,,,,,,,,,,,,,,,,1085.5256019999506,1086.5414396999404,1085.0658796000062,1085.0658796000062,1085.0658796000062,1085.0658796000062,old_sceneOut_23.png,350,3.0,0.45185199996922165,,,029,10,2025-01-23_14h18.52.901,Surprise recog test,2023.1.3,59.94700684719856,
350,0,350,0,,,,,,,,,,,,,,,,,,,,,,,,,,,,,,,,,,1087.044731699978,1088.0643740999512,1086.5414396999404,1086.5414396999404,1086.5414396999404,1086.5414396999404,old_stationery_4.png,351,3.0,0.505685199983418,,,029,10,2025-01-23_14h18.52.901,Surprise recog test,2023.1.3,59.94700684719856,
351,0,351,0,,,,,,,,,,,,,,,,,,,,,,,,,,,,,,,,,,1088.5284217000008,1089.538077999954,1088.0643740999512,1088.0643740999512,1088.0643740999512,1088.0643740999512,new_sceneOut_42.png,352,2.0,0.466023699962534,,,029,10,2025-01-23_14h18.52.901,Surprise recog test,2023.1.3,59.94700684719856,
352,0,352,0,,,,,,,,,,,,,,,,,,,,,,,,,,,,,,,,,,1090.260034399922,1091.2801358000142,1089.538077999954,1089.538077999954,1089.538077999954,1089.538077999954,old_sceneIn_22.png,353,2.0,0.7168508999748155,,,029,10,2025-01-23_14h18.52.901,Surprise recog test,2023.1.3,59.94700684719856,
353,0,353,0,,,,,,,,,,,,,,,,,,,,,,,,,,,,,,,,,,1092.0249397999141,1093.0512389999349,1091.2801358000142,1091.2801358000142,1091.2801358000142,1091.2801358000142,new_fruit_23.png,354,3.0,0.745738200028427,,,029,10,2025-01-23_14h18.52.901,Surprise recog test,2023.1.3,59.94700684719856,
