trial_loop.thisRepN,trial_loop.thisTrialN,trial_loop.thisN,trial_loop.thisIndex,VAS_slider.started,VAS_text.started,VAS_notstressed_text.started,VAS_stressed_text.started,continue_input.started,continue_text.started,label0.started,label10.started,label20.started,label30.started,label40.started,label50.started,label60.started,label70.started,label80.started,label90.started,label100.started,VAS_slider.response,VAS_slider.rt,VAS_slider.history,Answer_VAS,continue_input.keys,continue_input.rt,continue_input.duration,instruction_text.started,continue_text_2.started,continue_input_2.started,continue_input_2.keys,continue_input_2.rt,continue_input_2.duration,example_text.started,example_slider_2.started,example_image.started,example_slider_2.response,example_slider_2.rt,fixcross.started,fixcross.stopped,front_square.started,stim_images.started,trial_inst_images.started,slider_images.started,thisImg,trial_count,slider_images.response,slider_images.rt,slider_images.stopped,front_square.stopped,stim_images.stopped,trial_inst_images.stopped,outro.started,participant,condition,date,expName,psychopyVersion,frameRate,
,,,,218.82907330000307,218.82907330000307,218.82907330000307,218.82907330000307,218.82907330000307,218.82907330000307,218.82907330000307,218.82907330000307,218.82907330000307,218.82907330000307,218.82907330000307,218.82907330000307,218.82907330000307,218.82907330000307,218.82907330000307,218.82907330000307,218.82907330000307,None,None,[],0,space,15.46911830001045,None,,,,,,,,,,,,,,,,,,,,,,,,,,,030,1,2024-12-12_14h08.29.160,Surprise recog test,2023.1.3,59.93637155188793,
,,,,,,,,,,,,,,,,,,,,,,,,,,,,234.3646869000513,234.3646869000513,234.3646869000513,space,21.852512300014496,None,,,,,,,,,,,,,,,,,,,,,030,1,2024-12-12_14h08.29.160,Surprise recog test,2023.1.3,59.93637155188793,
0,0,0,0,,,,,,,,,,,,,,,,,,,,,,,,,,,,,,,256.3409677000018,256.3409677000018,256.3409677000018,4.0,27.867915600072592,288.7261819000123,289.75438300007954,285.1715979001019,285.1715979001019,285.1715979001019,285.1715979001019,new_sceneOut_28.png,1,1.0,3.5590687999501824,,,,,,030,1,2024-12-12_14h08.29.160,Surprise recog test,2023.1.3,59.93637155188793,
1,0,1,0,,,,,,,,,,,,,,,,,,,,,,,,,,,,,,,,,,,,291.6462846000213,292.667640700005,289.75438300007954,289.75438300007954,289.75438300007954,289.75438300007954,old_stationery_43.png,2,5.0,1.891754100099206,,,,,,030,1,2024-12-12_14h08.29.160,Surprise recog test,2023.1.3,59.93637155188793,
2,0,2,0,,,,,,,,,,,,,,,,,,,,,,,,,,,,,,,,,,,,294.2184586999938,295.2412742000306,292.667640700005,292.667640700005,292.667640700005,292.667640700005,old_sceneOut_31.png,3,5.0,1.549294399912469,,,,,,030,1,2024-12-12_14h08.29.160,Surprise recog test,2023.1.3,59.93637155188793,
3,0,3,0,,,,,,,,,,,,,,,,,,,,,,,,,,,,,,,,,,,,296.6564508000156,297.67999730003066,295.2412742000306,295.2412742000306,295.2412742000306,295.2412742000306,new_stationery_9.png,4,5.0,1.4137379999738187,,,,,,030,1,2024-12-12_14h08.29.160,Surprise recog test,2023.1.3,59.93637155188793,
4,0,4,0,,,,,,,,,,,,,,,,,,,,,,,,,,,,,,,,,,,,299.4921906000236,300.5157327000052,297.67999730003066,297.67999730003066,297.67999730003066,297.67999730003066,new_fruit_27.png,5,1.0,1.8120231999782845,,,,,,030,1,2024-12-12_14h08.29.160,Surprise recog test,2023.1.3,59.93637155188793,
5,0,5,0,,,,,,,,,,,,,,,,,,,,,,,,,,,,,,,,,,,,302.2610588000389,303.2689315000316,300.5157327000052,300.5157327000052,300.5157327000052,300.5157327000052,new_sceneIn_11.png,6,5.0,1.7479275000514463,,,,,,030,1,2024-12-12_14h08.29.160,Surprise recog test,2023.1.3,59.93637155188793,
6,0,6,0,,,,,,,,,,,,,,,,,,,,,,,,,,,,,,,,,,,,304.30375620000996,305.3330915000988,303.2689315000316,303.2689315000316,303.2689315000316,303.2689315000316,new_sceneIn_24.png,7,5.0,1.0282527999952435,,,,,,030,1,2024-12-12_14h08.29.160,Surprise recog test,2023.1.3,59.93637155188793,
7,0,7,0,,,,,,,,,,,,,,,,,,,,,,,,,,,,,,,,,,,,306.373248900054,307.4022643000353,305.3330915000988,305.3330915000988,305.3330915000988,305.3330915000988,new_sceneIn_35.png,8,5.0,1.0417046999791637,,,,,,030,1,2024-12-12_14h08.29.160,Surprise recog test,2023.1.3,59.93637155188793,
8,0,8,0,,,,,,,,,,,,,,,,,,,,,,,,,,,,,,,,,,,,308.69391970010474,309.70808210002724,307.4022643000353,307.4022643000353,307.4022643000353,307.4022643000353,new_fruit_22.png,9,5.0,1.2941288000438362,,,,,,030,1,2024-12-12_14h08.29.160,Surprise recog test,2023.1.3,59.93637155188793,
9,0,9,0,,,,,,,,,,,,,,,,,,,,,,,,,,,,,,,,,,,,310.58182000007946,311.5936499000527,309.70808210002724,309.70808210002724,309.70808210002724,309.70808210002724,old_sceneIn_8.png,10,5.0,0.867834800039418,,,,,,030,1,2024-12-12_14h08.29.160,Surprise recog test,2023.1.3,59.93637155188793,
10,0,10,0,,,,,,,,,,,,,,,,,,,,,,,,,,,,,,,,,,,,315.29705160006415,316.3191557000391,311.5936499000527,311.5936499000527,311.5936499000527,311.5936499000527,old_stationery_15.png,11,3.0,3.7000501999864355,,,,,,030,1,2024-12-12_14h08.29.160,Surprise recog test,2023.1.3,59.93637155188793,
11,0,11,0,,,,,,,,,,,,,,,,,,,,,,,,,,,,,,,,,,,,317.60041000007186,318.61614420008846,316.3191557000391,316.3191557000391,316.3191557000391,316.3191557000391,old_sceneIn_47.png,12,5.0,1.2820179000264034,,,,,,030,1,2024-12-12_14h08.29.160,Surprise recog test,2023.1.3,59.93637155188793,
12,0,12,0,,,,,,,,,,,,,,,,,,,,,,,,,,,,,,,,,,,,320.9099138000747,321.926257400075,318.61614420008846,318.61614420008846,318.61614420008846,318.61614420008846,new_stationery_1.png,13,2.0,2.2859102999791503,,,,,,030,1,2024-12-12_14h08.29.160,Surprise recog test,2023.1.3,59.93637155188793,
13,0,13,0,,,,,,,,,,,,,,,,,,,,,,,,,,,,,,,,,,,,323.11872320005205,324.13735900004394,321.926257400075,321.926257400075,321.926257400075,321.926257400075,new_sceneIn_33.png,14,5.0,1.1896383999846876,,,,,,030,1,2024-12-12_14h08.29.160,Surprise recog test,2023.1.3,59.93637155188793,
14,0,14,0,,,,,,,,,,,,,,,,,,,,,,,,,,,,,,,,,,,,327.1077794000739,328.1341265999945,324.13735900004394,324.13735900004394,324.13735900004394,324.13735900004394,old_stationery_25.png,15,4.0,2.966032800031826,,,,,,030,1,2024-12-12_14h08.29.160,Surprise recog test,2023.1.3,59.93637155188793,
15,0,15,0,,,,,,,,,,,,,,,,,,,,,,,,,,,,,,,,,,,,329.9254348000977,330.9560086000711,328.1341265999945,328.1341265999945,328.1341265999945,328.1341265999945,new_fruit_41.png,16,1.0,1.790871899924241,,,,,,030,1,2024-12-12_14h08.29.160,Surprise recog test,2023.1.3,59.93637155188793,
16,0,16,0,,,,,,,,,,,,,,,,,,,,,,,,,,,,,,,,,,,,332.7023232000647,333.712841300061,330.9560086000711,330.9560086000711,330.9560086000711,330.9560086000711,new_sceneOut_3.png,17,5.0,1.750134599977173,,,,,,030,1,2024-12-12_14h08.29.160,Surprise recog test,2023.1.3,59.93637155188793,
17,0,17,0,,,,,,,,,,,,,,,,,,,,,,,,,,,,,,,,,,,,335.1958944000071,336.2093776999973,333.712841300061,333.712841300061,333.712841300061,333.712841300061,new_sceneOut_41.png,18,5.0,1.4794445000588894,,,,,,030,1,2024-12-12_14h08.29.160,Surprise recog test,2023.1.3,59.93637155188793,
18,0,18,0,,,,,,,,,,,,,,,,,,,,,,,,,,,,,,,,,,,,338.36847220000345,339.3942252000561,336.2093776999973,336.2093776999973,336.2093776999973,336.2093776999973,old_stationery_12.png,19,1.0,2.1542476000031456,,,,,,030,1,2024-12-12_14h08.29.160,Surprise recog test,2023.1.3,59.93637155188793,
19,0,19,0,,,,,,,,,,,,,,,,,,,,,,,,,,,,,,,,,,,,340.8014458999969,341.8311485000886,339.3942252000561,339.3942252000561,339.3942252000561,339.3942252000561,old_sceneIn_1.png,20,5.0,1.408571399981156,,,,,,030,1,2024-12-12_14h08.29.160,Surprise recog test,2023.1.3,59.93637155188793,
20,0,20,0,,,,,,,,,,,,,,,,,,,,,,,,,,,,,,,,,,,,342.90772960009053,343.930545900017,341.8311485000886,341.8311485000886,341.8311485000886,341.8311485000886,new_sceneIn_49.png,21,5.0,1.0781202999642119,,,,,,030,1,2024-12-12_14h08.29.160,Surprise recog test,2023.1.3,59.93637155188793,
21,0,21,0,,,,,,,,,,,,,,,,,,,,,,,,,,,,,,,,,,,,346.7031154000433,347.7232449000003,343.930545900017,343.930545900017,343.930545900017,343.930545900017,old_fruit_7.png,22,3.0,2.774525500019081,,,,,,030,1,2024-12-12_14h08.29.160,Surprise recog test,2023.1.3,59.93637155188793,
22,0,22,0,,,,,,,,,,,,,,,,,,,,,,,,,,,,,,,,,,,,349.4838222000981,350.5053194001084,347.7232449000003,347.7232449000003,347.7232449000003,347.7232449000003,new_stationery_30.png,23,5.0,1.7493252999847755,,,,,,030,1,2024-12-12_14h08.29.160,Surprise recog test,2023.1.3,59.93637155188793,
23,0,23,0,,,,,,,,,,,,,,,,,,,,,,,,,,,,,,,,,,,,352.7762734000571,353.79431500006467,350.5053194001084,350.5053194001084,350.5053194001084,350.5053194001084,new_sceneIn_14.png,24,5.0,2.2736316999653354,,,,,,030,1,2024-12-12_14h08.29.160,Surprise recog test,2023.1.3,59.93637155188793,
24,0,24,0,,,,,,,,,,,,,,,,,,,,,,,,,,,,,,,,,,,,356.72805530007463,357.7468979000114,353.79431500006467,353.79431500006467,353.79431500006467,353.79431500006467,new_fruit_47.png,25,5.0,2.9299814000260085,,,,,,030,1,2024-12-12_14h08.29.160,Surprise recog test,2023.1.3,59.93637155188793,
25,0,25,0,,,,,,,,,,,,,,,,,,,,,,,,,,,,,,,,,,,,358.7609734000871,,357.7468979000114,357.7468979000114,357.7468979000114,357.7468979000114,new_sceneIn_9.png,26,5.0,1.0125859000254422,,,,,,030,1,2024-12-12_14h08.29.160,Surprise recog test,2023.1.3,59.93637155188793,
26,0,26,0,,,,,,,,,,,,,,,,,,,,,,,,,,,,,,,,,,,,360.9631602000445,,359.79389299999457,359.79389299999457,359.79389299999457,359.79389299999457,new_stationery_19.png,27,5.0,1.1663046000758186,,,,,,030,1,2024-12-12_14h08.29.160,Surprise recog test,2023.1.3,59.93637155188793,
27,0,27,0,,,,,,,,,,,,,,,,,,,,,,,,,,,,,,,,,,,,362.7854303000495,363.7993963001063,361.9887648000149,361.9887648000149,361.9887648000149,361.9887648000149,old_sceneIn_3.png,28,5.0,0.7962343000108376,,,,,,030,1,2024-12-12_14h08.29.160,Surprise recog test,2023.1.3,59.93637155188793,
28,0,28,0,,,,,,,,,,,,,,,,,,,,,,,,,,,,,,,,,,,,364.8296890000347,365.8492109000217,363.7993963001063,363.7993963001063,363.7993963001063,363.7993963001063,new_sceneIn_26.png,29,5.0,1.020906800054945,,,,,,030,1,2024-12-12_14h08.29.160,Surprise recog test,2023.1.3,59.93637155188793,
29,0,29,0,,,,,,,,,,,,,,,,,,,,,,,,,,,,,,,,,,,,366.7198005000828,367.75033420010004,365.8492109000217,365.8492109000217,365.8492109000217,365.8492109000217,old_sceneOut_44.png,30,5.0,0.872823900077492,,,,,,030,1,2024-12-12_14h08.29.160,Surprise recog test,2023.1.3,59.93637155188793,
30,0,30,0,,,,,,,,,,,,,,,,,,,,,,,,,,,,,,,,,,,,368.4261324000545,369.4413343000924,367.75033420010004,367.75033420010004,367.75033420010004,367.75033420010004,old_sceneIn_49.png,31,5.0,0.6778186000883579,,,,,,030,1,2024-12-12_14h08.29.160,Surprise recog test,2023.1.3,59.93637155188793,
31,0,31,0,,,,,,,,,,,,,,,,,,,,,,,,,,,,,,,,,,,,370.63526870007627,371.64723770006094,369.4413343000924,369.4413343000924,369.4413343000924,369.4413343000924,new_stationery_27.png,32,5.0,1.1874173999531195,,,,,,030,1,2024-12-12_14h08.29.160,Surprise recog test,2023.1.3,59.93637155188793,
32,0,32,0,,,,,,,,,,,,,,,,,,,,,,,,,,,,,,,,,,,,373.4569444000954,,371.64723770006094,371.64723770006094,371.64723770006094,371.64723770006094,new_sceneOut_29.png,33,5.0,1.8096065000863746,,,,,,030,1,2024-12-12_14h08.29.160,Surprise recog test,2023.1.3,59.93637155188793,
33,0,33,0,,,,,,,,,,,,,,,,,,,,,,,,,,,,,,,,,,,,375.22822370007634,376.26038930006325,374.47833910002373,374.47833910002373,374.47833910002373,374.47833910002373,old_sceneOut_17.png,34,5.0,0.7435315999900922,,,,,,030,1,2024-12-12_14h08.29.160,Surprise recog test,2023.1.3,59.93637155188793,
34,0,34,0,,,,,,,,,,,,,,,,,,,,,,,,,,,,,,,,,,,,379.2992293999996,380.32805300003383,376.26038930006325,376.26038930006325,376.26038930006325,376.26038930006325,old_stationery_20.png,35,1.0,3.0403887999709696,,,,,,030,1,2024-12-12_14h08.29.160,Surprise recog test,2023.1.3,59.93637155188793,
35,0,35,0,,,,,,,,,,,,,,,,,,,,,,,,,,,,,,,,,,,,382.6420803000219,383.6683357000584,380.32805300003383,380.32805300003383,380.32805300003383,380.32805300003383,new_stationery_37.png,36,5.0,2.3160286000929773,,,,,,030,1,2024-12-12_14h08.29.160,Surprise recog test,2023.1.3,59.93637155188793,
36,0,36,0,,,,,,,,,,,,,,,,,,,,,,,,,,,,,,,,,,,,384.6082014000276,385.61918430007063,383.6683357000584,383.6683357000584,383.6683357000584,383.6683357000584,old_sceneIn_17.png,37,5.0,0.9424015999538824,,,,,,030,1,2024-12-12_14h08.29.160,Surprise recog test,2023.1.3,59.93637155188793,
37,0,37,0,,,,,,,,,,,,,,,,,,,,,,,,,,,,,,,,,,,,387.4057163000107,388.41980380006135,385.61918430007063,385.61918430007063,385.61918430007063,385.61918430007063,new_fruit_18.png,38,1.0,1.7825054000131786,,,,,,030,1,2024-12-12_14h08.29.160,Surprise recog test,2023.1.3,59.93637155188793,
38,0,38,0,,,,,,,,,,,,,,,,,,,,,,,,,,,,,,,,,,,,389.30657250003424,390.3374426000519,388.41980380006135,388.41980380006135,388.41980380006135,388.41980380006135,old_fruit_12.png,39,1.0,0.8829778999788687,,,,,,030,1,2024-12-12_14h08.29.160,Surprise recog test,2023.1.3,59.93637155188793,
39,0,39,0,,,,,,,,,,,,,,,,,,,,,,,,,,,,,,,,,,,,391.79060589999426,392.8224739000434,390.3374426000519,390.3374426000519,390.3374426000519,390.3374426000519,new_sceneIn_7.png,40,5.0,1.4552791999885812,,,,,,030,1,2024-12-12_14h08.29.160,Surprise recog test,2023.1.3,59.93637155188793,
40,0,40,0,,,,,,,,,,,,,,,,,,,,,,,,,,,,,,,,,,,,396.35484050004743,397.36364360002335,392.8224739000434,392.8224739000434,392.8224739000434,392.8224739000434,new_fruit_32.png,41,4.0,3.5347004999639466,,,,,,030,1,2024-12-12_14h08.29.160,Surprise recog test,2023.1.3,59.93637155188793,
41,0,41,0,,,,,,,,,,,,,,,,,,,,,,,,,,,,,,,,,,,,398.8319629000034,399.8607629000908,397.36364360002335,397.36364360002335,397.36364360002335,397.36364360002335,old_sceneIn_43.png,42,5.0,1.4662433000048622,,,,,,030,1,2024-12-12_14h08.29.160,Surprise recog test,2023.1.3,59.93637155188793,
42,0,42,0,,,,,,,,,,,,,,,,,,,,,,,,,,,,,,,,,,,,402.8159039000748,403.84733250003774,399.8607629000908,399.8607629000908,399.8607629000908,399.8607629000908,new_stationery_12.png,43,2.0,2.954767399933189,,,,,,030,1,2024-12-12_14h08.29.160,Surprise recog test,2023.1.3,59.93637155188793,
43,0,43,0,,,,,,,,,,,,,,,,,,,,,,,,,,,,,,,,,,,,405.50594410009217,406.52000640006736,403.84733250003774,403.84733250003774,403.84733250003774,403.84733250003774,new_sceneIn_27.png,44,1.0,1.6601876999484375,,,,,,030,1,2024-12-12_14h08.29.160,Surprise recog test,2023.1.3,59.93637155188793,
44,0,44,0,,,,,,,,,,,,,,,,,,,,,,,,,,,,,,,,,,,,407.41564530006144,408.43565910006873,406.52000640006736,406.52000640006736,406.52000640006736,406.52000640006736,old_stationery_40.png,45,1.0,0.8922087999526411,,,,,,030,1,2024-12-12_14h08.29.160,Surprise recog test,2023.1.3,59.93637155188793,
45,0,45,0,,,,,,,,,,,,,,,,,,,,,,,,,,,,,,,,,,,,409.7585108000785,410.78778760007117,408.43565910006873,408.43565910006873,408.43565910006873,408.43565910006873,old_sceneIn_26.png,46,5.0,1.3254506000084803,,,,,,030,1,2024-12-12_14h08.29.160,Surprise recog test,2023.1.3,59.93637155188793,
46,0,46,0,,,,,,,,,,,,,,,,,,,,,,,,,,,,,,,,,,,,413.5601523000514,414.57883540005423,410.78778760007117,410.78778760007117,410.78778760007117,410.78778760007117,old_stationery_36.png,47,5.0,2.775136800017208,,,,,,030,1,2024-12-12_14h08.29.160,Surprise recog test,2023.1.3,59.93637155188793,
47,0,47,0,,,,,,,,,,,,,,,,,,,,,,,,,,,,,,,,,,,,417.05643009999767,418.07754329999443,414.57883540005423,414.57883540005423,414.57883540005423,414.57883540005423,old_stationery_35.png,48,5.0,2.4725872999988496,,,,,,030,1,2024-12-12_14h08.29.160,Surprise recog test,2023.1.3,59.93637155188793,
48,0,48,0,,,,,,,,,,,,,,,,,,,,,,,,,,,,,,,,,,,,419.8086758001009,420.8215520000085,418.07754329999443,418.07754329999443,418.07754329999443,418.07754329999443,new_stationery_23.png,49,1.0,1.7284592000069097,,,,,,030,1,2024-12-12_14h08.29.160,Surprise recog test,2023.1.3,59.93637155188793,
49,0,49,0,,,,,,,,,,,,,,,,,,,,,,,,,,,,,,,,,,,,422.60446480009705,423.6165104000829,420.8215520000085,420.8215520000085,420.8215520000085,420.8215520000085,new_stationery_40.png,50,5.0,1.7786134000634775,,,,,,030,1,2024-12-12_14h08.29.160,Surprise recog test,2023.1.3,59.93637155188793,
50,0,50,0,,,,,,,,,,,,,,,,,,,,,,,,,,,,,,,,,,,,425.2632466000505,426.2827022999991,423.6165104000829,423.6165104000829,423.6165104000829,423.6165104000829,old_sceneOut_8.png,51,5.0,1.6409525000490248,,,,,,030,1,2024-12-12_14h08.29.160,Surprise recog test,2023.1.3,59.93637155188793,
51,0,51,0,,,,,,,,,,,,,,,,,,,,,,,,,,,,,,,,,,,,427.56283980002627,428.58699070010334,426.2827022999991,426.2827022999991,426.2827022999991,426.2827022999991,new_sceneIn_42.png,52,5.0,1.2812413000501692,,,,,,030,1,2024-12-12_14h08.29.160,Surprise recog test,2023.1.3,59.93637155188793,
52,0,52,0,,,,,,,,,,,,,,,,,,,,,,,,,,,,,,,,,,,,431.85762750008143,432.8772014999995,428.58699070010334,428.58699070010334,428.58699070010334,428.58699070010334,old_stationery_8.png,53,1.0,3.2731151999905705,,,,,,030,1,2024-12-12_14h08.29.160,Surprise recog test,2023.1.3,59.93637155188793,
53,0,53,0,,,,,,,,,,,,,,,,,,,,,,,,,,,,,,,,,,,,434.50960870005656,435.5407781000249,432.8772014999995,432.8772014999995,432.8772014999995,432.8772014999995,old_stationery_42.png,54,5.0,1.6261959000257775,,,,,,030,1,2024-12-12_14h08.29.160,Surprise recog test,2023.1.3,59.93637155188793,
54,0,54,0,,,,,,,,,,,,,,,,,,,,,,,,,,,,,,,,,,,,436.53918610000983,437.5585935000563,435.5407781000249,435.5407781000249,435.5407781000249,435.5407781000249,new_sceneOut_50.png,55,5.0,0.99560989998281,,,,,,030,1,2024-12-12_14h08.29.160,Surprise recog test,2023.1.3,59.93637155188793,
55,0,55,0,,,,,,,,,,,,,,,,,,,,,,,,,,,,,,,,,,,,438.76637930003926,439.79378670000006,437.5585935000563,437.5585935000563,437.5585935000563,437.5585935000563,old_sceneIn_24.png,56,5.0,1.209719100035727,,,,,,030,1,2024-12-12_14h08.29.160,Surprise recog test,2023.1.3,59.93637155188793,
56,0,56,0,,,,,,,,,,,,,,,,,,,,,,,,,,,,,,,,,,,,441.6601018999936,442.67163270001765,439.79378670000006,439.79378670000006,439.79378670000006,439.79378670000006,old_fruit_29.png,57,1.0,1.8616742000449449,,,,,,030,1,2024-12-12_14h08.29.160,Surprise recog test,2023.1.3,59.93637155188793,
57,0,57,0,,,,,,,,,,,,,,,,,,,,,,,,,,,,,,,,,,,,444.9524945000885,445.98141320003197,442.67163270001765,442.67163270001765,442.67163270001765,442.67163270001765,old_sceneOut_10.png,58,5.0,2.2777867999393493,,,,,,030,1,2024-12-12_14h08.29.160,Surprise recog test,2023.1.3,59.93637155188793,
58,0,58,0,,,,,,,,,,,,,,,,,,,,,,,,,,,,,,,,,,,,447.31392240000423,448.3288396000862,445.98141320003197,445.98141320003197,445.98141320003197,445.98141320003197,old_sceneIn_31.png,59,5.0,1.3331933999434114,,,,,,030,1,2024-12-12_14h08.29.160,Surprise recog test,2023.1.3,59.93637155188793,
59,0,59,0,,,,,,,,,,,,,,,,,,,,,,,,,,,,,,,,,,,,453.05249630007893,454.0610009999946,448.3288396000862,448.3288396000862,448.3288396000862,448.3288396000862,new_fruit_50.png,60,3.0,4.724410000024363,,,,,,030,1,2024-12-12_14h08.29.160,Surprise recog test,2023.1.3,59.93637155188793,
60,0,60,0,,,,,,,,,,,,,,,,,,,,,,,,,,,,,,,,,,,,457.0729321000399,458.0954543000553,454.0610009999946,454.0610009999946,454.0610009999946,454.0610009999946,new_fruit_29.png,61,4.0,3.000857900013216,,,,,,030,1,2024-12-12_14h08.29.160,Surprise recog test,2023.1.3,59.93637155188793,
61,0,61,0,,,,,,,,,,,,,,,,,,,,,,,,,,,,,,,,,,,,461.63182150002103,462.6652322000591,458.0954543000553,458.0954543000553,458.0954543000553,458.0954543000553,old_sceneIn_46.png,62,5.0,3.539649000042118,,,,,,030,1,2024-12-12_14h08.29.160,Surprise recog test,2023.1.3,59.93637155188793,
62,0,62,0,,,,,,,,,,,,,,,,,,,,,,,,,,,,,,,,,,,,463.4134752000682,464.42944500001613,462.6652322000591,462.6652322000591,462.6652322000591,462.6652322000591,new_sceneIn_2.png,63,5.0,0.7516767999622971,,,,,,030,1,2024-12-12_14h08.29.160,Surprise recog test,2023.1.3,59.93637155188793,
63,0,63,0,,,,,,,,,,,,,,,,,,,,,,,,,,,,,,,,,,,,465.1249056000961,466.1508202000987,464.42944500001613,464.42944500001613,464.42944500001613,464.42944500001613,new_sceneOut_30.png,64,5.0,0.696418400038965,,,,,,030,1,2024-12-12_14h08.29.160,Surprise recog test,2023.1.3,59.93637155188793,
64,0,64,0,,,,,,,,,,,,,,,,,,,,,,,,,,,,,,,,,,,,466.80138400010765,,466.1508202000987,466.1508202000987,466.1508202000987,466.1508202000987,old_sceneOut_6.png,65,5.0,0.6513186000520363,,,,,,030,1,2024-12-12_14h08.29.160,Surprise recog test,2023.1.3,59.93637155188793,
65,0,65,0,,,,,,,,,,,,,,,,,,,,,,,,,,,,,,,,,,,,468.98855150002055,470.00861060002353,467.83509890001733,467.83509890001733,467.83509890001733,467.83509890001733,new_sceneOut_17.png,66,5.0,1.1529073999263346,,,,,,030,1,2024-12-12_14h08.29.160,Surprise recog test,2023.1.3,59.93637155188793,
66,0,66,0,,,,,,,,,,,,,,,,,,,,,,,,,,,,,,,,,,,,471.4734373000683,472.49286810006015,470.00861060002353,470.00861060002353,470.00861060002353,470.00861060002353,old_stationery_48.png,67,5.0,1.4609879999188706,,,,,,030,1,2024-12-12_14h08.29.160,Surprise recog test,2023.1.3,59.93637155188793,
67,0,67,0,,,,,,,,,,,,,,,,,,,,,,,,,,,,,,,,,,,,477.4897288000211,,472.49286810006015,472.49286810006015,472.49286810006015,472.49286810006015,old_sceneOut_23.png,68,None,None,477.4747098000953,,,,,030,1,2024-12-12_14h08.29.160,Surprise recog test,2023.1.3,59.93637155188793,
68,0,68,0,,,,,,,,,,,,,,,,,,,,,,,,,,,,,,,,,,,,479.4614877999993,,478.51331080007367,478.51331080007367,478.51331080007367,478.51331080007367,old_sceneIn_37.png,69,5.0,0.9488504000473768,,,,,,030,1,2024-12-12_14h08.29.160,Surprise recog test,2023.1.3,59.93637155188793,
69,0,69,0,,,,,,,,,,,,,,,,,,,,,,,,,,,,,,,,,,,,482.91783650009893,483.93942120007705,480.5011035000207,480.5011035000207,480.5011035000207,480.5011035000207,old_fruit_16.png,70,1.0,2.4215764000546187,,,,,,030,1,2024-12-12_14h08.29.160,Surprise recog test,2023.1.3,59.93637155188793,
70,0,70,0,,,,,,,,,,,,,,,,,,,,,,,,,,,,,,,,,,,,485.5634387000464,486.5836591999978,483.93942120007705,483.93942120007705,483.93942120007705,483.93942120007705,new_sceneIn_41.png,71,5.0,1.6179409000324085,,,,,,030,1,2024-12-12_14h08.29.160,Surprise recog test,2023.1.3,59.93637155188793,
71,0,71,0,,,,,,,,,,,,,,,,,,,,,,,,,,,,,,,,,,,,488.4250781000592,489.4476300000679,486.5836591999978,486.5836591999978,486.5836591999978,486.5836591999978,old_fruit_49.png,72,5.0,1.8423089000862092,,,,,,030,1,2024-12-12_14h08.29.160,Surprise recog test,2023.1.3,59.93637155188793,
72,0,72,0,,,,,,,,,,,,,,,,,,,,,,,,,,,,,,,,,,,,491.09317860007286,492.1203130000504,489.4476300000679,489.4476300000679,489.4476300000679,489.4476300000679,new_stationery_24.png,73,1.0,1.6425753999501467,,,,,,030,1,2024-12-12_14h08.29.160,Surprise recog test,2023.1.3,59.93637155188793,
73,0,73,0,,,,,,,,,,,,,,,,,,,,,,,,,,,,,,,,,,,,494.10835110000335,495.14011600008234,492.1203130000504,492.1203130000504,492.1203130000504,492.1203130000504,new_stationery_33.png,74,5.0,1.9899078999878839,,,,,,030,1,2024-12-12_14h08.29.160,Surprise recog test,2023.1.3,59.93637155188793,
74,0,74,0,,,,,,,,,,,,,,,,,,,,,,,,,,,,,,,,,,,,498.1644260000903,499.1949888000963,495.14011600008234,495.14011600008234,495.14011600008234,495.14011600008234,new_stationery_22.png,75,5.0,3.02648640004918,,,,,,030,1,2024-12-12_14h08.29.160,Surprise recog test,2023.1.3,59.93637155188793,
75,0,75,0,,,,,,,,,,,,,,,,,,,,,,,,,,,,,,,,,,,,501.0470515000634,502.06756810005754,499.1949888000963,499.1949888000963,499.1949888000963,499.1949888000963,old_stationery_22.png,76,1.0,1.8545889999950305,,,,,,030,1,2024-12-12_14h08.29.160,Surprise recog test,2023.1.3,59.93637155188793,
76,0,76,0,,,,,,,,,,,,,,,,,,,,,,,,,,,,,,,,,,,,503.3115313000744,504.3316613000352,502.06756810005754,502.06756810005754,502.06756810005754,502.06756810005754,new_sceneOut_44.png,77,5.0,1.2421929999254644,,,,,,030,1,2024-12-12_14h08.29.160,Surprise recog test,2023.1.3,59.93637155188793,
77,0,77,0,,,,,,,,,,,,,,,,,,,,,,,,,,,,,,,,,,,,505.87765360006597,506.8882559000049,504.3316613000352,504.3316613000352,504.3316613000352,504.3316613000352,old_fruit_24.png,78,5.0,1.5456683000084013,,,,,,030,1,2024-12-12_14h08.29.160,Surprise recog test,2023.1.3,59.93637155188793,
78,0,78,0,,,,,,,,,,,,,,,,,,,,,,,,,,,,,,,,,,,,507.78013630001806,508.78628110000864,506.8882559000049,506.8882559000049,506.8882559000049,506.8882559000049,new_sceneOut_22.png,79,5.0,0.8857371000340208,,,,,,030,1,2024-12-12_14h08.29.160,Surprise recog test,2023.1.3,59.93637155188793,
79,0,79,0,,,,,,,,,,,,,,,,,,,,,,,,,,,,,,,,,,,,509.9652706000488,510.9812434000196,508.78628110000864,508.78628110000864,508.78628110000864,508.78628110000864,new_stationery_42.png,80,5.0,1.1750708000035957,,,,,,030,1,2024-12-12_14h08.29.160,Surprise recog test,2023.1.3,59.93637155188793,
80,0,80,0,,,,,,,,,,,,,,,,,,,,,,,,,,,,,,,,,,,,512.9478313000873,513.9724365000147,510.9812434000196,510.9812434000196,510.9812434000196,510.9812434000196,old_stationery_47.png,81,1.0,1.9624288000632077,,,,,,030,1,2024-12-12_14h08.29.160,Surprise recog test,2023.1.3,59.93637155188793,
81,0,81,0,,,,,,,,,,,,,,,,,,,,,,,,,,,,,,,,,,,,516.3549865999958,517.3755005000858,513.9724365000147,513.9724365000147,513.9724365000147,513.9724365000147,new_stationery_34.png,82,5.0,2.384870099951513,,,,,,030,1,2024-12-12_14h08.29.160,Surprise recog test,2023.1.3,59.93637155188793,
82,0,82,0,,,,,,,,,,,,,,,,,,,,,,,,,,,,,,,,,,,,518.4255168000236,519.4449130001012,517.3755005000858,517.3755005000858,517.3755005000858,517.3755005000858,new_stationery_44.png,83,5.0,1.0502695000031963,,,,,,030,1,2024-12-12_14h08.29.160,Surprise recog test,2023.1.3,59.93637155188793,
83,0,83,0,,,,,,,,,,,,,,,,,,,,,,,,,,,,,,,,,,,,523.0418959000381,524.0606877000537,519.4449130001012,519.4449130001012,519.4449130001012,519.4449130001012,new_sceneOut_20.png,84,5.0,3.599167999927886,,,,,,030,1,2024-12-12_14h08.29.160,Surprise recog test,2023.1.3,59.93637155188793,
84,0,84,0,,,,,,,,,,,,,,,,,,,,,,,,,,,,,,,,,,,,527.4162347000092,528.4329527000664,524.0606877000537,524.0606877000537,524.0606877000537,524.0606877000537,old_sceneOut_29.png,85,5.0,3.3528516999213025,,,,,,030,1,2024-12-12_14h08.29.160,Surprise recog test,2023.1.3,59.93637155188793,
85,0,85,0,,,,,,,,,,,,,,,,,,,,,,,,,,,,,,,,,,,,530.8353657000698,531.8431284000399,528.4329527000664,528.4329527000664,528.4329527000664,528.4329527000664,old_stationery_45.png,86,1.0,2.4031539999414235,,,,,,030,1,2024-12-12_14h08.29.160,Surprise recog test,2023.1.3,59.93637155188793,
86,0,86,0,,,,,,,,,,,,,,,,,,,,,,,,,,,,,,,,,,,,533.5124448999995,534.5406275000423,531.8431284000399,531.8431284000399,531.8431284000399,531.8431284000399,old_sceneOut_40.png,87,5.0,1.6628819999750704,,,,,,030,1,2024-12-12_14h08.29.160,Surprise recog test,2023.1.3,59.93637155188793,
87,0,87,0,,,,,,,,,,,,,,,,,,,,,,,,,,,,,,,,,,,,538.5404600000475,539.5544685000787,534.5406275000423,534.5406275000423,534.5406275000423,534.5406275000423,new_stationery_8.png,88,5.0,3.995082600042224,,,,,,030,1,2024-12-12_14h08.29.160,Surprise recog test,2023.1.3,59.93637155188793,
88,0,88,0,,,,,,,,,,,,,,,,,,,,,,,,,,,,,,,,,,,,542.0276240000967,543.0451010999968,539.5544685000787,539.5544685000787,539.5544685000787,539.5544685000787,old_fruit_39.png,89,1.0,2.474305099924095,,,,,,030,1,2024-12-12_14h08.29.160,Surprise recog test,2023.1.3,59.93637155188793,
89,0,89,0,,,,,,,,,,,,,,,,,,,,,,,,,,,,,,,,,,,,545.8090443999972,546.8319790000096,543.0451010999968,543.0451010999968,543.0451010999968,543.0451010999968,old_sceneOut_43.png,90,5.0,2.7666347000049427,,,,,,030,1,2024-12-12_14h08.29.160,Surprise recog test,2023.1.3,59.93637155188793,
90,0,90,0,,,,,,,,,,,,,,,,,,,,,,,,,,,,,,,,,,,,548.335278200102,,546.8319790000096,546.8319790000096,546.8319790000096,546.8319790000096,old_sceneIn_19.png,91,5.0,1.505256999982521,,,,,,030,1,2024-12-12_14h08.29.160,Surprise recog test,2023.1.3,59.93637155188793,
91,0,91,0,,,,,,,,,,,,,,,,,,,,,,,,,,,,,,,,,,,,550.1063255000627,551.1251362001058,549.3557760000695,549.3557760000695,549.3557760000695,549.3557760000695,new_sceneOut_23.png,92,5.0,0.7463973000412807,,,,,,030,1,2024-12-12_14h08.29.160,Surprise recog test,2023.1.3,59.93637155188793,
92,0,92,0,,,,,,,,,,,,,,,,,,,,,,,,,,,,,,,,,,,,552.9859178001061,554.0117845000932,551.1251362001058,551.1251362001058,551.1251362001058,551.1251362001058,old_stationery_41.png,93,1.0,1.8498848000308499,,,,,,030,1,2024-12-12_14h08.29.160,Surprise recog test,2023.1.3,59.93637155188793,
93,0,93,0,,,,,,,,,,,,,,,,,,,,,,,,,,,,,,,,,,,,555.7112826000666,556.7393904000055,554.0117845000932,554.0117845000932,554.0117845000932,554.0117845000932,new_stationery_26.png,94,5.0,1.7032440000912175,,,,,,030,1,2024-12-12_14h08.29.160,Surprise recog test,2023.1.3,59.93637155188793,
94,0,94,0,,,,,,,,,,,,,,,,,,,,,,,,,,,,,,,,,,,,561.2292897000443,,556.7393904000055,556.7393904000055,556.7393904000055,556.7393904000055,old_fruit_15.png,95,5.0,4.491798200062476,,,,,,030,1,2024-12-12_14h08.29.160,Surprise recog test,2023.1.3,59.93637155188793,
95,0,95,0,,,,,,,,,,,,,,,,,,,,,,,,,,,,,,,,,,,,563.3403196000727,564.3656813000562,562.2598052000394,562.2598052000394,562.2598052000394,562.2598052000394,old_sceneOut_15.png,96,5.0,1.0811578000430018,,,,,,030,1,2024-12-12_14h08.29.160,Surprise recog test,2023.1.3,59.93637155188793,
96,0,96,0,,,,,,,,,,,,,,,,,,,,,,,,,,,,,,,,,,,,565.1211133000907,566.1500738000032,564.3656813000562,564.3656813000562,564.3656813000562,564.3656813000562,new_sceneIn_45.png,97,5.0,0.7578651999356225,,,,,,030,1,2024-12-12_14h08.29.160,Surprise recog test,2023.1.3,59.93637155188793,
97,0,97,0,,,,,,,,,,,,,,,,,,,,,,,,,,,,,,,,,,,,567.3219893000787,568.3502128000837,566.1500738000032,566.1500738000032,566.1500738000032,566.1500738000032,new_sceneIn_29.png,98,5.0,1.174567800015211,,,,,,030,1,2024-12-12_14h08.29.160,Surprise recog test,2023.1.3,59.93637155188793,
98,0,98,0,,,,,,,,,,,,,,,,,,,,,,,,,,,,,,,,,,,,569.2264864000026,570.2412766000489,568.3502128000837,568.3502128000837,568.3502128000837,568.3502128000837,old_sceneIn_12.png,99,5.0,0.878631200059317,,,,,,030,1,2024-12-12_14h08.29.160,Surprise recog test,2023.1.3,59.93637155188793,
99,0,99,0,,,,,,,,,,,,,,,,,,,,,,,,,,,,,,,,,,,,571.1841978000011,572.2073686000658,570.2412766000489,570.2412766000489,570.2412766000489,570.2412766000489,new_sceneIn_40.png,100,5.0,0.932268499978818,,,,,,030,1,2024-12-12_14h08.29.160,Surprise recog test,2023.1.3,59.93637155188793,
100,0,100,0,,,,,,,,,,,,,,,,,,,,,,,,,,,,,,,,,,,,573.4626661000075,574.4763655000133,572.2073686000658,572.2073686000658,572.2073686000658,572.2073686000658,new_fruit_38.png,101,5.0,1.25493459997233,,,,,,030,1,2024-12-12_14h08.29.160,Surprise recog test,2023.1.3,59.93637155188793,
101,0,101,0,,,,,,,,,,,,,,,,,,,,,,,,,,,,,,,,,,,,577.6662193000084,578.6773560000584,574.4763655000133,574.4763655000133,574.4763655000133,574.4763655000133,old_stationery_34.png,102,4.0,3.1861006000544876,,,,,,030,1,2024-12-12_14h08.29.160,Surprise recog test,2023.1.3,59.93637155188793,
102,0,102,0,,,,,,,,,,,,,,,,,,,,,,,,,,,,,,,,,,,,580.5389423000161,581.5661134000402,578.6773560000584,578.6773560000584,578.6773560000584,578.6773560000584,old_sceneOut_25.png,103,5.0,1.855179899954237,,,,,,030,1,2024-12-12_14h08.29.160,Surprise recog test,2023.1.3,59.93637155188793,
103,0,103,0,,,,,,,,,,,,,,,,,,,,,,,,,,,,,,,,,,,,582.3886283000465,583.4013172000414,581.5661134000402,581.5661134000402,581.5661134000402,581.5661134000402,new_sceneIn_12.png,104,5.0,0.8268526999745518,,,,,,030,1,2024-12-12_14h08.29.160,Surprise recog test,2023.1.3,59.93637155188793,
104,0,104,0,,,,,,,,,,,,,,,,,,,,,,,,,,,,,,,,,,,,584.9427282999968,585.9608077000594,583.4013172000414,583.4013172000414,583.4013172000414,583.4013172000414,new_stationery_41.png,105,5.0,1.5349784999853,,,,,,030,1,2024-12-12_14h08.29.160,Surprise recog test,2023.1.3,59.93637155188793,
105,0,105,0,,,,,,,,,,,,,,,,,,,,,,,,,,,,,,,,,,,,586.9954552000854,588.0184731000336,585.9608077000594,585.9608077000594,585.9608077000594,585.9608077000594,old_fruit_9.png,106,5.0,1.0324809999438003,,,,,,030,1,2024-12-12_14h08.29.160,Surprise recog test,2023.1.3,59.93637155188793,
106,0,106,0,,,,,,,,,,,,,,,,,,,,,,,,,,,,,,,,,,,,590.0801820000634,591.0921065000584,588.0184731000336,588.0184731000336,588.0184731000336,588.0184731000336,old_stationery_39.png,107,1.0,2.063703599967994,,,,,,030,1,2024-12-12_14h08.29.160,Surprise recog test,2023.1.3,59.93637155188793,
107,0,107,0,,,,,,,,,,,,,,,,,,,,,,,,,,,,,,,,,,,,592.630050900043,593.6551988000283,591.0921065000584,591.0921065000584,591.0921065000584,591.0921065000584,new_stationery_31.png,108,5.0,1.5342041999101639,,,,,,030,1,2024-12-12_14h08.29.160,Surprise recog test,2023.1.3,59.93637155188793,
108,0,108,0,,,,,,,,,,,,,,,,,,,,,,,,,,,,,,,,,,,,595.5433659000555,596.5732605000958,593.6551988000283,593.6551988000283,593.6551988000283,593.6551988000283,old_stationery_33.png,109,5.0,1.8896324000088498,,,,,,030,1,2024-12-12_14h08.29.160,Surprise recog test,2023.1.3,59.93637155188793,
109,0,109,0,,,,,,,,,,,,,,,,,,,,,,,,,,,,,,,,,,,,597.4642909000395,598.4907703000354,596.5732605000958,596.5732605000958,596.5732605000958,596.5732605000958,new_stationery_3.png,110,5.0,0.8949326999718323,,,,,,030,1,2024-12-12_14h08.29.160,Surprise recog test,2023.1.3,59.93637155188793,
110,0,110,0,,,,,,,,,,,,,,,,,,,,,,,,,,,,,,,,,,,,600.3053779000184,601.3168508000672,598.4907703000354,598.4907703000354,598.4907703000354,598.4907703000354,old_fruit_45.png,111,5.0,1.8152439000550658,,,,,,030,1,2024-12-12_14h08.29.160,Surprise recog test,2023.1.3,59.93637155188793,
111,0,111,0,,,,,,,,,,,,,,,,,,,,,,,,,,,,,,,,,,,,602.1984402000671,603.2188215000788,601.3168508000672,601.3168508000672,601.3168508000672,601.3168508000672,new_stationery_29.png,112,5.0,0.8773797999601811,,,,,,030,1,2024-12-12_14h08.29.160,Surprise recog test,2023.1.3,59.93637155188793,
112,0,112,0,,,,,,,,,,,,,,,,,,,,,,,,,,,,,,,,,,,,604.1283006001031,605.1470111000817,603.2188215000788,603.2188215000788,603.2188215000788,603.2188215000788,new_sceneIn_10.png,113,5.0,0.9001225000247359,,,,,,030,1,2024-12-12_14h08.29.160,Surprise recog test,2023.1.3,59.93637155188793,
113,0,113,0,,,,,,,,,,,,,,,,,,,,,,,,,,,,,,,,,,,,606.1841678000055,,605.1470111000817,605.1470111000817,605.1470111000817,605.1470111000817,old_sceneOut_13.png,114,5.0,1.0386203000089154,,,,,,030,1,2024-12-12_14h08.29.160,Surprise recog test,2023.1.3,59.93637155188793,
114,0,114,0,,,,,,,,,,,,,,,,,,,,,,,,,,,,,,,,,,,,607.9980906000128,609.0079495999962,607.2040381000843,607.2040381000843,607.2040381000843,607.2040381000843,new_stationery_6.png,115,5.0,0.787906099925749,,,,,,030,1,2024-12-12_14h08.29.160,Surprise recog test,2023.1.3,59.93637155188793,
115,0,115,0,,,,,,,,,,,,,,,,,,,,,,,,,,,,,,,,,,,,609.6914848000742,610.7043064000318,609.0079495999962,609.0079495999962,609.0079495999962,609.0079495999962,old_sceneOut_36.png,116,5.0,0.6807220000773668,,,,,,030,1,2024-12-12_14h08.29.160,Surprise recog test,2023.1.3,59.93637155188793,
116,0,116,0,,,,,,,,,,,,,,,,,,,,,,,,,,,,,,,,,,,,611.8938216000097,612.9218341000378,610.7043064000318,610.7043064000318,610.7043064000318,610.7043064000318,old_sceneIn_40.png,117,5.0,1.1857176999328658,,,,,,030,1,2024-12-12_14h08.29.160,Surprise recog test,2023.1.3,59.93637155188793,
117,0,117,0,,,,,,,,,,,,,,,,,,,,,,,,,,,,,,,,,,,,613.6127963000908,614.6346409000689,612.9218341000378,612.9218341000378,612.9218341000378,612.9218341000378,new_sceneOut_16.png,118,5.0,0.6922768000513315,,,,,,030,1,2024-12-12_14h08.29.160,Surprise recog test,2023.1.3,59.93637155188793,
118,0,118,0,,,,,,,,,,,,,,,,,,,,,,,,,,,,,,,,,,,,615.389396600076,616.3950560000958,614.6346409000689,614.6346409000689,614.6346409000689,614.6346409000689,new_sceneOut_24.png,119,5.0,0.7547177999513224,,,,,,030,1,2024-12-12_14h08.29.160,Surprise recog test,2023.1.3,59.93637155188793,
119,0,119,0,,,,,,,,,,,,,,,,,,,,,,,,,,,,,,,,,,,,617.4368835000787,618.4457981000887,616.3950560000958,616.3950560000958,616.3950560000958,616.3950560000958,old_stationery_24.png,120,5.0,1.0376439000247046,,,,,,030,1,2024-12-12_14h08.29.160,Surprise recog test,2023.1.3,59.93637155188793,
120,0,120,0,,,,,,,,,,,,,,,,,,,,,,,,,,,,,,,,,,,,619.2241771999979,620.2392745000543,618.4457981000887,618.4457981000887,618.4457981000887,618.4457981000887,old_sceneOut_14.png,121,5.0,0.7724701999686658,,,,,,030,1,2024-12-12_14h08.29.160,Surprise recog test,2023.1.3,59.93637155188793,
121,0,121,0,,,,,,,,,,,,,,,,,,,,,,,,,,,,,,,,,,,,622.6356847001007,623.6658168000868,620.2392745000543,620.2392745000543,620.2392745000543,620.2392745000543,new_fruit_26.png,122,5.0,2.3940347000025213,,,,,,030,1,2024-12-12_14h08.29.160,Surprise recog test,2023.1.3,59.93637155188793,
122,0,122,0,,,,,,,,,,,,,,,,,,,,,,,,,,,,,,,,,,,,624.4720404000254,625.5026968000457,623.6658168000868,623.6658168000868,623.6658168000868,623.6658168000868,old_stationery_38.png,123,5.0,0.809953200048767,,,,,,030,1,2024-12-12_14h08.29.160,Surprise recog test,2023.1.3,59.93637155188793,
123,0,123,0,,,,,,,,,,,,,,,,,,,,,,,,,,,,,,,,,,,,627.5890293000266,628.6088795000687,625.5026968000457,625.5026968000457,625.5026968000457,625.5026968000457,old_stationery_21.png,124,5.0,2.088997000013478,,,,,,030,1,2024-12-12_14h08.29.160,Surprise recog test,2023.1.3,59.93637155188793,
124,0,124,0,,,,,,,,,,,,,,,,,,,,,,,,,,,,,,,,,,,,629.4011010000249,630.413904300076,628.6088795000687,628.6088795000687,628.6088795000687,628.6088795000687,old_sceneOut_21.png,125,5.0,0.789584800018929,,,,,,030,1,2024-12-12_14h08.29.160,Surprise recog test,2023.1.3,59.93637155188793,
125,0,125,0,,,,,,,,,,,,,,,,,,,,,,,,,,,,,,,,,,,,632.7500699000666,633.7716832000297,630.413904300076,630.413904300076,630.413904300076,630.413904300076,new_stationery_2.png,126,5.0,2.3315367000177503,,,,,,030,1,2024-12-12_14h08.29.160,Surprise recog test,2023.1.3,59.93637155188793,
126,0,126,0,,,,,,,,,,,,,,,,,,,,,,,,,,,,,,,,,,,,634.8178319000872,635.8426601000829,633.7716832000297,633.7716832000297,633.7716832000297,633.7716832000297,new_fruit_13.png,127,5.0,1.0481853999663144,,,,,,030,1,2024-12-12_14h08.29.160,Surprise recog test,2023.1.3,59.93637155188793,
127,0,127,0,,,,,,,,,,,,,,,,,,,,,,,,,,,,,,,,,,,,636.4766482000705,637.4969407001045,635.8426601000829,635.8426601000829,635.8426601000829,635.8426601000829,old_fruit_34.png,128,5.0,0.6365826000692323,,,,,,030,1,2024-12-12_14h08.29.160,Surprise recog test,2023.1.3,59.93637155188793,
128,0,128,0,,,,,,,,,,,,,,,,,,,,,,,,,,,,,,,,,,,,638.1857072000857,639.194265600061,637.4969407001045,637.4969407001045,637.4969407001045,637.4969407001045,new_sceneOut_34.png,129,5.0,0.6828264999203384,,,,,,030,1,2024-12-12_14h08.29.160,Surprise recog test,2023.1.3,59.93637155188793,
129,0,129,0,,,,,,,,,,,,,,,,,,,,,,,,,,,,,,,,,,,,641.3682969000656,642.3953323001042,639.194265600061,639.194265600061,639.194265600061,639.194265600061,new_sceneOut_48.png,130,5.0,2.170090900035575,,,,,,030,1,2024-12-12_14h08.29.160,Surprise recog test,2023.1.3,59.93637155188793,
130,0,130,0,,,,,,,,,,,,,,,,,,,,,,,,,,,,,,,,,,,,645.429261000012,646.4376591000473,642.3953323001042,642.3953323001042,642.3953323001042,642.3953323001042,old_stationery_30.png,131,1.0,3.0307832000544295,,,,,,030,1,2024-12-12_14h08.29.160,Surprise recog test,2023.1.3,59.93637155188793,
131,0,131,0,,,,,,,,,,,,,,,,,,,,,,,,,,,,,,,,,,,,647.8979641000042,648.9181914000073,646.4376591000473,646.4376591000473,646.4376591000473,646.4376591000473,old_sceneIn_15.png,132,5.0,1.4557204999728128,,,,,,030,1,2024-12-12_14h08.29.160,Surprise recog test,2023.1.3,59.93637155188793,
132,0,132,0,,,,,,,,,,,,,,,,,,,,,,,,,,,,,,,,,,,,649.8928966000676,650.9157412000932,648.9181914000073,648.9181914000073,648.9181914000073,648.9181914000073,old_sceneIn_45.png,133,5.0,0.9765737000852823,,,,,,030,1,2024-12-12_14h08.29.160,Surprise recog test,2023.1.3,59.93637155188793,
133,0,133,0,,,,,,,,,,,,,,,,,,,,,,,,,,,,,,,,,,,,652.2813927000389,653.3041453000624,650.9157412000932,650.9157412000932,650.9157412000932,650.9157412000932,old_fruit_13.png,134,5.0,1.3652049000374973,,,,,,030,1,2024-12-12_14h08.29.160,Surprise recog test,2023.1.3,59.93637155188793,
134,0,134,0,,,,,,,,,,,,,,,,,,,,,,,,,,,,,,,,,,,,654.878250000067,655.9078455000417,653.3041453000624,653.3041453000624,653.3041453000624,653.3041453000624,old_fruit_47.png,135,1.0,1.5746930999448523,,,,,,030,1,2024-12-12_14h08.29.160,Surprise recog test,2023.1.3,59.93637155188793,
135,0,135,0,,,,,,,,,,,,,,,,,,,,,,,,,,,,,,,,,,,,657.4821880999953,658.5088935000822,655.9078455000417,655.9078455000417,655.9078455000417,655.9078455000417,new_stationery_11.png,136,5.0,1.5765060000121593,,,,,,030,1,2024-12-12_14h08.29.160,Surprise recog test,2023.1.3,59.93637155188793,
136,0,136,0,,,,,,,,,,,,,,,,,,,,,,,,,,,,,,,,,,,,660.3988766000839,661.4312600000994,658.5088935000822,658.5088935000822,658.5088935000822,658.5088935000822,new_stationery_20.png,137,5.0,1.8907501999055967,,,,,,030,1,2024-12-12_14h08.29.160,Surprise recog test,2023.1.3,59.93637155188793,
137,0,137,0,,,,,,,,,,,,,,,,,,,,,,,,,,,,,,,,,,,,663.527555800043,664.5470574001083,661.4312600000994,661.4312600000994,661.4312600000994,661.4312600000994,old_stationery_4.png,138,1.0,2.0946980000007898,,,,,,030,1,2024-12-12_14h08.29.160,Surprise recog test,2023.1.3,59.93637155188793,
138,0,138,0,,,,,,,,,,,,,,,,,,,,,,,,,,,,,,,,,,,,666.3300432000542,667.3424555000383,664.5470574001083,664.5470574001083,664.5470574001083,664.5470574001083,old_sceneIn_36.png,139,5.0,1.7840324999997392,,,,,,030,1,2024-12-12_14h08.29.160,Surprise recog test,2023.1.3,59.93637155188793,
139,0,139,0,,,,,,,,,,,,,,,,,,,,,,,,,,,,,,,,,,,,672.2680952000665,673.274387500016,667.3424555000383,667.3424555000383,667.3424555000383,667.3424555000383,new_sceneIn_17.png,140,5.0,4.9253086999524385,,,,,,030,1,2024-12-12_14h08.29.160,Surprise recog test,2023.1.3,59.93637155188793,
140,0,140,0,,,,,,,,,,,,,,,,,,,,,,,,,,,,,,,,,,,,678.2717837000964,679.2943274000427,673.274387500016,673.274387500016,673.274387500016,673.274387500016,new_fruit_34.png,141,None,None,678.2717837000964,678.2717837000964,678.2717837000964,678.2717837000964,,030,1,2024-12-12_14h08.29.160,Surprise recog test,2023.1.3,59.93637155188793,
141,0,141,0,,,,,,,,,,,,,,,,,,,,,,,,,,,,,,,,,,,,681.325723899994,682.3450400000438,679.2943274000427,679.2943274000427,679.2943274000427,679.2943274000427,new_fruit_45.png,142,5.0,2.0274512000614777,,,,,,030,1,2024-12-12_14h08.29.160,Surprise recog test,2023.1.3,59.93637155188793,
142,0,142,0,,,,,,,,,,,,,,,,,,,,,,,,,,,,,,,,,,,,685.1488356000045,,682.3450400000438,682.3450400000438,682.3450400000438,682.3450400000438,new_sceneIn_28.png,143,5.0,2.8067037999862805,,,,,,030,1,2024-12-12_14h08.29.160,Surprise recog test,2023.1.3,59.93637155188793,
143,0,143,0,,,,,,,,,,,,,,,,,,,,,,,,,,,,,,,,,,,,688.7019818000263,,686.1835759000387,686.1835759000387,686.1835759000387,686.1835759000387,old_fruit_21.png,144,1.0,2.5208255000179633,,,,,,030,1,2024-12-12_14h08.29.160,Surprise recog test,2023.1.3,59.93637155188793,
144,0,144,0,,,,,,,,,,,,,,,,,,,,,,,,,,,,,,,,,,,,694.7289609001018,,689.7220812001033,689.7220812001033,689.7220812001033,689.7220812001033,new_stationery_35.png,145,None,None,694.6958845000481,,,,,030,1,2024-12-12_14h08.29.160,Surprise recog test,2023.1.3,59.93637155188793,
145,0,145,0,,,,,,,,,,,,,,,,,,,,,,,,,,,,,,,,,,,,699.0622251000023,700.0899706000928,695.7406402000925,695.7406402000925,695.7406402000925,695.7406402000925,old_sceneIn_32.png,146,5.0,3.3239357999991626,,,,,,030,1,2024-12-12_14h08.29.160,Surprise recog test,2023.1.3,59.93637155188793,
146,0,146,0,,,,,,,,,,,,,,,,,,,,,,,,,,,,,,,,,,,,705.084608300007,,700.0899706000928,700.0899706000928,700.0899706000928,700.0899706000928,old_sceneIn_5.png,147,None,None,705.0747194000287,,,,,030,1,2024-12-12_14h08.29.160,Surprise recog test,2023.1.3,59.93637155188793,
147,0,147,0,,,,,,,,,,,,,,,,,,,,,,,,,,,,,,,,,,,,708.8214015000267,709.8491619999986,706.1000309000956,706.1000309000956,706.1000309000956,706.1000309000956,new_stationery_5.png,148,5.0,2.7244506999850273,,,,,,030,1,2024-12-12_14h08.29.160,Surprise recog test,2023.1.3,59.93637155188793,
148,0,148,0,,,,,,,,,,,,,,,,,,,,,,,,,,,,,,,,,,,,714.839109600056,,709.8491619999986,709.8491619999986,709.8491619999986,709.8491619999986,new_sceneIn_1.png,149,None,None,714.8258491000161,,,,,030,1,2024-12-12_14h08.29.160,Surprise recog test,2023.1.3,59.93637155188793,
149,0,149,0,,,,,,,,,,,,,,,,,,,,,,,,,,,,,,,,,,,,718.6491616000421,719.6767813001061,715.8504216000438,715.8504216000438,715.8504216000438,715.8504216000438,old_fruit_17.png,150,5.0,2.7994614000199363,,,,,,030,1,2024-12-12_14h08.29.160,Surprise recog test,2023.1.3,59.93637155188793,
150,0,150,0,,,,,,,,,,,,,,,,,,,,,,,,,,,,,,,,,,,,720.5769685000414,,719.6767813001061,719.6767813001061,719.6767813001061,719.6767813001061,old_sceneIn_25.png,151,5.0,0.9006633999524638,,,,,,030,1,2024-12-12_14h08.29.160,Surprise recog test,2023.1.3,59.93637155188793,
151,0,151,0,,,,,,,,,,,,,,,,,,,,,,,,,,,,,,,,,,,,722.7411865000613,723.7645601000404,721.6154031000333,721.6154031000333,721.6154031000333,721.6154031000333,new_stationery_50.png,152,5.0,1.1307011999888346,,,,,,030,1,2024-12-12_14h08.29.160,Surprise recog test,2023.1.3,59.93637155188793,
152,0,152,0,,,,,,,,,,,,,,,,,,,,,,,,,,,,,,,,,,,,725.5050189000322,726.5338305000914,723.7645601000404,723.7645601000404,723.7645601000404,723.7645601000404,old_fruit_23.png,153,1.0,1.7412746000336483,,,,,,030,1,2024-12-12_14h08.29.160,Surprise recog test,2023.1.3,59.93637155188793,
153,0,153,0,,,,,,,,,,,,,,,,,,,,,,,,,,,,,,,,,,,,727.722476700088,728.7492219000123,726.5338305000914,726.5338305000914,726.5338305000914,726.5338305000914,new_sceneIn_4.png,154,5.0,1.1895386000396684,,,,,,030,1,2024-12-12_14h08.29.160,Surprise recog test,2023.1.3,59.93637155188793,
154,0,154,0,,,,,,,,,,,,,,,,,,,,,,,,,,,,,,,,,,,,729.4203131000977,,728.7492219000123,728.7492219000123,728.7492219000123,728.7492219000123,new_sceneOut_19.png,155,5.0,0.6735926000401378,,,,,,030,1,2024-12-12_14h08.29.160,Surprise recog test,2023.1.3,59.93637155188793,
155,0,155,0,,,,,,,,,,,,,,,,,,,,,,,,,,,,,,,,,,,,731.2528172000311,,730.442151300027,730.442151300027,730.442151300027,730.442151300027,old_sceneIn_7.png,156,5.0,0.8084761999780312,,,,,,030,1,2024-12-12_14h08.29.160,Surprise recog test,2023.1.3,59.93637155188793,
156,0,156,0,,,,,,,,,,,,,,,,,,,,,,,,,,,,,,,,,,,,735.7485658000223,736.7800871999934,732.2875811000122,732.2875811000122,732.2875811000122,732.2875811000122,new_sceneIn_43.png,157,5.0,3.463533600093797,,,,,,030,1,2024-12-12_14h08.29.160,Surprise recog test,2023.1.3,59.93637155188793,
157,0,157,0,,,,,,,,,,,,,,,,,,,,,,,,,,,,,,,,,,,,737.3888115000445,738.3972350000404,736.7800871999934,736.7800871999934,736.7800871999934,736.7800871999934,new_stationery_36.png,158,5.0,0.6070023999782279,,,,,,030,1,2024-12-12_14h08.29.160,Surprise recog test,2023.1.3,59.93637155188793,
158,0,158,0,,,,,,,,,,,,,,,,,,,,,,,,,,,,,,,,,,,,739.2932151000714,,738.3972350000404,738.3972350000404,738.3972350000404,738.3972350000404,old_sceneIn_6.png,159,5.0,0.891844000085257,,,,,,030,1,2024-12-12_14h08.29.160,Surprise recog test,2023.1.3,59.93637155188793,
159,0,159,0,,,,,,,,,,,,,,,,,,,,,,,,,,,,,,,,,,,,742.2474525000434,743.2786299000727,740.3258191000205,740.3258191000205,740.3258191000205,740.3258191000205,old_stationery_10.png,160,1.0,1.9214929000008851,,,,,,030,1,2024-12-12_14h08.29.160,Surprise recog test,2023.1.3,59.93637155188793,
160,0,160,0,,,,,,,,,,,,,,,,,,,,,,,,,,,,,,,,,,,,744.7284276999999,745.7334912000224,743.2786299000727,743.2786299000727,743.2786299000727,743.2786299000727,old_sceneOut_50.png,161,5.0,1.4489011000841856,,,,,,030,1,2024-12-12_14h08.29.160,Surprise recog test,2023.1.3,59.93637155188793,
161,0,161,0,,,,,,,,,,,,,,,,,,,,,,,,,,,,,,,,,,,,746.8800497000339,747.8861525000539,745.7334912000224,745.7334912000224,745.7334912000224,745.7334912000224,new_sceneOut_10.png,162,5.0,1.1373163999523968,,,,,,030,1,2024-12-12_14h08.29.160,Surprise recog test,2023.1.3,59.93637155188793,
162,0,162,0,,,,,,,,,,,,,,,,,,,,,,,,,,,,,,,,,,,,750.9500630000839,751.9549866000889,747.8861525000539,747.8861525000539,747.8861525000539,747.8861525000539,old_stationery_9.png,163,1.0,3.0543667000019923,,,,,,030,1,2024-12-12_14h08.29.160,Surprise recog test,2023.1.3,59.93637155188793,
163,0,163,0,,,,,,,,,,,,,,,,,,,,,,,,,,,,,,,,,,,,753.4857354999986,754.4919105001027,751.9549866000889,751.9549866000889,751.9549866000889,751.9549866000889,old_fruit_2.png,164,1.0,1.520235300064087,,,,,,030,1,2024-12-12_14h08.29.160,Surprise recog test,2023.1.3,59.93637155188793,
164,0,164,0,,,,,,,,,,,,,,,,,,,,,,,,,,,,,,,,,,,,758.3394430000335,759.3444914000574,754.4919105001027,754.4919105001027,754.4919105001027,754.4919105001027,new_sceneOut_9.png,165,5.0,3.8390322000486776,,,,,,030,1,2024-12-12_14h08.29.160,Surprise recog test,2023.1.3,59.93637155188793,
165,0,165,0,,,,,,,,,,,,,,,,,,,,,,,,,,,,,,,,,,,,762.2093057000311,763.2144858000102,759.3444914000574,759.3444914000574,759.3444914000574,759.3444914000574,new_sceneOut_39.png,166,5.0,2.8549117000075057,,,,,,030,1,2024-12-12_14h08.29.160,Surprise recog test,2023.1.3,59.93637155188793,
166,0,166,0,,,,,,,,,,,,,,,,,,,,,,,,,,,,,,,,,,,,764.2610895000398,765.2658092000056,763.2144858000102,763.2144858000102,763.2144858000102,763.2144858000102,new_sceneOut_7.png,167,5.0,1.0367329000728205,,,,,,030,1,2024-12-12_14h08.29.160,Surprise recog test,2023.1.3,59.93637155188793,
167,0,167,0,,,,,,,,,,,,,,,,,,,,,,,,,,,,,,,,,,,,767.2636109000305,768.2684291000478,765.2658092000056,765.2658092000056,765.2658092000056,765.2658092000056,new_sceneOut_21.png,168,5.0,1.9879088000161573,,,,,,030,1,2024-12-12_14h08.29.160,Surprise recog test,2023.1.3,59.93637155188793,
168,0,168,0,,,,,,,,,,,,,,,,,,,,,,,,,,,,,,,,,,,,769.8158048000187,770.8206682000309,768.2684291000478,768.2684291000478,768.2684291000478,768.2684291000478,new_sceneIn_18.png,169,5.0,1.537271699984558,,,,,,030,1,2024-12-12_14h08.29.160,Surprise recog test,2023.1.3,59.93637155188793,
169,0,169,0,,,,,,,,,,,,,,,,,,,,,,,,,,,,,,,,,,,,771.6171360000735,772.6221999000991,770.8206682000309,770.8206682000309,770.8206682000309,770.8206682000309,new_sceneIn_46.png,170,5.0,0.7865303000435233,,,,,,030,1,2024-12-12_14h08.29.160,Surprise recog test,2023.1.3,59.93637155188793,
170,0,170,0,,,,,,,,,,,,,,,,,,,,,,,,,,,,,,,,,,,,775.0533830000786,776.0585064000916,772.6221999000991,772.6221999000991,772.6221999000991,772.6221999000991,old_sceneOut_24.png,171,5.0,2.4215294999303296,,,,,,030,1,2024-12-12_14h08.29.160,Surprise recog test,2023.1.3,59.93637155188793,
171,0,171,0,,,,,,,,,,,,,,,,,,,,,,,,,,,,,,,,,,,,777.9890815000981,778.9939105000813,776.0585064000916,776.0585064000916,776.0585064000916,776.0585064000916,new_sceneOut_42.png,172,5.0,1.920716100023128,,,,,,030,1,2024-12-12_14h08.29.160,Surprise recog test,2023.1.3,59.93637155188793,
172,0,172,0,,,,,,,,,,,,,,,,,,,,,,,,,,,,,,,,,,,,780.0241291000275,781.0295538000064,778.9939105000813,778.9939105000813,778.9939105000813,778.9939105000813,old_sceneIn_10.png,173,5.0,1.0204785000532866,,,,,,030,1,2024-12-12_14h08.29.160,Surprise recog test,2023.1.3,59.93637155188793,
173,0,173,0,,,,,,,,,,,,,,,,,,,,,,,,,,,,,,,,,,,,781.9590303000296,782.9635473000817,781.0295538000064,781.0295538000064,781.0295538000064,781.0295538000064,new_sceneOut_37.png,174,5.0,0.9199937999946997,,,,,,030,1,2024-12-12_14h08.29.160,Surprise recog test,2023.1.3,59.93637155188793,
174,0,174,0,,,,,,,,,,,,,,,,,,,,,,,,,,,,,,,,,,,,784.9281640000409,785.9333020000486,782.9635473000817,782.9635473000817,782.9635473000817,782.9635473000817,old_sceneIn_18.png,175,5.0,1.954301999998279,,,,,,030,1,2024-12-12_14h08.29.160,Surprise recog test,2023.1.3,59.93637155188793,
175,0,175,0,,,,,,,,,,,,,,,,,,,,,,,,,,,,,,,,,,,,789.2317130001029,790.2392407000298,785.9333020000486,785.9333020000486,785.9333020000486,785.9333020000486,new_fruit_30.png,176,5.0,3.2933380999602377,,,,,,030,1,2024-12-12_14h08.29.160,Surprise recog test,2023.1.3,59.93637155188793,
176,0,176,0,,,,,,,,,,,,,,,,,,,,,,,,,,,,,,,,,,,,792.9470560000045,793.9640779000474,790.2392407000298,790.2392407000298,790.2392407000298,790.2392407000298,old_sceneIn_30.png,177,5.0,2.7045438999775797,,,,,,030,1,2024-12-12_14h08.29.160,Surprise recog test,2023.1.3,59.93637155188793,
177,0,177,0,,,,,,,,,,,,,,,,,,,,,,,,,,,,,,,,,,,,795.2146487000864,796.2406329000369,793.9640779000474,793.9640779000474,793.9640779000474,793.9640779000474,new_sceneIn_22.png,178,5.0,1.2508880000095814,,,,,,030,1,2024-12-12_14h08.29.160,Surprise recog test,2023.1.3,59.93637155188793,
178,0,178,0,,,,,,,,,,,,,,,,,,,,,,,,,,,,,,,,,,,,798.9616888000164,799.993193600094,796.2406329000369,796.2406329000369,796.2406329000369,796.2406329000369,old_sceneIn_21.png,179,5.0,2.720758799929172,,,,,,030,1,2024-12-12_14h08.29.160,Surprise recog test,2023.1.3,59.93637155188793,
179,0,179,0,,,,,,,,,,,,,,,,,,,,,,,,,,,,,,,,,,,,801.5584444000851,802.5726962001063,799.993193600094,799.993193600094,799.993193600094,799.993193600094,old_sceneIn_23.png,180,5.0,1.5667050998890772,,,,,,030,1,2024-12-12_14h08.29.160,Surprise recog test,2023.1.3,59.93637155188793,
180,0,180,0,,,,,,,,,,,,,,,,,,,,,,,,,,,,,,,,,,,,807.0828224000288,,802.5726962001063,802.5726962001063,802.5726962001063,802.5726962001063,old_sceneOut_12.png,181,5.0,4.511507899966091,,,,,,030,1,2024-12-12_14h08.29.160,Surprise recog test,2023.1.3,59.93637155188793,
181,0,181,0,,,,,,,,,,,,,,,,,,,,,,,,,,,,,,,,,,,,809.4830764000071,810.4903690000065,808.1182918000268,808.1182918000268,808.1182918000268,808.1182918000268,new_stationery_28.png,182,5.0,1.3662162000546232,,,,,,030,1,2024-12-12_14h08.29.160,Surprise recog test,2023.1.3,59.93637155188793,
182,0,182,0,,,,,,,,,,,,,,,,,,,,,,,,,,,,,,,,,,,,813.2917709000176,814.307982700062,810.4903690000065,810.4903690000065,810.4903690000065,810.4903690000065,old_stationery_17.png,183,5.0,2.797353799920529,,,,,,030,1,2024-12-12_14h08.29.160,Surprise recog test,2023.1.3,59.93637155188793,
183,0,183,0,,,,,,,,,,,,,,,,,,,,,,,,,,,,,,,,,,,,815.3405456000473,,814.307982700062,814.307982700062,814.307982700062,814.307982700062,old_sceneIn_14.png,184,5.0,1.028582299943082,,,,,,030,1,2024-12-12_14h08.29.160,Surprise recog test,2023.1.3,59.93637155188793,
184,0,184,0,,,,,,,,,,,,,,,,,,,,,,,,,,,,,,,,,,,,817.0380199000938,818.0572717000032,816.3731496999972,816.3731496999972,816.3731496999972,816.3731496999972,new_sceneOut_6.png,185,5.0,0.6668816999299452,,,,,,030,1,2024-12-12_14h08.29.160,Surprise recog test,2023.1.3,59.93637155188793,
185,0,185,0,,,,,,,,,,,,,,,,,,,,,,,,,,,,,,,,,,,,821.4548476000782,822.4777857000008,818.0572717000032,818.0572717000032,818.0572717000032,818.0572717000032,new_fruit_7.png,186,1.0,3.398605900001712,,,,,,030,1,2024-12-12_14h08.29.160,Surprise recog test,2023.1.3,59.93637155188793,
186,0,186,0,,,,,,,,,,,,,,,,,,,,,,,,,,,,,,,,,,,,823.8206470001023,824.8503066000994,822.4777857000008,822.4777857000008,822.4777857000008,822.4777857000008,old_sceneOut_5.png,187,5.0,1.3445780000183731,,,,,,030,1,2024-12-12_14h08.29.160,Surprise recog test,2023.1.3,59.93637155188793,
187,0,187,0,,,,,,,,,,,,,,,,,,,,,,,,,,,,,,,,,,,,826.8435480000917,827.8655659001088,824.8503066000994,824.8503066000994,824.8503066000994,824.8503066000994,new_stationery_7.png,188,5.0,1.9977429999271408,,,,,,030,1,2024-12-12_14h08.29.160,Surprise recog test,2023.1.3,59.93637155188793,
188,0,188,0,,,,,,,,,,,,,,,,,,,,,,,,,,,,,,,,,,,,829.1149389001075,830.1357587000821,827.8655659001088,827.8655659001088,827.8655659001088,827.8655659001088,old_stationery_28.png,189,5.0,1.2452417999738827,,,,,,030,1,2024-12-12_14h08.29.160,Surprise recog test,2023.1.3,59.93637155188793,
189,0,189,0,,,,,,,,,,,,,,,,,,,,,,,,,,,,,,,,,,,,831.6671731000533,832.6880448000738,830.1357587000821,830.1357587000821,830.1357587000821,830.1357587000821,old_sceneOut_11.png,190,5.0,1.5279668000293896,,,,,,030,1,2024-12-12_14h08.29.160,Surprise recog test,2023.1.3,59.93637155188793,
190,0,190,0,,,,,,,,,,,,,,,,,,,,,,,,,,,,,,,,,,,,834.4641435000813,835.4790006000549,832.6880448000738,832.6880448000738,832.6880448000738,832.6880448000738,old_stationery_44.png,191,5.0,1.778434200095944,,,,,,030,1,2024-12-12_14h08.29.160,Surprise recog test,2023.1.3,59.93637155188793,
191,0,191,0,,,,,,,,,,,,,,,,,,,,,,,,,,,,,,,,,,,,838.357247200096,839.375437800074,835.4790006000549,835.4790006000549,835.4790006000549,835.4790006000549,old_sceneOut_49.png,192,5.0,2.875340100028552,,,,,,030,1,2024-12-12_14h08.29.160,Surprise recog test,2023.1.3,59.93637155188793,
192,0,192,0,,,,,,,,,,,,,,,,,,,,,,,,,,,,,,,,,,,,842.3844596000854,843.4176426000195,839.375437800074,839.375437800074,839.375437800074,839.375437800074,old_stationery_31.png,193,1.0,3.011340399971232,,,,,,030,1,2024-12-12_14h08.29.160,Surprise recog test,2023.1.3,59.93637155188793,
193,0,193,0,,,,,,,,,,,,,,,,,,,,,,,,,,,,,,,,,,,,845.8466604000423,846.8666157000698,843.4176426000195,843.4176426000195,843.4176426000195,843.4176426000195,old_fruit_41.png,194,5.0,2.4348113000160083,,,,,,030,1,2024-12-12_14h08.29.160,Surprise recog test,2023.1.3,59.93637155188793,
194,0,194,0,,,,,,,,,,,,,,,,,,,,,,,,,,,,,,,,,,,,848.3642430000473,849.3846098000649,846.8666157000698,846.8666157000698,846.8666157000698,846.8666157000698,new_fruit_31.png,195,5.0,1.493873400031589,,,,,,030,1,2024-12-12_14h08.29.160,Surprise recog test,2023.1.3,59.93637155188793,
195,0,195,0,,,,,,,,,,,,,,,,,,,,,,,,,,,,,,,,,,,,850.9565321000991,851.9861550000496,849.3846098000649,849.3846098000649,849.3846098000649,849.3846098000649,old_fruit_48.png,196,5.0,1.5721837000455707,,,,,,030,1,2024-12-12_14h08.29.160,Surprise recog test,2023.1.3,59.93637155188793,
196,0,196,0,,,,,,,,,,,,,,,,,,,,,,,,,,,,,,,,,,,,853.2100839000195,854.2326802000171,851.9861550000496,851.9861550000496,851.9861550000496,851.9861550000496,new_sceneIn_50.png,197,5.0,1.2243957999162376,,,,,,030,1,2024-12-12_14h08.29.160,Surprise recog test,2023.1.3,59.93637155188793,
197,0,197,0,,,,,,,,,,,,,,,,,,,,,,,,,,,,,,,,,,,,855.8204869000474,856.8405550000025,854.2326802000171,854.2326802000171,854.2326802000171,854.2326802000171,new_fruit_9.png,198,5.0,1.5788354999385774,,,,,,030,1,2024-12-12_14h08.29.160,Surprise recog test,2023.1.3,59.93637155188793,
198,0,198,0,,,,,,,,,,,,,,,,,,,,,,,,,,,,,,,,,,,,857.6388734000502,858.6594362000469,856.8405550000025,856.8405550000025,856.8405550000025,856.8405550000025,old_stationery_11.png,199,5.0,0.8003329000202939,,,,,,030,1,2024-12-12_14h08.29.160,Surprise recog test,2023.1.3,59.93637155188793,
199,0,199,0,,,,,,,,,,,,,,,,,,,,,,,,,,,,,,,,,,,,859.4978358000517,860.5264037000015,858.6594362000469,858.6594362000469,858.6594362000469,858.6594362000469,new_fruit_46.png,200,5.0,0.8400488999905065,,,,,,030,1,2024-12-12_14h08.29.160,Surprise recog test,2023.1.3,59.93637155188793,
200,0,200,0,,,,,,,,,,,,,,,,,,,,,,,,,,,,,,,,,,,,861.1903609000146,862.2035326000769,860.5264037000015,860.5264037000015,860.5264037000015,860.5264037000015,old_sceneIn_27.png,201,5.0,0.666931200074032,,,,,,030,1,2024-12-12_14h08.29.160,Surprise recog test,2023.1.3,59.93637155188793,
201,0,201,0,,,,,,,,,,,,,,,,,,,,,,,,,,,,,,,,,,,,863.5602629000787,864.5819106000708,862.2035326000769,862.2035326000769,862.2035326000769,862.2035326000769,new_sceneOut_2.png,202,5.0,1.3517396000679582,,,,,,030,1,2024-12-12_14h08.29.160,Surprise recog test,2023.1.3,59.93637155188793,
202,0,202,0,,,,,,,,,,,,,,,,,,,,,,,,,,,,,,,,,,,,867.063118500053,868.0760348000331,864.5819106000708,864.5819106000708,864.5819106000708,864.5819106000708,old_sceneOut_39.png,203,5.0,2.4824461999814957,,,,,,030,1,2024-12-12_14h08.29.160,Surprise recog test,2023.1.3,59.93637155188793,
203,0,203,0,,,,,,,,,,,,,,,,,,,,,,,,,,,,,,,,,,,,871.4821958000539,872.5034321000567,868.0760348000331,868.0760348000331,868.0760348000331,868.0760348000331,new_sceneIn_25.png,204,5.0,3.40553380001802,,,,,,030,1,2024-12-12_14h08.29.160,Surprise recog test,2023.1.3,59.93637155188793,
204,0,204,0,,,,,,,,,,,,,,,,,,,,,,,,,,,,,,,,,,,,874.9131317000138,875.939543500077,872.5034321000567,872.5034321000567,872.5034321000567,872.5034321000567,old_sceneOut_16.png,205,5.0,2.409950500004925,,,,,,030,1,2024-12-12_14h08.29.160,Surprise recog test,2023.1.3,59.93637155188793,
205,0,205,0,,,,,,,,,,,,,,,,,,,,,,,,,,,,,,,,,,,,879.1597162000835,,875.939543500077,875.939543500077,875.939543500077,875.939543500077,old_stationery_29.png,206,1.0,3.222708799992688,,,,,,030,1,2024-12-12_14h08.29.160,Surprise recog test,2023.1.3,59.93637155188793,
206,0,206,0,,,,,,,,,,,,,,,,,,,,,,,,,,,,,,,,,,,,881.6069475000259,882.6278527000686,880.1916820000624,880.1916820000624,880.1916820000624,880.1916820000624,old_sceneOut_32.png,207,5.0,1.416962799965404,,,,,,030,1,2024-12-12_14h08.29.160,Surprise recog test,2023.1.3,59.93637155188793,
207,0,207,0,,,,,,,,,,,,,,,,,,,,,,,,,,,,,,,,,,,,884.0640264000976,,882.6278527000686,882.6278527000686,882.6278527000686,882.6278527000686,new_sceneOut_1.png,208,5.0,1.4380623999750242,,,,,,030,1,2024-12-12_14h08.29.160,Surprise recog test,2023.1.3,59.93637155188793,
208,0,208,0,,,,,,,,,,,,,,,,,,,,,,,,,,,,,,,,,,,,885.7619655000744,886.7703258000547,885.0850947001018,885.0850947001018,885.0850947001018,885.0850947001018,old_sceneOut_30.png,209,5.0,0.6678058999823406,,,,,,030,1,2024-12-12_14h08.29.160,Surprise recog test,2023.1.3,59.93637155188793,
209,0,209,0,,,,,,,,,,,,,,,,,,,,,,,,,,,,,,,,,,,,887.6648764000274,888.684181699995,886.7703258000547,886.7703258000547,886.7703258000547,886.7703258000547,new_fruit_1.png,210,5.0,0.8895509999711066,,,,,,030,1,2024-12-12_14h08.29.160,Surprise recog test,2023.1.3,59.93637155188793,
210,0,210,0,,,,,,,,,,,,,,,,,,,,,,,,,,,,,,,,,,,,889.6890043000458,890.7197034000419,888.684181699995,888.684181699995,888.684181699995,888.684181699995,old_stationery_5.png,211,5.0,1.0066130000632256,,,,,,030,1,2024-12-12_14h08.29.160,Surprise recog test,2023.1.3,59.93637155188793,
211,0,211,0,,,,,,,,,,,,,,,,,,,,,,,,,,,,,,,,,,,,892.2129727000138,893.2371357000666,890.7197034000419,890.7197034000419,890.7197034000419,890.7197034000419,old_stationery_2.png,212,5.0,1.4963858999544755,,,,,,030,1,2024-12-12_14h08.29.160,Surprise recog test,2023.1.3,59.93637155188793,
212,0,212,0,,,,,,,,,,,,,,,,,,,,,,,,,,,,,,,,,,,,894.2332638000371,895.2556541000959,893.2371357000666,893.2371357000666,893.2371357000666,893.2371357000666,new_fruit_6.png,213,5.0,0.9974752999842167,,,,,,030,1,2024-12-12_14h08.29.160,Surprise recog test,2023.1.3,59.93637155188793,
213,0,213,0,,,,,,,,,,,,,,,,,,,,,,,,,,,,,,,,,,,,896.2973218000261,897.3234134000959,895.2556541000959,895.2556541000959,895.2556541000959,895.2556541000959,old_fruit_6.png,214,5.0,1.0436216000234708,,,,,,030,1,2024-12-12_14h08.29.160,Surprise recog test,2023.1.3,59.93637155188793,
214,0,214,0,,,,,,,,,,,,,,,,,,,,,,,,,,,,,,,,,,,,898.1890267000999,899.2123647000408,897.3234134000959,897.3234134000959,897.3234134000959,897.3234134000959,new_stationery_47.png,215,5.0,0.8645696999737993,,,,,,030,1,2024-12-12_14h08.29.160,Surprise recog test,2023.1.3,59.93637155188793,
215,0,215,0,,,,,,,,,,,,,,,,,,,,,,,,,,,,,,,,,,,,900.0859228000045,901.1154066000599,899.2123647000408,899.2123647000408,899.2123647000408,899.2123647000408,old_sceneIn_20.png,216,5.0,0.8764359999913722,,,,,,030,1,2024-12-12_14h08.29.160,Surprise recog test,2023.1.3,59.93637155188793,
216,0,216,0,,,,,,,,,,,,,,,,,,,,,,,,,,,,,,,,,,,,902.1286002000561,,901.1154066000599,901.1154066000599,901.1154066000599,901.1154066000599,old_sceneOut_20.png,217,5.0,1.0186440999386832,,,,,,030,1,2024-12-12_14h08.29.160,Surprise recog test,2023.1.3,59.93637155188793,
217,0,217,0,,,,,,,,,,,,,,,,,,,,,,,,,,,,,,,,,,,,903.8924706000835,904.9034076000098,903.149635000038,903.149635000038,903.149635000038,903.149635000038,new_sceneOut_15.png,218,5.0,0.7388058999786153,,,,,,030,1,2024-12-12_14h08.29.160,Surprise recog test,2023.1.3,59.93637155188793,
218,0,218,0,,,,,,,,,,,,,,,,,,,,,,,,,,,,,,,,,,,,905.8011050000787,906.8203621000284,904.9034076000098,904.9034076000098,904.9034076000098,904.9034076000098,old_sceneIn_50.png,219,5.0,0.89428750006482,,,,,,030,1,2024-12-12_14h08.29.160,Surprise recog test,2023.1.3,59.93637155188793,
219,0,219,0,,,,,,,,,,,,,,,,,,,,,,,,,,,,,,,,,,,,907.8644732000539,908.8850505000446,906.8203621000284,906.8203621000284,906.8203621000284,906.8203621000284,new_fruit_20.png,220,5.0,1.0389512000838295,,,,,,030,1,2024-12-12_14h08.29.160,Surprise recog test,2023.1.3,59.93637155188793,
220,0,220,0,,,,,,,,,,,,,,,,,,,,,,,,,,,,,,,,,,,,909.8687338000163,,908.8850505000446,908.8850505000446,908.8850505000446,908.8850505000446,old_fruit_35.png,221,5.0,0.9855019999668002,,,,,,030,1,2024-12-12_14h08.29.160,Surprise recog test,2023.1.3,59.93637155188793,
221,0,221,0,,,,,,,,,,,,,,,,,,,,,,,,,,,,,,,,,,,,911.6473747000564,912.6643739000428,910.9007612999994,910.9007612999994,910.9007612999994,910.9007612999994,old_fruit_1.png,222,5.0,0.7493521000724286,,,,,,030,1,2024-12-12_14h08.29.160,Surprise recog test,2023.1.3,59.93637155188793,
222,0,222,0,,,,,,,,,,,,,,,,,,,,,,,,,,,,,,,,,,,,913.7561043000314,,912.6643739000428,912.6643739000428,912.6643739000428,912.6643739000428,old_sceneOut_4.png,223,5.0,1.0904362999135628,,,,,,030,1,2024-12-12_14h08.29.160,Surprise recog test,2023.1.3,59.93637155188793,
223,0,223,0,,,,,,,,,,,,,,,,,,,,,,,,,,,,,,,,,,,,916.4041882000165,917.427584500052,914.7876684000948,914.7876684000948,914.7876684000948,914.7876684000948,old_stationery_49.png,224,1.0,1.6164103000191972,,,,,,030,1,2024-12-12_14h08.29.160,Surprise recog test,2023.1.3,59.93637155188793,
224,0,224,0,,,,,,,,,,,,,,,,,,,,,,,,,,,,,,,,,,,,918.7561499000294,919.7644955000142,917.427584500052,917.427584500052,917.427584500052,917.427584500052,new_sceneIn_34.png,225,5.0,1.325554299983196,,,,,,030,1,2024-12-12_14h08.29.160,Surprise recog test,2023.1.3,59.93637155188793,
225,0,225,0,,,,,,,,,,,,,,,,,,,,,,,,,,,,,,,,,,,,920.3668049999978,921.3928798000561,919.7644955000142,919.7644955000142,919.7644955000142,919.7644955000142,new_sceneOut_38.png,226,5.0,0.5984239999670535,,,,,,030,1,2024-12-12_14h08.29.160,Surprise recog test,2023.1.3,59.93637155188793,
226,0,226,0,,,,,,,,,,,,,,,,,,,,,,,,,,,,,,,,,,,,922.9176342000719,923.9319729000563,921.3928798000561,921.3928798000561,921.3928798000561,921.3928798000561,new_fruit_17.png,227,5.0,1.5205441999714822,,,,,,030,1,2024-12-12_14h08.29.160,Surprise recog test,2023.1.3,59.93637155188793,
227,0,227,0,,,,,,,,,,,,,,,,,,,,,,,,,,,,,,,,,,,,925.083596700104,926.1151613000548,923.9319729000563,923.9319729000563,923.9319729000563,923.9319729000563,new_sceneIn_15.png,228,5.0,1.1465832999674603,,,,,,030,1,2024-12-12_14h08.29.160,Surprise recog test,2023.1.3,59.93637155188793,
228,0,228,0,,,,,,,,,,,,,,,,,,,,,,,,,,,,,,,,,,,,928.0658816000214,,926.1151613000548,926.1151613000548,926.1151613000548,926.1151613000548,old_stationery_46.png,229,1.0,1.9533348999684677,,,,,,030,1,2024-12-12_14h08.29.160,Surprise recog test,2023.1.3,59.93637155188793,
229,0,229,0,,,,,,,,,,,,,,,,,,,,,,,,,,,,,,,,,,,,930.418671600055,,929.0981039000908,929.0981039000908,929.0981039000908,929.0981039000908,new_sceneIn_32.png,230,5.0,1.3213159999577329,,,,,,030,1,2024-12-12_14h08.29.160,Surprise recog test,2023.1.3,59.93637155188793,
230,0,230,0,,,,,,,,,,,,,,,,,,,,,,,,,,,,,,,,,,,,932.2455074000172,933.2727714000503,931.4507226001006,931.4507226001006,931.4507226001006,931.4507226001006,new_sceneOut_11.png,231,5.0,0.7942362999310717,,,,,,030,1,2024-12-12_14h08.29.160,Surprise recog test,2023.1.3,59.93637155188793,
231,0,231,0,,,,,,,,,,,,,,,,,,,,,,,,,,,,,,,,,,,,934.3275358000537,935.3567499000346,933.2727714000503,933.2727714000503,933.2727714000503,933.2727714000503,new_sceneIn_23.png,232,5.0,1.0562358000315726,,,,,,030,1,2024-12-12_14h08.29.160,Surprise recog test,2023.1.3,59.93637155188793,
232,0,232,0,,,,,,,,,,,,,,,,,,,,,,,,,,,,,,,,,,,,936.2341898001032,937.2581796000013,935.3567499000346,935.3567499000346,935.3567499000346,935.3567499000346,old_fruit_46.png,233,5.0,0.8802067999495193,,,,,,030,1,2024-12-12_14h08.29.160,Surprise recog test,2023.1.3,59.93637155188793,
233,0,233,0,,,,,,,,,,,,,,,,,,,,,,,,,,,,,,,,,,,,938.0988031000597,939.1258181000594,937.2581796000013,937.2581796000013,937.2581796000013,937.2581796000013,new_stationery_16.png,234,5.0,0.842157099978067,,,,,,030,1,2024-12-12_14h08.29.160,Surprise recog test,2023.1.3,59.93637155188793,
234,0,234,0,,,,,,,,,,,,,,,,,,,,,,,,,,,,,,,,,,,,939.8812548000133,940.9153594000963,939.1258181000594,939.1258181000594,939.1258181000594,939.1258181000594,new_fruit_16.png,235,5.0,0.7578883999958634,,,,,,030,1,2024-12-12_14h08.29.160,Surprise recog test,2023.1.3,59.93637155188793,
235,0,235,0,,,,,,,,,,,,,,,,,,,,,,,,,,,,,,,,,,,,942.3521940000355,943.3716054999968,940.9153594000963,940.9153594000963,940.9153594000963,940.9153594000963,old_sceneOut_22.png,236,5.0,1.4400793000822887,,,,,,030,1,2024-12-12_14h08.29.160,Surprise recog test,2023.1.3,59.93637155188793,
236,0,236,0,,,,,,,,,,,,,,,,,,,,,,,,,,,,,,,,,,,,946.316111400025,,943.3716054999968,943.3716054999968,943.3716054999968,943.3716054999968,old_fruit_43.png,237,1.0,2.9455454000271857,,,,,,030,1,2024-12-12_14h08.29.160,Surprise recog test,2023.1.3,59.93637155188793,
237,0,237,0,,,,,,,,,,,,,,,,,,,,,,,,,,,,,,,,,,,,948.6878434000537,949.7059507000959,947.3458938000258,947.3458938000258,947.3458938000258,947.3458938000258,old_sceneOut_3.png,238,5.0,1.3403286000248045,,,,,,030,1,2024-12-12_14h08.29.160,Surprise recog test,2023.1.3,59.93637155188793,
238,0,238,0,,,,,,,,,,,,,,,,,,,,,,,,,,,,,,,,,,,,950.7203843001043,,949.7059507000959,949.7059507000959,949.7059507000959,949.7059507000959,new_fruit_5.png,239,5.0,1.0097632999531925,,,,,,030,1,2024-12-12_14h08.29.160,Surprise recog test,2023.1.3,59.93637155188793,
239,0,239,0,,,,,,,,,,,,,,,,,,,,,,,,,,,,,,,,,,,,952.9351509000408,953.9536560000852,951.7483629001072,951.7483629001072,951.7483629001072,951.7483629001072,new_fruit_36.png,240,5.0,1.1856912999646738,,,,,,030,1,2024-12-12_14h08.29.160,Surprise recog test,2023.1.3,59.93637155188793,
240,0,240,0,,,,,,,,,,,,,,,,,,,,,,,,,,,,,,,,,,,,955.5033130000811,956.5081942999968,953.9536560000852,953.9536560000852,953.9536560000852,953.9536560000852,old_stationery_23.png,241,5.0,1.5517735000466928,,,,,,030,1,2024-12-12_14h08.29.160,Surprise recog test,2023.1.3,59.93637155188793,
241,0,241,0,,,,,,,,,,,,,,,,,,,,,,,,,,,,,,,,,,,,957.1140388000058,958.1357454000972,956.5081942999968,956.5081942999968,956.5081942999968,956.5081942999968,old_sceneOut_33.png,242,5.0,0.6015419999603182,,,,,,030,1,2024-12-12_14h08.29.160,Surprise recog test,2023.1.3,59.93637155188793,
242,0,242,0,,,,,,,,,,,,,,,,,,,,,,,,,,,,,,,,,,,,959.7075886999955,960.7276346000144,958.1357454000972,958.1357454000972,958.1357454000972,958.1357454000972,old_fruit_44.png,243,5.0,1.5707262000069022,,,,,,030,1,2024-12-12_14h08.29.160,Surprise recog test,2023.1.3,59.93637155188793,
243,0,243,0,,,,,,,,,,,,,,,,,,,,,,,,,,,,,,,,,,,,961.7413670000387,962.761903900071,960.7276346000144,960.7276346000144,960.7276346000144,960.7276346000144,new_sceneOut_36.png,244,5.0,1.0154034999432042,,,,,,030,1,2024-12-12_14h08.29.160,Surprise recog test,2023.1.3,59.93637155188793,
244,0,244,0,,,,,,,,,,,,,,,,,,,,,,,,,,,,,,,,,,,,963.7626663000556,,962.761903900071,962.761903900071,962.761903900071,962.761903900071,old_fruit_36.png,245,5.0,1.0008305000374094,,,,,,030,1,2024-12-12_14h08.29.160,Surprise recog test,2023.1.3,59.93637155188793,
245,0,245,0,,,,,,,,,,,,,,,,,,,,,,,,,,,,,,,,,,,,965.533634499996,966.5552516001044,964.7965135000413,964.7965135000413,964.7965135000413,964.7965135000413,old_stationery_16.png,246,5.0,0.7386440000263974,,,,,,030,1,2024-12-12_14h08.29.160,Surprise recog test,2023.1.3,59.93637155188793,
246,0,246,0,,,,,,,,,,,,,,,,,,,,,,,,,,,,,,,,,,,,968.5519568000454,,966.5552516001044,966.5552516001044,966.5552516001044,966.5552516001044,old_fruit_42.png,247,5.0,1.9961216000374407,,,,,,030,1,2024-12-12_14h08.29.160,Surprise recog test,2023.1.3,59.93637155188793,
247,0,247,0,,,,,,,,,,,,,,,,,,,,,,,,,,,,,,,,,,,,971.2004473000998,972.2217158999993,969.5711187000852,969.5711187000852,969.5711187000852,969.5711187000852,new_fruit_14.png,248,5.0,1.6250742999836802,,,,,,030,1,2024-12-12_14h08.29.160,Surprise recog test,2023.1.3,59.93637155188793,
248,0,248,0,,,,,,,,,,,,,,,,,,,,,,,,,,,,,,,,,,,,973.5951611000346,974.6212706000078,972.2217158999993,972.2217158999993,972.2217158999993,972.2217158999993,new_fruit_48.png,249,5.0,1.3767663000617176,,,,,,030,1,2024-12-12_14h08.29.160,Surprise recog test,2023.1.3,59.93637155188793,
249,0,249,0,,,,,,,,,,,,,,,,,,,,,,,,,,,,,,,,,,,,976.3324102000333,977.3453564000083,974.6212706000078,974.6212706000078,974.6212706000078,974.6212706000078,new_sceneOut_4.png,250,5.0,1.7132260000798851,,,,,,030,1,2024-12-12_14h08.29.160,Surprise recog test,2023.1.3,59.93637155188793,
250,0,250,0,,,,,,,,,,,,,,,,,,,,,,,,,,,,,,,,,,,,978.1896172000561,979.1969028000021,977.3453564000083,977.3453564000083,977.3453564000083,977.3453564000083,old_fruit_3.png,251,5.0,0.8402338998857886,,,,,,030,1,2024-12-12_14h08.29.160,Surprise recog test,2023.1.3,59.93637155188793,
251,0,251,0,,,,,,,,,,,,,,,,,,,,,,,,,,,,,,,,,,,,980.3885404000757,981.4091382001061,979.1969028000021,979.1969028000021,979.1969028000021,979.1969028000021,new_fruit_11.png,252,5.0,1.1874710000120103,,,,,,030,1,2024-12-12_14h08.29.160,Surprise recog test,2023.1.3,59.93637155188793,
252,0,252,0,,,,,,,,,,,,,,,,,,,,,,,,,,,,,,,,,,,,983.3905062000267,984.402140500024,981.4091382001061,981.4091382001061,981.4091382001061,981.4091382001061,old_sceneOut_47.png,253,5.0,1.9814875000156462,,,,,,030,1,2024-12-12_14h08.29.160,Surprise recog test,2023.1.3,59.93637155188793,
253,0,253,0,,,,,,,,,,,,,,,,,,,,,,,,,,,,,,,,,,,,986.0858576000901,987.1173927000491,984.402140500024,984.402140500024,984.402140500024,984.402140500024,old_fruit_26.png,254,5.0,1.679856100003235,,,,,,030,1,2024-12-12_14h08.29.160,Surprise recog test,2023.1.3,59.93637155188793,
254,0,254,0,,,,,,,,,,,,,,,,,,,,,,,,,,,,,,,,,,,,989.1491238001036,990.1666924000019,987.1173927000491,987.1173927000491,987.1173927000491,987.1173927000491,new_sceneOut_13.png,255,5.0,2.033049499965273,,,,,,030,1,2024-12-12_14h08.29.160,Surprise recog test,2023.1.3,59.93637155188793,
255,0,255,0,,,,,,,,,,,,,,,,,,,,,,,,,,,,,,,,,,,,993.6958699000534,994.7098525000038,990.1666924000019,990.1666924000019,990.1666924000019,990.1666924000019,old_sceneOut_45.png,256,5.0,3.5313473999267444,,,,,,030,1,2024-12-12_14h08.29.160,Surprise recog test,2023.1.3,59.93637155188793,
256,0,256,0,,,,,,,,,,,,,,,,,,,,,,,,,,,,,,,,,,,,998.5952546000481,999.6296987000387,994.7098525000038,994.7098525000038,994.7098525000038,994.7098525000038,old_stationery_32.png,257,5.0,3.8812387000070885,,,,,,030,1,2024-12-12_14h08.29.160,Surprise recog test,2023.1.3,59.93637155188793,
257,0,257,0,,,,,,,,,,,,,,,,,,,,,,,,,,,,,,,,,,,,1001.6297528001014,1002.6613371000858,999.6296987000387,999.6296987000387,999.6296987000387,999.6296987000387,new_stationery_43.png,258,5.0,2.004786300007254,,,,,,030,1,2024-12-12_14h08.29.160,Surprise recog test,2023.1.3,59.93637155188793,
258,0,258,0,,,,,,,,,,,,,,,,,,,,,,,,,,,,,,,,,,,,1003.7148700000253,1004.7465254000854,1002.6613371000858,1002.6613371000858,1002.6613371000858,1002.6613371000858,new_stationery_4.png,259,5.0,1.0551495999097824,,,,,,030,1,2024-12-12_14h08.29.160,Surprise recog test,2023.1.3,59.93637155188793,
259,0,259,0,,,,,,,,,,,,,,,,,,,,,,,,,,,,,,,,,,,,1005.5342449001037,1006.5660802000202,1004.7465254000854,1004.7465254000854,1004.7465254000854,1004.7465254000854,new_stationery_14.png,260,5.0,0.7897722000489011,,,,,,030,1,2024-12-12_14h08.29.160,Surprise recog test,2023.1.3,59.93637155188793,
260,0,260,0,,,,,,,,,,,,,,,,,,,,,,,,,,,,,,,,,,,,1007.2800457000267,1008.2874087000964,1006.5660802000202,1006.5660802000202,1006.5660802000202,1006.5660802000202,old_fruit_25.png,261,5.0,0.7155228999909014,,,,,,030,1,2024-12-12_14h08.29.160,Surprise recog test,2023.1.3,59.93637155188793,
261,0,261,0,,,,,,,,,,,,,,,,,,,,,,,,,,,,,,,,,,,,1012.2756219001021,1013.2933875001036,1008.2874087000964,1008.2874087000964,1008.2874087000964,1008.2874087000964,new_fruit_28.png,262,1.0,3.9837208000244573,,,,,,030,1,2024-12-12_14h08.29.160,Surprise recog test,2023.1.3,59.93637155188793,
262,0,262,0,,,,,,,,,,,,,,,,,,,,,,,,,,,,,,,,,,,,1015.0453671000432,1016.0737227000063,1013.2933875001036,1013.2933875001036,1013.2933875001036,1013.2933875001036,old_fruit_14.png,263,5.0,1.7460603000363335,,,,,,030,1,2024-12-12_14h08.29.160,Surprise recog test,2023.1.3,59.93637155188793,
263,0,263,0,,,,,,,,,,,,,,,,,,,,,,,,,,,,,,,,,,,,1017.3876154000172,1018.4025040999986,1016.0737227000063,1016.0737227000063,1016.0737227000063,1016.0737227000063,new_stationery_38.png,264,5.0,1.314453799976036,,,,,,030,1,2024-12-12_14h08.29.160,Surprise recog test,2023.1.3,59.93637155188793,
264,0,264,0,,,,,,,,,,,,,,,,,,,,,,,,,,,,,,,,,,,,1019.1547186000971,1020.1652658000821,1018.4025040999986,1018.4025040999986,1018.4025040999986,1018.4025040999986,new_fruit_40.png,265,5.0,0.7528450000099838,,,,,,030,1,2024-12-12_14h08.29.160,Surprise recog test,2023.1.3,59.93637155188793,
265,0,265,0,,,,,,,,,,,,,,,,,,,,,,,,,,,,,,,,,,,,1020.8517982000485,1021.8783347000135,1020.1652658000821,1020.1652658000821,1020.1652658000821,1020.1652658000821,old_sceneIn_11.png,266,5.0,0.6788667000364512,,,,,,030,1,2024-12-12_14h08.29.160,Surprise recog test,2023.1.3,59.93637155188793,
266,0,266,0,,,,,,,,,,,,,,,,,,,,,,,,,,,,,,,,,,,,1023.1428711001063,1024.1632388000144,1021.8783347000135,1021.8783347000135,1021.8783347000135,1021.8783347000135,old_fruit_11.png,267,5.0,1.2658535999944434,,,,,,030,1,2024-12-12_14h08.29.160,Surprise recog test,2023.1.3,59.93637155188793,
267,0,267,0,,,,,,,,,,,,,,,,,,,,,,,,,,,,,,,,,,,,1026.6394855000544,1027.661327400012,1024.1632388000144,1024.1632388000144,1024.1632388000144,1024.1632388000144,old_fruit_20.png,268,5.0,2.476335399900563,,,,,,030,1,2024-12-12_14h08.29.160,Surprise recog test,2023.1.3,59.93637155188793,
268,0,268,0,,,,,,,,,,,,,,,,,,,,,,,,,,,,,,,,,,,,1029.0392722000834,1030.0566754000029,1027.661327400012,1027.661327400012,1027.661327400012,1027.661327400012,old_fruit_50.png,269,5.0,1.3773775999434292,,,,,,030,1,2024-12-12_14h08.29.160,Surprise recog test,2023.1.3,59.93637155188793,
269,0,269,0,,,,,,,,,,,,,,,,,,,,,,,,,,,,,,,,,,,,1031.1347093000077,,1030.0566754000029,1030.0566754000029,1030.0566754000029,1030.0566754000029,new_fruit_39.png,270,5.0,1.0720907000359148,,,,,,030,1,2024-12-12_14h08.29.160,Surprise recog test,2023.1.3,59.93637155188793,
270,0,270,0,,,,,,,,,,,,,,,,,,,,,,,,,,,,,,,,,,,,1033.1368812000146,,1032.1570343000349,1032.1570343000349,1032.1570343000349,1032.1570343000349,new_fruit_42.png,271,5.0,0.9760083000874147,,,,,,030,1,2024-12-12_14h08.29.160,Surprise recog test,2023.1.3,59.93637155188793,
271,0,271,0,,,,,,,,,,,,,,,,,,,,,,,,,,,,,,,,,,,,1034.81116510008,1035.8255208000774,1034.168257100042,1034.168257100042,1034.168257100042,1034.168257100042,old_sceneIn_13.png,272,5.0,0.644556500017643,,,,,,030,1,2024-12-12_14h08.29.160,Surprise recog test,2023.1.3,59.93637155188793,
272,0,272,0,,,,,,,,,,,,,,,,,,,,,,,,,,,,,,,,,,,,1036.9374430000316,1037.9511657000985,1035.8255208000774,1035.8255208000774,1035.8255208000774,1035.8255208000774,new_fruit_2.png,273,5.0,1.1028158999979496,,,,,,030,1,2024-12-12_14h08.29.160,Surprise recog test,2023.1.3,59.93637155188793,
273,0,273,0,,,,,,,,,,,,,,,,,,,,,,,,,,,,,,,,,,,,1038.5972915000748,1039.6267613000236,1037.9511657000985,1037.9511657000985,1037.9511657000985,1037.9511657000985,old_sceneOut_9.png,274,5.0,0.6451264000497758,,,,,,030,1,2024-12-12_14h08.29.160,Surprise recog test,2023.1.3,59.93637155188793,
274,0,274,0,,,,,,,,,,,,,,,,,,,,,,,,,,,,,,,,,,,,1041.8414311000379,1042.8603573000291,1039.6267613000236,1039.6267613000236,1039.6267613000236,1039.6267613000236,new_fruit_25.png,275,1.0,2.212519299937412,,,,,,030,1,2024-12-12_14h08.29.160,Surprise recog test,2023.1.3,59.93637155188793,
275,0,275,0,,,,,,,,,,,,,,,,,,,,,,,,,,,,,,,,,,,,1044.7212730000028,1045.748769900063,1042.8603573000291,1042.8603573000291,1042.8603573000291,1042.8603573000291,new_stationery_18.png,276,5.0,1.8624040000140667,,,,,,030,1,2024-12-12_14h08.29.160,Surprise recog test,2023.1.3,59.93637155188793,
276,0,276,0,,,,,,,,,,,,,,,,,,,,,,,,,,,,,,,,,,,,1046.496768400073,1047.5053322000895,1045.748769900063,1045.748769900063,1045.748769900063,1045.748769900063,new_fruit_33.png,277,5.0,0.7482757000252604,,,,,,030,1,2024-12-12_14h08.29.160,Surprise recog test,2023.1.3,59.93637155188793,
277,0,277,0,,,,,,,,,,,,,,,,,,,,,,,,,,,,,,,,,,,,1048.0647920001065,1049.0837651001057,1047.5053322000895,1047.5053322000895,1047.5053322000895,1047.5053322000895,new_fruit_4.png,278,5.0,0.5555490999249741,,,,,,030,1,2024-12-12_14h08.29.160,Surprise recog test,2023.1.3,59.93637155188793,
278,0,278,0,,,,,,,,,,,,,,,,,,,,,,,,,,,,,,,,,,,,1049.7921594000654,1050.819421900087,1049.0837651001057,1049.0837651001057,1049.0837651001057,1049.0837651001057,old_fruit_27.png,279,5.0,0.7085899000521749,,,,,,030,1,2024-12-12_14h08.29.160,Surprise recog test,2023.1.3,59.93637155188793,
279,0,279,0,,,,,,,,,,,,,,,,,,,,,,,,,,,,,,,,,,,,1051.42666430003,1052.437552300049,1050.819421900087,1050.819421900087,1050.819421900087,1050.819421900087,new_sceneIn_36.png,280,5.0,0.6098005999810994,,,,,,030,1,2024-12-12_14h08.29.160,Surprise recog test,2023.1.3,59.93637155188793,
280,0,280,0,,,,,,,,,,,,,,,,,,,,,,,,,,,,,,,,,,,,1053.0174197000451,1054.0390147001017,1052.437552300049,1052.437552300049,1052.437552300049,1052.437552300049,new_sceneOut_8.png,281,5.0,0.5760468000080436,,,,,,030,1,2024-12-12_14h08.29.160,Surprise recog test,2023.1.3,59.93637155188793,
281,0,281,0,,,,,,,,,,,,,,,,,,,,,,,,,,,,,,,,,,,,1055.417806600104,1056.441178200068,1054.0390147001017,1054.0390147001017,1054.0390147001017,1054.0390147001017,new_fruit_21.png,282,5.0,1.3823089000070468,,,,,,030,1,2024-12-12_14h08.29.160,Surprise recog test,2023.1.3,59.93637155188793,
282,0,282,0,,,,,,,,,,,,,,,,,,,,,,,,,,,,,,,,,,,,1057.494534800062,1058.5294854000676,1056.441178200068,1056.441178200068,1056.441178200068,1056.441178200068,new_stationery_13.png,283,5.0,1.0553770000115037,,,,,,030,1,2024-12-12_14h08.29.160,Surprise recog test,2023.1.3,59.93637155188793,
283,0,283,0,,,,,,,,,,,,,,,,,,,,,,,,,,,,,,,,,,,,1059.2899602000834,1060.3098443000345,1058.5294854000676,1058.5294854000676,1058.5294854000676,1058.5294854000676,new_stationery_17.png,284,5.0,0.7632370999781415,,,,,,030,1,2024-12-12_14h08.29.160,Surprise recog test,2023.1.3,59.93637155188793,
284,0,284,0,,,,,,,,,,,,,,,,,,,,,,,,,,,,,,,,,,,,1061.169624500093,1062.197118000011,1060.3098443000345,1060.3098443000345,1060.3098443000345,1060.3098443000345,old_sceneOut_2.png,285,5.0,0.8620765000814572,,,,,,030,1,2024-12-12_14h08.29.160,Surprise recog test,2023.1.3,59.93637155188793,
285,0,285,0,,,,,,,,,,,,,,,,,,,,,,,,,,,,,,,,,,,,1062.821846500039,1063.83453620004,1062.197118000011,1062.197118000011,1062.197118000011,1062.197118000011,old_sceneOut_38.png,286,5.0,0.6293107999954373,,,,,,030,1,2024-12-12_14h08.29.160,Surprise recog test,2023.1.3,59.93637155188793,
286,0,286,0,,,,,,,,,,,,,,,,,,,,,,,,,,,,,,,,,,,,1064.6920696001034,1065.715224100044,1063.83453620004,1063.83453620004,1063.83453620004,1063.83453620004,new_sceneOut_32.png,287,5.0,0.8533013999694958,,,,,,030,1,2024-12-12_14h08.29.160,Surprise recog test,2023.1.3,59.93637155188793,
287,0,287,0,,,,,,,,,,,,,,,,,,,,,,,,,,,,,,,,,,,,1066.4932868001051,1067.514239500044,1065.715224100044,1065.715224100044,1065.715224100044,1065.715224100044,new_stationery_48.png,288,5.0,0.7764704999281093,,,,,,030,1,2024-12-12_14h08.29.160,Surprise recog test,2023.1.3,59.93637155188793,
288,0,288,0,,,,,,,,,,,,,,,,,,,,,,,,,,,,,,,,,,,,1068.430491300067,1069.4501879001036,1067.514239500044,1067.514239500044,1067.514239500044,1067.514239500044,old_stationery_27.png,289,5.0,0.9158893000567332,,,,,,030,1,2024-12-12_14h08.29.160,Surprise recog test,2023.1.3,59.93637155188793,
289,0,289,0,,,,,,,,,,,,,,,,,,,,,,,,,,,,,,,,,,,,1070.6077185000759,1071.634663200006,1069.4501879001036,1069.4501879001036,1069.4501879001036,1069.4501879001036,new_sceneOut_25.png,290,5.0,1.1598070999607444,,,,,,030,1,2024-12-12_14h08.29.160,Surprise recog test,2023.1.3,59.93637155188793,
290,0,290,0,,,,,,,,,,,,,,,,,,,,,,,,,,,,,,,,,,,,1073.9620781000704,1074.9773971000686,1071.634663200006,1071.634663200006,1071.634663200006,1071.634663200006,new_sceneOut_31.png,291,5.0,2.328799100010656,,,,,,030,1,2024-12-12_14h08.29.160,Surprise recog test,2023.1.3,59.93637155188793,
291,0,291,0,,,,,,,,,,,,,,,,,,,,,,,,,,,,,,,,,,,,1075.9295733000617,1076.9541373000247,1074.9773971000686,1074.9773971000686,1074.9773971000686,1074.9773971000686,new_sceneIn_13.png,292,5.0,0.946842800010927,,,,,,030,1,2024-12-12_14h08.29.160,Surprise recog test,2023.1.3,59.93637155188793,
292,0,292,0,,,,,,,,,,,,,,,,,,,,,,,,,,,,,,,,,,,,1077.698332500062,1078.719685500022,1076.9541373000247,1076.9541373000247,1076.9541373000247,1076.9541373000247,old_sceneIn_2.png,293,5.0,0.7435926999896765,,,,,,030,1,2024-12-12_14h08.29.160,Surprise recog test,2023.1.3,59.93637155188793,
293,0,293,0,,,,,,,,,,,,,,,,,,,,,,,,,,,,,,,,,,,,1080.3131229000865,1081.3364269000012,1078.719685500022,1078.719685500022,1078.719685500022,1078.719685500022,old_sceneIn_16.png,294,5.0,1.5943781998939812,,,,,,030,1,2024-12-12_14h08.29.160,Surprise recog test,2023.1.3,59.93637155188793,
294,0,294,0,,,,,,,,,,,,,,,,,,,,,,,,,,,,,,,,,,,,1082.5066758000758,1083.5352684000973,1081.3364269000012,1081.3364269000012,1081.3364269000012,1081.3364269000012,new_sceneIn_19.png,295,5.0,1.1708694000262767,,,,,,030,1,2024-12-12_14h08.29.160,Surprise recog test,2023.1.3,59.93637155188793,
295,0,295,0,,,,,,,,,,,,,,,,,,,,,,,,,,,,,,,,,,,,1084.7246786000906,1085.7474711000687,1083.5352684000973,1083.5352684000973,1083.5352684000973,1083.5352684000973,new_fruit_12.png,296,5.0,1.1958910999819636,,,,,,030,1,2024-12-12_14h08.29.160,Surprise recog test,2023.1.3,59.93637155188793,
296,0,296,0,,,,,,,,,,,,,,,,,,,,,,,,,,,,,,,,,,,,1086.7518052000087,1087.7840555000585,1085.7474711000687,1085.7474711000687,1085.7474711000687,1085.7474711000687,old_sceneIn_9.png,297,5.0,1.006174899986945,,,,,,030,1,2024-12-12_14h08.29.160,Surprise recog test,2023.1.3,59.93637155188793,
297,0,297,0,,,,,,,,,,,,,,,,,,,,,,,,,,,,,,,,,,,,1090.7183185000904,,1087.7840555000585,1087.7840555000585,1087.7840555000585,1087.7840555000585,old_stationery_1.png,298,5.0,2.9364140999969095,,,,,,030,1,2024-12-12_14h08.29.160,Surprise recog test,2023.1.3,59.93637155188793,
298,0,298,0,,,,,,,,,,,,,,,,,,,,,,,,,,,,,,,,,,,,1092.8506687000627,1093.8727745000506,1091.7533308001002,1091.7533308001002,1091.7533308001002,1091.7533308001002,old_sceneOut_18.png,299,5.0,1.0921703000785783,,,,,,030,1,2024-12-12_14h08.29.160,Surprise recog test,2023.1.3,59.93637155188793,
299,0,299,0,,,,,,,,,,,,,,,,,,,,,,,,,,,,,,,,,,,,1095.4867959000403,1096.4995461000362,1093.8727745000506,1093.8727745000506,1093.8727745000506,1093.8727745000506,new_stationery_25.png,300,5.0,1.616489200037904,,,,,,030,1,2024-12-12_14h08.29.160,Surprise recog test,2023.1.3,59.93637155188793,
300,0,300,0,,,,,,,,,,,,,,,,,,,,,,,,,,,,,,,,,,,,1100.4402830000035,1101.4469661000185,1096.4995461000362,1096.4995461000362,1096.4995461000362,1096.4995461000362,old_stationery_6.png,301,5.0,3.938776900060475,,,,,,030,1,2024-12-12_14h08.29.160,Surprise recog test,2023.1.3,59.93637155188793,
301,0,301,0,,,,,,,,,,,,,,,,,,,,,,,,,,,,,,,,,,,,1102.6847066000337,1103.7132603001082,1101.4469661000185,1101.4469661000185,1101.4469661000185,1101.4469661000185,old_sceneIn_35.png,302,5.0,1.2312275000149384,,,,,,030,1,2024-12-12_14h08.29.160,Surprise recog test,2023.1.3,59.93637155188793,
302,0,302,0,,,,,,,,,,,,,,,,,,,,,,,,,,,,,,,,,,,,1104.5114487000974,1105.5298962000525,1103.7132603001082,1103.7132603001082,1103.7132603001082,1103.7132603001082,new_fruit_19.png,303,5.0,0.8022215999662876,,,,,,030,1,2024-12-12_14h08.29.160,Surprise recog test,2023.1.3,59.93637155188793,
303,0,303,0,,,,,,,,,,,,,,,,,,,,,,,,,,,,,,,,,,,,1106.2961730000097,1107.3027346000308,1105.5298962000525,1105.5298962000525,1105.5298962000525,1105.5298962000525,old_sceneIn_4.png,304,5.0,0.7680852999910712,,,,,,030,1,2024-12-12_14h08.29.160,Surprise recog test,2023.1.3,59.93637155188793,
304,0,304,0,,,,,,,,,,,,,,,,,,,,,,,,,,,,,,,,,,,,1108.248334600008,1109.2648717000848,1107.3027346000308,1107.3027346000308,1107.3027346000308,1107.3027346000308,new_sceneIn_21.png,305,5.0,0.9408814000198618,,,,,,030,1,2024-12-12_14h08.29.160,Surprise recog test,2023.1.3,59.93637155188793,
305,0,305,0,,,,,,,,,,,,,,,,,,,,,,,,,,,,,,,,,,,,1110.0040738000534,1111.035828800057,1109.2648717000848,1109.2648717000848,1109.2648717000848,1109.2648717000848,new_fruit_43.png,306,5.0,0.7421666999580339,,,,,,030,1,2024-12-12_14h08.29.160,Surprise recog test,2023.1.3,59.93637155188793,
306,0,306,0,,,,,,,,,,,,,,,,,,,,,,,,,,,,,,,,,,,,1112.6166900000535,1113.6258641000604,1111.035828800057,1111.035828800057,1111.035828800057,1111.035828800057,old_stationery_26.png,307,5.0,1.5766627000411972,,,,,,030,1,2024-12-12_14h08.29.160,Surprise recog test,2023.1.3,59.93637155188793,
307,0,307,0,,,,,,,,,,,,,,,,,,,,,,,,,,,,,,,,,,,,1114.924318100093,1115.9592748000287,1113.6258641000604,1113.6258641000604,1113.6258641000604,1113.6258641000604,new_fruit_23.png,308,5.0,1.2925006999867037,,,,,,030,1,2024-12-12_14h08.29.160,Surprise recog test,2023.1.3,59.93637155188793,
308,0,308,0,,,,,,,,,,,,,,,,,,,,,,,,,,,,,,,,,,,,1116.83436540002,1117.860426700092,1115.9592748000287,1115.9592748000287,1115.9592748000287,1115.9592748000287,new_sceneOut_18.png,309,5.0,0.8789989000651985,,,,,,030,1,2024-12-12_14h08.29.160,Surprise recog test,2023.1.3,59.93637155188793,
309,0,309,0,,,,,,,,,,,,,,,,,,,,,,,,,,,,,,,,,,,,1118.78070880007,1119.80795580009,1117.860426700092,1117.860426700092,1117.860426700092,1117.860426700092,old_sceneOut_35.png,310,5.0,0.9234186999965459,,,,,,030,1,2024-12-12_14h08.29.160,Surprise recog test,2023.1.3,59.93637155188793,
310,0,310,0,,,,,,,,,,,,,,,,,,,,,,,,,,,,,,,,,,,,1121.4542435000185,1122.4650353000034,1119.80795580009,1119.80795580009,1119.80795580009,1119.80795580009,old_sceneIn_48.png,311,5.0,1.6483405999606475,,,,,,030,1,2024-12-12_14h08.29.160,Surprise recog test,2023.1.3,59.93637155188793,
311,0,311,0,,,,,,,,,,,,,,,,,,,,,,,,,,,,,,,,,,,,1124.5256715000141,1125.5460969000123,1122.4650353000034,1122.4650353000034,1122.4650353000034,1122.4650353000034,new_stationery_45.png,312,5.0,2.0547906999709085,,,,,,030,1,2024-12-12_14h08.29.160,Surprise recog test,2023.1.3,59.93637155188793,
312,0,312,0,,,,,,,,,,,,,,,,,,,,,,,,,,,,,,,,,,,,1126.468458400108,1127.5018394000363,1125.5460969000123,1125.5460969000123,1125.5460969000123,1125.5460969000123,old_sceneIn_44.png,313,5.0,0.9247275000670925,,,,,,030,1,2024-12-12_14h08.29.160,Surprise recog test,2023.1.3,59.93637155188793,
313,0,313,0,,,,,,,,,,,,,,,,,,,,,,,,,,,,,,,,,,,,1128.2350904000923,1129.265338200028,1127.5018394000363,1127.5018394000363,1127.5018394000363,1127.5018394000363,new_fruit_24.png,314,5.0,0.7339279000880197,,,,,,030,1,2024-12-12_14h08.29.160,Surprise recog test,2023.1.3,59.93637155188793,
314,0,314,0,,,,,,,,,,,,,,,,,,,,,,,,,,,,,,,,,,,,1130.8111255000113,1131.8333189000841,1129.265338200028,1129.265338200028,1129.265338200028,1129.265338200028,old_fruit_19.png,315,5.0,1.5474810000741854,,,,,,030,1,2024-12-12_14h08.29.160,Surprise recog test,2023.1.3,59.93637155188793,
315,0,315,0,,,,,,,,,,,,,,,,,,,,,,,,,,,,,,,,,,,,1132.556159400032,1133.5752253000392,1131.8333189000841,1131.8333189000841,1131.8333189000841,1131.8333189000841,new_sceneIn_44.png,316,5.0,0.7250884000677615,,,,,,030,1,2024-12-12_14h08.29.160,Surprise recog test,2023.1.3,59.93637155188793,
316,0,316,0,,,,,,,,,,,,,,,,,,,,,,,,,,,,,,,,,,,,1134.653889200068,,1133.5752253000392,1133.5752253000392,1133.5752253000392,1133.5752253000392,old_sceneOut_26.png,317,5.0,1.0750183999771252,,,,,,030,1,2024-12-12_14h08.29.160,Surprise recog test,2023.1.3,59.93637155188793,
317,0,317,0,,,,,,,,,,,,,,,,,,,,,,,,,,,,,,,,,,,,1136.6797594000818,1137.7009347000858,1135.6827294999966,1135.6827294999966,1135.6827294999966,1135.6827294999966,new_stationery_46.png,318,5.0,0.9937817000318319,,,,,,030,1,2024-12-12_14h08.29.160,Surprise recog test,2023.1.3,59.93637155188793,
318,0,318,0,,,,,,,,,,,,,,,,,,,,,,,,,,,,,,,,,,,,1139.1821876000613,1140.2110709000845,1137.7009347000858,1137.7009347000858,1137.7009347000858,1137.7009347000858,new_sceneIn_39.png,319,5.0,1.4816484999610111,,,,,,030,1,2024-12-12_14h08.29.160,Surprise recog test,2023.1.3,59.93637155188793,
319,0,319,0,,,,,,,,,,,,,,,,,,,,,,,,,,,,,,,,,,,,1140.9569281000877,1141.9776733000763,1140.2110709000845,1140.2110709000845,1140.2110709000845,1140.2110709000845,new_sceneIn_16.png,320,5.0,0.7486137999221683,,,,,,030,1,2024-12-12_14h08.29.160,Surprise recog test,2023.1.3,59.93637155188793,
320,0,320,0,,,,,,,,,,,,,,,,,,,,,,,,,,,,,,,,,,,,1143.0253796000034,1144.046850200044,1141.9776733000763,1141.9776733000763,1141.9776733000763,1141.9776733000763,old_sceneIn_33.png,321,5.0,1.0442873999709263,,,,,,030,1,2024-12-12_14h08.29.160,Surprise recog test,2023.1.3,59.93637155188793,
321,0,321,0,,,,,,,,,,,,,,,,,,,,,,,,,,,,,,,,,,,,1145.0894587000366,1146.1218287000665,1144.046850200044,1144.046850200044,1144.046850200044,1144.046850200044,new_sceneIn_6.png,322,5.0,1.0446237000869587,,,,,,030,1,2024-12-12_14h08.29.160,Surprise recog test,2023.1.3,59.93637155188793,
322,0,322,0,,,,,,,,,,,,,,,,,,,,,,,,,,,,,,,,,,,,1146.7523083999986,1147.7830969000934,1146.1218287000665,1146.1218287000665,1146.1218287000665,1146.1218287000665,new_stationery_21.png,323,5.0,0.6339504999341443,,,,,,030,1,2024-12-12_14h08.29.160,Surprise recog test,2023.1.3,59.93637155188793,
323,0,323,0,,,,,,,,,,,,,,,,,,,,,,,,,,,,,,,,,,,,1148.9792912000557,1150.0029551000334,1147.7830969000934,1147.7830969000934,1147.7830969000934,1147.7830969000934,new_sceneOut_14.png,324,5.0,1.1964912000112236,,,,,,030,1,2024-12-12_14h08.29.160,Surprise recog test,2023.1.3,59.93637155188793,
324,0,324,0,,,,,,,,,,,,,,,,,,,,,,,,,,,,,,,,,,,,1151.2874416999985,1152.304358900059,1150.0029551000334,1150.0029551000334,1150.0029551000334,1150.0029551000334,old_sceneOut_7.png,325,5.0,1.2865223999833688,,,,,,030,1,2024-12-12_14h08.29.160,Surprise recog test,2023.1.3,59.93637155188793,
325,0,325,0,,,,,,,,,,,,,,,,,,,,,,,,,,,,,,,,,,,,1153.1397747000447,1154.1696334000444,1152.304358900059,1152.304358900059,1152.304358900059,1152.304358900059,old_sceneOut_48.png,326,5.0,0.8320312999421731,,,,,,030,1,2024-12-12_14h08.29.160,Surprise recog test,2023.1.3,59.93637155188793,
326,0,326,0,,,,,,,,,,,,,,,,,,,,,,,,,,,,,,,,,,,,1155.802533500013,1156.8105129000032,1154.1696334000444,1154.1696334000444,1154.1696334000444,1154.1696334000444,new_fruit_3.png,327,5.0,1.6301885000430048,,,,,,030,1,2024-12-12_14h08.29.160,Surprise recog test,2023.1.3,59.93637155188793,
327,0,327,0,,,,,,,,,,,,,,,,,,,,,,,,,,,,,,,,,,,,1157.8349629000295,1158.8461676000152,1156.8105129000032,1156.8105129000032,1156.8105129000032,1156.8105129000032,old_fruit_10.png,328,5.0,1.017491800012067,,,,,,030,1,2024-12-12_14h08.29.160,Surprise recog test,2023.1.3,59.93637155188793,
328,0,328,0,,,,,,,,,,,,,,,,,,,,,,,,,,,,,,,,,,,,1159.7305078000063,1160.7528771000216,1158.8461676000152,1158.8461676000152,1158.8461676000152,1158.8461676000152,old_fruit_37.png,329,5.0,0.8781230000313371,,,,,,030,1,2024-12-12_14h08.29.160,Surprise recog test,2023.1.3,59.93637155188793,
329,0,329,0,,,,,,,,,,,,,,,,,,,,,,,,,,,,,,,,,,,,1162.500498300069,1163.5302068000892,1160.7528771000216,1160.7528771000216,1160.7528771000216,1160.7528771000216,old_fruit_22.png,330,5.0,1.7489904999965802,,,,,,030,1,2024-12-12_14h08.29.160,Surprise recog test,2023.1.3,59.93637155188793,
330,0,330,0,,,,,,,,,,,,,,,,,,,,,,,,,,,,,,,,,,,,1164.3864974000026,1165.405285700108,1163.5302068000892,1163.5302068000892,1163.5302068000892,1163.5302068000892,old_sceneOut_27.png,331,5.0,0.8590221999911591,,,,,,030,1,2024-12-12_14h08.29.160,Surprise recog test,2023.1.3,59.93637155188793,
331,0,331,0,,,,,,,,,,,,,,,,,,,,,,,,,,,,,,,,,,,,1166.11066580005,1167.1245580000104,1165.405285700108,1165.405285700108,1165.405285700108,1165.405285700108,old_fruit_38.png,332,5.0,0.7029446000233293,,,,,,030,1,2024-12-12_14h08.29.160,Surprise recog test,2023.1.3,59.93637155188793,
332,0,332,0,,,,,,,,,,,,,,,,,,,,,,,,,,,,,,,,,,,,1170.8200974001084,1171.8486163000343,1167.1245580000104,1167.1245580000104,1167.1245580000104,1167.1245580000104,new_sceneIn_5.png,333,5.0,3.6951674000592902,,,,,,030,1,2024-12-12_14h08.29.160,Surprise recog test,2023.1.3,59.93637155188793,
333,0,333,0,,,,,,,,,,,,,,,,,,,,,,,,,,,,,,,,,,,,1175.356686700019,1176.391646400094,1171.8486163000343,1171.8486163000343,1171.8486163000343,1171.8486163000343,old_fruit_30.png,334,2.0,3.5089290000032634,,,,,,030,1,2024-12-12_14h08.29.160,Surprise recog test,2023.1.3,59.93637155188793,
334,0,334,0,,,,,,,,,,,,,,,,,,,,,,,,,,,,,,,,,,,,1177.6760978000239,1178.7076555000385,1176.391646400094,1176.391646400094,1176.391646400094,1176.391646400094,new_fruit_35.png,335,1.0,1.2875284999608994,,,,,,030,1,2024-12-12_14h08.29.160,Surprise recog test,2023.1.3,59.93637155188793,
335,0,335,0,,,,,,,,,,,,,,,,,,,,,,,,,,,,,,,,,,,,1180.179575300077,1181.1974428000394,1178.7076555000385,1178.7076555000385,1178.7076555000385,1178.7076555000385,new_sceneOut_49.png,336,5.0,1.4740150000434369,,,,,,030,1,2024-12-12_14h08.29.160,Surprise recog test,2023.1.3,59.93637155188793,
336,0,336,0,,,,,,,,,,,,,,,,,,,,,,,,,,,,,,,,,,,,1182.7989823000971,1183.8315593000734,1181.1974428000394,1181.1974428000394,1181.1974428000394,1181.1974428000394,old_sceneIn_38.png,337,5.0,1.5972592999460176,,,,,,030,1,2024-12-12_14h08.29.160,Surprise recog test,2023.1.3,59.93637155188793,
337,0,337,0,,,,,,,,,,,,,,,,,,,,,,,,,,,,,,,,,,,,1184.6343448000262,1185.6638223000336,1183.8315593000734,1183.8315593000734,1183.8315593000734,1183.8315593000734,new_sceneIn_20.png,338,5.0,0.8017047999892384,,,,,,030,1,2024-12-12_14h08.29.160,Surprise recog test,2023.1.3,59.93637155188793,
338,0,338,0,,,,,,,,,,,,,,,,,,,,,,,,,,,,,,,,,,,,1187.3121239000466,1188.3291209000163,1185.6638223000336,1185.6638223000336,1185.6638223000336,1185.6638223000336,old_stationery_18.png,339,1.0,1.6440481999889016,,,,,,030,1,2024-12-12_14h08.29.160,Surprise recog test,2023.1.3,59.93637155188793,
339,0,339,0,,,,,,,,,,,,,,,,,,,,,,,,,,,,,,,,,,,,1189.4911748000886,1190.5055741000688,1188.3291209000163,1188.3291209000163,1188.3291209000163,1188.3291209000163,old_sceneOut_19.png,340,5.0,1.1616388999391347,,,,,,030,1,2024-12-12_14h08.29.160,Surprise recog test,2023.1.3,59.93637155188793,
340,0,340,0,,,,,,,,,,,,,,,,,,,,,,,,,,,,,,,,,,,,1194.2011954000918,1195.2095229000552,1190.5055741000688,1190.5055741000688,1190.5055741000688,1190.5055741000688,old_stationery_19.png,341,1.0,3.690759800025262,,,,,,030,1,2024-12-12_14h08.29.160,Surprise recog test,2023.1.3,59.93637155188793,
341,0,341,0,,,,,,,,,,,,,,,,,,,,,,,,,,,,,,,,,,,,1196.3896253000712,,1195.2095229000552,1195.2095229000552,1195.2095229000552,1195.2095229000552,old_fruit_40.png,342,1.0,1.1753943000221625,,,,,,030,1,2024-12-12_14h08.29.160,Surprise recog test,2023.1.3,59.93637155188793,
342,0,342,0,,,,,,,,,,,,,,,,,,,,,,,,,,,,,,,,,,,,1198.5228484000545,1199.5435441000154,1197.4239016000647,1197.4239016000647,1197.4239016000647,1197.4239016000647,new_sceneIn_48.png,343,5.0,1.102445299969986,,,,,,030,1,2024-12-12_14h08.29.160,Surprise recog test,2023.1.3,59.93637155188793,
343,0,343,0,,,,,,,,,,,,,,,,,,,,,,,,,,,,,,,,,,,,1200.1144176000962,1201.1426197000546,1199.5435441000154,1199.5435441000154,1199.5435441000154,1199.5435441000154,new_sceneOut_45.png,344,5.0,0.5733957999618724,,,,,,030,1,2024-12-12_14h08.29.160,Surprise recog test,2023.1.3,59.93637155188793,
344,0,344,0,,,,,,,,,,,,,,,,,,,,,,,,,,,,,,,,,,,,1202.266206900007,1203.2944008000195,1201.1426197000546,1201.1426197000546,1201.1426197000546,1201.1426197000546,old_stationery_14.png,345,5.0,1.1256425000028685,,,,,,030,1,2024-12-12_14h08.29.160,Surprise recog test,2023.1.3,59.93637155188793,
345,0,345,0,,,,,,,,,,,,,,,,,,,,,,,,,,,,,,,,,,,,1204.2509974000277,1205.280899400008,1203.2944008000195,1203.2944008000195,1203.2944008000195,1203.2944008000195,old_sceneOut_28.png,346,5.0,0.9583953999681398,,,,,,030,1,2024-12-12_14h08.29.160,Surprise recog test,2023.1.3,59.93637155188793,
