trial_loop.thisRepN,trial_loop.thisTrialN,trial_loop.thisN,trial_loop.thisIndex,VAS_slider.started,VAS_text.started,VAS_notstressed_text.started,VAS_stressed_text.started,continue_input.started,continue_text.started,label0.started,label10.started,label20.started,label30.started,label40.started,label50.started,label60.started,label70.started,label80.started,label90.started,label100.started,VAS_slider.response,VAS_slider.rt,VAS_slider.history,Answer_VAS,continue_input.keys,instruction_text.started,continue_text_2.started,continue_input_2.started,continue_input_2.keys,continue_input_2.rt,continue_input_2.duration,example_text.started,example_slider_2.started,example_image.started,example_slider_2.response,example_slider_2.rt,fixcross.started,fixcross.stopped,front_square.started,stim_images.started,trial_inst_images.started,slider_images.started,thisImg,trial_count,slider_images.response,slider_images.rt,outro.started,participant,condition,date,expName,psychopyVersion,frameRate,
,,,,21.197247300000015,21.197247300000015,21.197247300000015,21.197247300000015,21.197247300000015,21.197247300000015,21.197247300000015,21.197247300000015,21.197247300000015,21.197247300000015,21.197247300000015,21.197247300000015,21.197247300000015,21.197247300000015,21.197247300000015,21.197247300000015,21.197247300000015,1.1666666666666665,3.7210710000000233,"[(1.1666666666666665, 3.7210710000000233)]",1.1666666666666665,None,,,,,,,,,,,,,,,,,,,,,,,031,11,2025-01-07_14h30.32.631,Surprise recog test,2023.1.3,59.95153517896237,
,,,,,,,,,,,,,,,,,,,,,,,,,,24.949841300000003,24.949841300000003,24.949841300000003,space,1.083558999999994,None,,,,,,,,,,,,,,,,,031,11,2025-01-07_14h30.32.631,Surprise recog test,2023.1.3,59.95153517896237,
0,0,0,0,,,,,,,,,,,,,,,,,,,,,,,,,,,,,26.140320599999995,26.140320599999995,26.140320599999995,1.0,2.0279012000000023,32.13199610000001,33.1610412,29.138605000000013,29.138605000000013,29.138605000000013,29.138605000000013,old_sceneIn_33.png,1,4.0,2.9950178999999935,,031,11,2025-01-07_14h30.32.631,Surprise recog test,2023.1.3,59.95153517896237,
1,0,1,0,,,,,,,,,,,,,,,,,,,,,,,,,,,,,,,,,,34.4578176,35.463559300000014,33.1610412,33.1610412,33.1610412,33.1610412,old_stationery_38.png,2,1.0,1.2923921000000007,,031,11,2025-01-07_14h30.32.631,Surprise recog test,2023.1.3,59.95153517896237,
2,0,2,0,,,,,,,,,,,,,,,,,,,,,,,,,,,,,,,,,,36.79666069999999,,35.463559300000014,35.463559300000014,35.463559300000014,35.463559300000014,new_sceneOut_47.png,3,3.0,1.328322700000001,,031,11,2025-01-07_14h30.32.631,Surprise recog test,2023.1.3,59.95153517896237,
3,0,3,0,,,,,,,,,,,,,,,,,,,,,,,,,,,,,,,,,,38.88545930000001,39.90171190000001,37.81504620000001,37.81504620000001,37.81504620000001,37.81504620000001,new_stationery_36.png,4,2.0,1.0643950000000189,,031,11,2025-01-07_14h30.32.631,Surprise recog test,2023.1.3,59.95153517896237,
4,0,4,0,,,,,,,,,,,,,,,,,,,,,,,,,,,,,,,,,,40.94473669999999,41.95898980000001,39.90171190000001,39.90171190000001,39.90171190000001,39.90171190000001,old_sceneIn_50.png,5,4.0,1.029833300000007,,031,11,2025-01-07_14h30.32.631,Surprise recog test,2023.1.3,59.95153517896237,
5,0,5,0,,,,,,,,,,,,,,,,,,,,,,,,,,,,,,,,,,43.151480899999996,,41.95898980000001,41.95898980000001,41.95898980000001,41.95898980000001,old_fruit_29.png,6,1.0,1.1902886000000024,,031,11,2025-01-07_14h30.32.631,Surprise recog test,2023.1.3,59.95153517896237,
6,0,6,0,,,,,,,,,,,,,,,,,,,,,,,,,,,,,,,,,,45.5537463,,44.172052199999996,44.172052199999996,44.172052199999996,44.172052199999996,old_sceneOut_29.png,7,3.0,1.3801798000000076,,031,11,2025-01-07_14h30.32.631,Surprise recog test,2023.1.3,59.95153517896237,
7,0,7,0,,,,,,,,,,,,,,,,,,,,,,,,,,,,,,,,,,47.72497899999999,48.7585363,46.58709440000001,46.58709440000001,46.58709440000001,46.58709440000001,old_fruit_46.png,8,1.0,1.1412769000000083,,031,11,2025-01-07_14h30.32.631,Surprise recog test,2023.1.3,59.95153517896237,
8,0,8,0,,,,,,,,,,,,,,,,,,,,,,,,,,,,,,,,,,50.5834299,51.597449600000004,48.7585363,48.7585363,48.7585363,48.7585363,new_sceneOut_10.png,9,3.0,1.824592800000005,,031,11,2025-01-07_14h30.32.631,Surprise recog test,2023.1.3,59.95153517896237,
9,0,9,0,,,,,,,,,,,,,,,,,,,,,,,,,,,,,,,,,,53.32259719999999,54.348034299999995,51.597449600000004,51.597449600000004,51.597449600000004,51.597449600000004,new_sceneOut_9.png,10,4.0,1.7205377000000226,,031,11,2025-01-07_14h30.32.631,Surprise recog test,2023.1.3,59.95153517896237,
10,0,10,0,,,,,,,,,,,,,,,,,,,,,,,,,,,,,,,,,,54.9978102,56.032213799999994,54.348034299999995,54.348034299999995,54.348034299999995,54.348034299999995,new_sceneIn_39.png,11,4.0,0.6522270000000105,,031,11,2025-01-07_14h30.32.631,Surprise recog test,2023.1.3,59.95153517896237,
11,0,11,0,,,,,,,,,,,,,,,,,,,,,,,,,,,,,,,,,,57.1576307,58.181436899999994,56.032213799999994,56.032213799999994,56.032213799999994,56.032213799999994,old_stationery_11.png,12,3.0,1.1290534999999977,,031,11,2025-01-07_14h30.32.631,Surprise recog test,2023.1.3,59.95153517896237,
12,0,12,0,,,,,,,,,,,,,,,,,,,,,,,,,,,,,,,,,,59.43318099999999,60.4539235,58.181436899999994,58.181436899999994,58.181436899999994,58.181436899999994,old_fruit_13.png,13,1.0,1.250145400000008,,031,11,2025-01-07_14h30.32.631,Surprise recog test,2023.1.3,59.95153517896237,
13,0,13,0,,,,,,,,,,,,,,,,,,,,,,,,,,,,,,,,,,61.624654899999996,62.6580457,60.4539235,60.4539235,60.4539235,60.4539235,new_sceneIn_25.png,14,4.0,1.1693170000000066,,031,11,2025-01-07_14h30.32.631,Surprise recog test,2023.1.3,59.95153517896237,
14,0,14,0,,,,,,,,,,,,,,,,,,,,,,,,,,,,,,,,,,63.77117079999999,64.79740960000001,62.6580457,62.6580457,62.6580457,62.6580457,new_fruit_14.png,15,2.0,1.1168865999999866,,031,11,2025-01-07_14h30.32.631,Surprise recog test,2023.1.3,59.95153517896237,
15,0,15,0,,,,,,,,,,,,,,,,,,,,,,,,,,,,,,,,,,65.9324986,66.9471145,64.79740960000001,64.79740960000001,64.79740960000001,64.79740960000001,old_stationery_50.png,16,1.0,1.1363178000000005,,031,11,2025-01-07_14h30.32.631,Surprise recog test,2023.1.3,59.95153517896237,
16,0,16,0,,,,,,,,,,,,,,,,,,,,,,,,,,,,,,,,,,69.01958100000002,70.02899099999999,66.9471145,66.9471145,66.9471145,66.9471145,old_sceneIn_19.png,17,4.0,2.0714149000000077,,031,11,2025-01-07_14h30.32.631,Surprise recog test,2023.1.3,59.95153517896237,
17,0,17,0,,,,,,,,,,,,,,,,,,,,,,,,,,,,,,,,,,71.1717956,72.18876660000001,70.02899099999999,70.02899099999999,70.02899099999999,70.02899099999999,old_sceneIn_26.png,18,4.0,1.1331884999999886,,031,11,2025-01-07_14h30.32.631,Surprise recog test,2023.1.3,59.95153517896237,
18,0,18,0,,,,,,,,,,,,,,,,,,,,,,,,,,,,,,,,,,73.07665610000001,,72.18876660000001,72.18876660000001,72.18876660000001,72.18876660000001,new_sceneIn_19.png,19,4.0,0.889795300000003,,031,11,2025-01-07_14h30.32.631,Surprise recog test,2023.1.3,59.95153517896237,
19,0,19,0,,,,,,,,,,,,,,,,,,,,,,,,,,,,,,,,,,74.7916213,75.80523790000001,74.1102022,74.1102022,74.1102022,74.1102022,old_sceneIn_7.png,20,4.0,0.6806087999999875,,031,11,2025-01-07_14h30.32.631,Surprise recog test,2023.1.3,59.95153517896237,
20,0,20,0,,,,,,,,,,,,,,,,,,,,,,,,,,,,,,,,,,76.9228503,77.9480939,75.80523790000001,75.80523790000001,75.80523790000001,75.80523790000001,old_fruit_9.png,21,2.0,1.1132934000000034,,031,11,2025-01-07_14h30.32.631,Surprise recog test,2023.1.3,59.95153517896237,
21,0,21,0,,,,,,,,,,,,,,,,,,,,,,,,,,,,,,,,,,79.3219818,80.33349849999999,77.9480939,77.9480939,77.9480939,77.9480939,new_stationery_37.png,22,2.0,1.3759231999999884,,031,11,2025-01-07_14h30.32.631,Surprise recog test,2023.1.3,59.95153517896237,
22,0,22,0,,,,,,,,,,,,,,,,,,,,,,,,,,,,,,,,,,81.2374652,82.26722720000001,80.33349849999999,80.33349849999999,80.33349849999999,80.33349849999999,old_stationery_34.png,23,2.0,0.9003063000000111,,031,11,2025-01-07_14h30.32.631,Surprise recog test,2023.1.3,59.95153517896237,
23,0,23,0,,,,,,,,,,,,,,,,,,,,,,,,,,,,,,,,,,82.96499,83.98797770000002,82.26722720000001,82.26722720000001,82.26722720000001,82.26722720000001,new_fruit_9.png,24,2.0,0.698164399999996,,031,11,2025-01-07_14h30.32.631,Surprise recog test,2023.1.3,59.95153517896237,
24,0,24,0,,,,,,,,,,,,,,,,,,,,,,,,,,,,,,,,,,85.34952179999999,86.36395390000001,83.98797770000002,83.98797770000002,83.98797770000002,83.98797770000002,new_sceneOut_50.png,25,3.0,1.3607039000000043,,031,11,2025-01-07_14h30.32.631,Surprise recog test,2023.1.3,59.95153517896237,
25,0,25,0,,,,,,,,,,,,,,,,,,,,,,,,,,,,,,,,,,87.392099,88.4067298,86.36395390000001,86.36395390000001,86.36395390000001,86.36395390000001,new_stationery_44.png,26,2.0,1.0254323000000056,,031,11,2025-01-07_14h30.32.631,Surprise recog test,2023.1.3,59.95153517896237,
26,0,26,0,,,,,,,,,,,,,,,,,,,,,,,,,,,,,,,,,,89.5837143,90.6038677,88.4067298,88.4067298,88.4067298,88.4067298,new_sceneOut_36.png,27,4.0,1.1710796999999786,,031,11,2025-01-07_14h30.32.631,Surprise recog test,2023.1.3,59.95153517896237,
27,0,27,0,,,,,,,,,,,,,,,,,,,,,,,,,,,,,,,,,,92.03915520000001,93.0485276,90.6038677,90.6038677,90.6038677,90.6038677,old_fruit_44.png,28,1.0,1.428230300000024,,031,11,2025-01-07_14h30.32.631,Surprise recog test,2023.1.3,59.95153517896237,
28,0,28,0,,,,,,,,,,,,,,,,,,,,,,,,,,,,,,,,,,94.2199402,95.24342430000002,93.0485276,93.0485276,93.0485276,93.0485276,new_stationery_25.png,29,3.0,1.1659000999999876,,031,11,2025-01-07_14h30.32.631,Surprise recog test,2023.1.3,59.95153517896237,
29,0,29,0,,,,,,,,,,,,,,,,,,,,,,,,,,,,,,,,,,96.67751290000001,97.6910935,95.24342430000002,95.24342430000002,95.24342430000002,95.24342430000002,old_sceneOut_18.png,30,4.0,1.435611100000017,,031,11,2025-01-07_14h30.32.631,Surprise recog test,2023.1.3,59.95153517896237,
30,0,30,0,,,,,,,,,,,,,,,,,,,,,,,,,,,,,,,,,,98.35938960000001,99.3652803,97.6910935,97.6910935,97.6910935,97.6910935,new_sceneOut_8.png,31,4.0,0.668283300000013,,031,11,2025-01-07_14h30.32.631,Surprise recog test,2023.1.3,59.95153517896237,
31,0,31,0,,,,,,,,,,,,,,,,,,,,,,,,,,,,,,,,,,100.3575472,101.37089,99.3652803,99.3652803,99.3652803,99.3652803,new_stationery_43.png,32,3.0,0.9868251000000043,,031,11,2025-01-07_14h30.32.631,Surprise recog test,2023.1.3,59.95153517896237,
32,0,32,0,,,,,,,,,,,,,,,,,,,,,,,,,,,,,,,,,,102.49973170000001,,101.37089,101.37089,101.37089,101.37089,old_fruit_41.png,33,1.0,1.1233283999999912,,031,11,2025-01-07_14h30.32.631,Surprise recog test,2023.1.3,59.95153517896237,
33,0,33,0,,,,,,,,,,,,,,,,,,,,,,,,,,,,,,,,,,104.5954212,105.61946879999999,103.52815950000002,103.52815950000002,103.52815950000002,103.52815950000002,new_stationery_23.png,34,1.0,1.068816499999997,,031,11,2025-01-07_14h30.32.631,Surprise recog test,2023.1.3,59.95153517896237,
34,0,34,0,,,,,,,,,,,,,,,,,,,,,,,,,,,,,,,,,,106.7409577,107.77208430000002,105.61946879999999,105.61946879999999,105.61946879999999,105.61946879999999,old_sceneOut_36.png,35,4.0,1.1238256999999976,,031,11,2025-01-07_14h30.32.631,Surprise recog test,2023.1.3,59.95153517896237,
35,0,35,0,,,,,,,,,,,,,,,,,,,,,,,,,,,,,,,,,,109.74137780000001,,107.77208430000002,107.77208430000002,107.77208430000002,107.77208430000002,new_sceneOut_46.png,36,2.0,1.970212700000019,,031,11,2025-01-07_14h30.32.631,Surprise recog test,2023.1.3,59.95153517896237,
36,0,36,0,,,,,,,,,,,,,,,,,,,,,,,,,,,,,,,,,,112.1144473,113.1457905,110.77018190000001,110.77018190000001,110.77018190000001,110.77018190000001,old_fruit_37.png,37,2.0,1.345593699999995,,031,11,2025-01-07_14h30.32.631,Surprise recog test,2023.1.3,59.95153517896237,
37,0,37,0,,,,,,,,,,,,,,,,,,,,,,,,,,,,,,,,,,114.70283320000001,115.7305748,113.1457905,113.1457905,113.1457905,113.1457905,old_stationery_10.png,38,5.0,1.5586424999999906,,031,11,2025-01-07_14h30.32.631,Surprise recog test,2023.1.3,59.95153517896237,
38,0,38,0,,,,,,,,,,,,,,,,,,,,,,,,,,,,,,,,,,118.073678,119.0860213,115.7305748,115.7305748,115.7305748,115.7305748,new_sceneOut_31.png,39,3.0,2.345675399999976,,031,11,2025-01-07_14h30.32.631,Surprise recog test,2023.1.3,59.95153517896237,
39,0,39,0,,,,,,,,,,,,,,,,,,,,,,,,,,,,,,,,,,120.1935354,121.20870390000002,119.0860213,119.0860213,119.0860213,119.0860213,new_sceneIn_31.png,40,4.0,1.1005241000000012,,031,11,2025-01-07_14h30.32.631,Surprise recog test,2023.1.3,59.95153517896237,
40,0,40,0,,,,,,,,,,,,,,,,,,,,,,,,,,,,,,,,,,121.9249475,122.95396970000002,121.20870390000002,121.20870390000002,121.20870390000002,121.20870390000002,new_sceneOut_42.png,41,4.0,0.7133795999999961,,031,11,2025-01-07_14h30.32.631,Surprise recog test,2023.1.3,59.95153517896237,
41,0,41,0,,,,,,,,,,,,,,,,,,,,,,,,,,,,,,,,,,123.81027120000002,124.83560210000002,122.95396970000002,122.95396970000002,122.95396970000002,122.95396970000002,old_sceneIn_30.png,42,4.0,0.8585769000000028,,031,11,2025-01-07_14h30.32.631,Surprise recog test,2023.1.3,59.95153517896237,
42,0,42,0,,,,,,,,,,,,,,,,,,,,,,,,,,,,,,,,,,125.86227600000001,126.87651540000002,124.83560210000002,124.83560210000002,124.83560210000002,124.83560210000002,new_stationery_6.png,43,3.0,1.0296369999999797,,031,11,2025-01-07_14h30.32.631,Surprise recog test,2023.1.3,59.95153517896237,
43,0,43,0,,,,,,,,,,,,,,,,,,,,,,,,,,,,,,,,,,127.8828288,128.9083744,126.87651540000002,126.87651540000002,126.87651540000002,126.87651540000002,old_stationery_36.png,44,2.0,1.0013430000000199,,031,11,2025-01-07_14h30.32.631,Surprise recog test,2023.1.3,59.95153517896237,
44,0,44,0,,,,,,,,,,,,,,,,,,,,,,,,,,,,,,,,,,129.9815644,130.9924774,128.9083744,128.9083744,128.9083744,128.9083744,new_sceneIn_7.png,45,4.0,1.073906600000015,,031,11,2025-01-07_14h30.32.631,Surprise recog test,2023.1.3,59.95153517896237,
45,0,45,0,,,,,,,,,,,,,,,,,,,,,,,,,,,,,,,,,,131.9056152,132.9199998,130.9924774,130.9924774,130.9924774,130.9924774,new_sceneIn_10.png,46,4.0,0.9068578999999772,,031,11,2025-01-07_14h30.32.631,Surprise recog test,2023.1.3,59.95153517896237,
46,0,46,0,,,,,,,,,,,,,,,,,,,,,,,,,,,,,,,,,,134.13499720000002,135.1526359,132.9199998,132.9199998,132.9199998,132.9199998,new_fruit_41.png,47,1.0,1.2148200000000031,,031,11,2025-01-07_14h30.32.631,Surprise recog test,2023.1.3,59.95153517896237,
47,0,47,0,,,,,,,,,,,,,,,,,,,,,,,,,,,,,,,,,,136.2016146,137.2235709,135.1526359,135.1526359,135.1526359,135.1526359,old_stationery_27.png,48,3.0,1.0456703000000118,,031,11,2025-01-07_14h30.32.631,Surprise recog test,2023.1.3,59.95153517896237,
48,0,48,0,,,,,,,,,,,,,,,,,,,,,,,,,,,,,,,,,,138.06257230000003,139.0694094,137.2235709,137.2235709,137.2235709,137.2235709,new_sceneIn_17.png,49,4.0,0.838426600000048,,031,11,2025-01-07_14h30.32.631,Surprise recog test,2023.1.3,59.95153517896237,
49,0,49,0,,,,,,,,,,,,,,,,,,,,,,,,,,,,,,,,,,139.71998820000002,140.7368013,139.0694094,139.0694094,139.0694094,139.0694094,old_sceneOut_7.png,50,4.0,0.6432843000000048,,031,11,2025-01-07_14h30.32.631,Surprise recog test,2023.1.3,59.95153517896237,
50,0,50,0,,,,,,,,,,,,,,,,,,,,,,,,,,,,,,,,,,141.49008089999998,142.51783530000003,140.7368013,140.7368013,140.7368013,140.7368013,old_sceneIn_20.png,51,4.0,0.7480044999999791,,031,11,2025-01-07_14h30.32.631,Surprise recog test,2023.1.3,59.95153517896237,
51,0,51,0,,,,,,,,,,,,,,,,,,,,,,,,,,,,,,,,,,143.2875425,144.30751080000002,142.51783530000003,142.51783530000003,142.51783530000003,142.51783530000003,new_sceneOut_30.png,52,4.0,0.7713888999999767,,031,11,2025-01-07_14h30.32.631,Surprise recog test,2023.1.3,59.95153517896237,
52,0,52,0,,,,,,,,,,,,,,,,,,,,,,,,,,,,,,,,,,145.57937360000003,146.5885021,144.30751080000002,144.30751080000002,144.30751080000002,144.30751080000002,new_fruit_43.png,53,4.0,1.2647387000000094,,031,11,2025-01-07_14h30.32.631,Surprise recog test,2023.1.3,59.95153517896237,
53,0,53,0,,,,,,,,,,,,,,,,,,,,,,,,,,,,,,,,,,147.504581,,146.5885021,146.5885021,146.5885021,146.5885021,new_sceneIn_34.png,54,4.0,0.9096576999999684,,031,11,2025-01-07_14h30.32.631,Surprise recog test,2023.1.3,59.95153517896237,
54,0,54,0,,,,,,,,,,,,,,,,,,,,,,,,,,,,,,,,,,149.2200683,150.2399091,148.5414092,148.5414092,148.5414092,148.5414092,old_sceneIn_27.png,55,4.0,0.6798433000000159,,031,11,2025-01-07_14h30.32.631,Surprise recog test,2023.1.3,59.95153517896237,
55,0,55,0,,,,,,,,,,,,,,,,,,,,,,,,,,,,,,,,,,151.4305393,152.46766799999997,150.2399091,150.2399091,150.2399091,150.2399091,old_stationery_17.png,56,3.0,1.192320299999949,,031,11,2025-01-07_14h30.32.631,Surprise recog test,2023.1.3,59.95153517896237,
56,0,56,0,,,,,,,,,,,,,,,,,,,,,,,,,,,,,,,,,,153.23118259999998,154.2599355,152.46766799999997,152.46766799999997,152.46766799999997,152.46766799999997,new_sceneIn_45.png,57,4.0,0.7676283000000126,,031,11,2025-01-07_14h30.32.631,Surprise recog test,2023.1.3,59.95153517896237,
57,0,57,0,,,,,,,,,,,,,,,,,,,,,,,,,,,,,,,,,,155.4624262,,154.2599355,154.2599355,154.2599355,154.2599355,new_fruit_40.png,58,2.0,1.2016764999999623,,031,11,2025-01-07_14h30.32.631,Surprise recog test,2023.1.3,59.95153517896237,
58,0,58,0,,,,,,,,,,,,,,,,,,,,,,,,,,,,,,,,,,158.1249354,159.1489071,156.49433259999998,156.49433259999998,156.49433259999998,156.49433259999998,new_stationery_31.png,59,2.0,1.6296537999999714,,031,11,2025-01-07_14h30.32.631,Surprise recog test,2023.1.3,59.95153517896237,
59,0,59,0,,,,,,,,,,,,,,,,,,,,,,,,,,,,,,,,,,160.8263919,161.8449613,159.1489071,159.1489071,159.1489071,159.1489071,old_fruit_10.png,60,4.0,1.679489999999987,,031,11,2025-01-07_14h30.32.631,Surprise recog test,2023.1.3,59.95153517896237,
60,0,60,0,,,,,,,,,,,,,,,,,,,,,,,,,,,,,,,,,,162.57415619999998,163.60533719999998,161.8449613,161.8449613,161.8449613,161.8449613,old_sceneIn_9.png,61,4.0,0.730249600000036,,031,11,2025-01-07_14h30.32.631,Surprise recog test,2023.1.3,59.95153517896237,
61,0,61,0,,,,,,,,,,,,,,,,,,,,,,,,,,,,,,,,,,164.37948989999998,165.4003385,163.60533719999998,163.60533719999998,163.60533719999998,163.60533719999998,old_sceneIn_36.png,62,4.0,0.7760121999999683,,031,11,2025-01-07_14h30.32.631,Surprise recog test,2023.1.3,59.95153517896237,
62,0,62,0,,,,,,,,,,,,,,,,,,,,,,,,,,,,,,,,,,166.71551380000002,167.72427159999998,165.4003385,165.4003385,165.4003385,165.4003385,old_stationery_40.png,63,1.0,1.317506499999979,,031,11,2025-01-07_14h30.32.631,Surprise recog test,2023.1.3,59.95153517896237,
63,0,63,0,,,,,,,,,,,,,,,,,,,,,,,,,,,,,,,,,,169.55563379999998,170.57543669999998,167.72427159999998,167.72427159999998,167.72427159999998,167.72427159999998,old_stationery_37.png,64,2.0,1.8270233999999732,,031,11,2025-01-07_14h30.32.631,Surprise recog test,2023.1.3,59.95153517896237,
64,0,64,0,,,,,,,,,,,,,,,,,,,,,,,,,,,,,,,,,,172.07825290000002,173.11516350000002,170.57543669999998,170.57543669999998,170.57543669999998,170.57543669999998,new_sceneOut_3.png,65,3.0,1.5049239000000512,,031,11,2025-01-07_14h30.32.631,Surprise recog test,2023.1.3,59.95153517896237,
65,0,65,0,,,,,,,,,,,,,,,,,,,,,,,,,,,,,,,,,,174.2528227,175.27946770000003,173.11516350000002,173.11516350000002,173.11516350000002,173.11516350000002,old_stationery_26.png,66,2.0,1.1414038000000346,,031,11,2025-01-07_14h30.32.631,Surprise recog test,2023.1.3,59.95153517896237,
66,0,66,0,,,,,,,,,,,,,,,,,,,,,,,,,,,,,,,,,,177.1099263,178.1262404,175.27946770000003,175.27946770000003,175.27946770000003,175.27946770000003,new_fruit_15.png,67,2.0,1.8300310000000195,,031,11,2025-01-07_14h30.32.631,Surprise recog test,2023.1.3,59.95153517896237,
67,0,67,0,,,,,,,,,,,,,,,,,,,,,,,,,,,,,,,,,,178.9669287,180.0026637,178.1262404,178.1262404,178.1262404,178.1262404,old_sceneIn_40.png,68,4.0,0.8413349999999582,,031,11,2025-01-07_14h30.32.631,Surprise recog test,2023.1.3,59.95153517896237,
68,0,68,0,,,,,,,,,,,,,,,,,,,,,,,,,,,,,,,,,,181.44920620000002,,180.0026637,180.0026637,180.0026637,180.0026637,old_stationery_46.png,69,1.0,1.4501185999999961,,031,11,2025-01-07_14h30.32.631,Surprise recog test,2023.1.3,59.95153517896237,
69,0,69,0,,,,,,,,,,,,,,,,,,,,,,,,,,,,,,,,,,183.5190347,,182.47723349999998,182.47723349999998,182.47723349999998,182.47723349999998,new_sceneIn_2.png,70,4.0,1.0423157000000174,,031,11,2025-01-07_14h30.32.631,Surprise recog test,2023.1.3,59.95153517896237,
70,0,70,0,,,,,,,,,,,,,,,,,,,,,,,,,,,,,,,,,,185.61509930000003,186.6253831,184.54657540000002,184.54657540000002,184.54657540000002,184.54657540000002,new_stationery_35.png,71,1.0,1.068860299999983,,031,11,2025-01-07_14h30.32.631,Surprise recog test,2023.1.3,59.95153517896237,
71,0,71,0,,,,,,,,,,,,,,,,,,,,,,,,,,,,,,,,,,187.62484070000002,188.6575794,186.6253831,186.6253831,186.6253831,186.6253831,old_sceneIn_23.png,72,5.0,0.9930012000000374,,031,11,2025-01-07_14h30.32.631,Surprise recog test,2023.1.3,59.95153517896237,
72,0,72,0,,,,,,,,,,,,,,,,,,,,,,,,,,,,,,,,,,189.8228483,,188.6575794,188.6575794,188.6575794,188.6575794,new_stationery_5.png,73,1.0,1.1677930000000174,,031,11,2025-01-07_14h30.32.631,Surprise recog test,2023.1.3,59.95153517896237,
73,0,73,0,,,,,,,,,,,,,,,,,,,,,,,,,,,,,,,,,,191.93891929999998,192.9447337,190.84938079999998,190.84938079999998,190.84938079999998,190.84938079999998,old_fruit_6.png,74,2.0,1.0875353000000132,,031,11,2025-01-07_14h30.32.631,Surprise recog test,2023.1.3,59.95153517896237,
74,0,74,0,,,,,,,,,,,,,,,,,,,,,,,,,,,,,,,,,,194.991298,195.9960705,192.9447337,192.9447337,192.9447337,192.9447337,new_sceneOut_14.png,75,3.0,2.0411876999999663,,031,11,2025-01-07_14h30.32.631,Surprise recog test,2023.1.3,59.95153517896237,
75,0,75,0,,,,,,,,,,,,,,,,,,,,,,,,,,,,,,,,,,197.0836942,198.098057,195.9960705,195.9960705,195.9960705,195.9960705,new_fruit_17.png,76,1.0,1.0815455000000043,,031,11,2025-01-07_14h30.32.631,Surprise recog test,2023.1.3,59.95153517896237,
76,0,76,0,,,,,,,,,,,,,,,,,,,,,,,,,,,,,,,,,,198.96091429999998,199.9696254,198.098057,198.098057,198.098057,198.098057,old_sceneOut_23.png,77,4.0,0.8570150000000467,,031,11,2025-01-07_14h30.32.631,Surprise recog test,2023.1.3,59.95153517896237,
77,0,77,0,,,,,,,,,,,,,,,,,,,,,,,,,,,,,,,,,,201.0026794,202.02134859999998,199.9696254,199.9696254,199.9696254,199.9696254,old_sceneIn_3.png,78,4.0,1.0275952999999731,,031,11,2025-01-07_14h30.32.631,Surprise recog test,2023.1.3,59.95153517896237,
78,0,78,0,,,,,,,,,,,,,,,,,,,,,,,,,,,,,,,,,,202.98751769999998,204.00572230000003,202.02134859999998,202.02134859999998,202.02134859999998,202.02134859999998,old_sceneOut_47.png,79,4.0,0.9646152999999913,,031,11,2025-01-07_14h30.32.631,Surprise recog test,2023.1.3,59.95153517896237,
79,0,79,0,,,,,,,,,,,,,,,,,,,,,,,,,,,,,,,,,,205.3166532,206.32156840000002,204.00572230000003,204.00572230000003,204.00572230000003,204.00572230000003,new_stationery_27.png,80,3.0,1.3051375000000007,,031,11,2025-01-07_14h30.32.631,Surprise recog test,2023.1.3,59.95153517896237,
80,0,80,0,,,,,,,,,,,,,,,,,,,,,,,,,,,,,,,,,,207.4350469,208.44243020000002,206.32156840000002,206.32156840000002,206.32156840000002,206.32156840000002,old_stationery_30.png,81,4.0,1.1035951999999725,,031,11,2025-01-07_14h30.32.631,Surprise recog test,2023.1.3,59.95153517896237,
81,0,81,0,,,,,,,,,,,,,,,,,,,,,,,,,,,,,,,,,,209.41497590000003,210.4245675,208.44243020000002,208.44243020000002,208.44243020000002,208.44243020000002,old_sceneOut_21.png,82,4.0,0.96683969999998,,031,11,2025-01-07_14h30.32.631,Surprise recog test,2023.1.3,59.95153517896237,
82,0,82,0,,,,,,,,,,,,,,,,,,,,,,,,,,,,,,,,,,211.9725245,212.97798300000002,210.4245675,210.4245675,210.4245675,210.4245675,old_fruit_16.png,83,1.0,1.5379256999999598,,031,11,2025-01-07_14h30.32.631,Surprise recog test,2023.1.3,59.95153517896237,
83,0,83,0,,,,,,,,,,,,,,,,,,,,,,,,,,,,,,,,,,214.21662899999998,215.22838149999998,212.97798300000002,212.97798300000002,212.97798300000002,212.97798300000002,old_stationery_3.png,84,2.0,1.2340686000000005,,031,11,2025-01-07_14h30.32.631,Surprise recog test,2023.1.3,59.95153517896237,
84,0,84,0,,,,,,,,,,,,,,,,,,,,,,,,,,,,,,,,,,216.3091138,217.3150666,215.22838149999998,215.22838149999998,215.22838149999998,215.22838149999998,old_fruit_43.png,85,1.0,1.0724761999999828,,031,11,2025-01-07_14h30.32.631,Surprise recog test,2023.1.3,59.95153517896237,
85,0,85,0,,,,,,,,,,,,,,,,,,,,,,,,,,,,,,,,,,218.0105293,219.01948639999998,217.3150666,217.3150666,217.3150666,217.3150666,old_fruit_26.png,86,1.0,0.6862598999999818,,031,11,2025-01-07_14h30.32.631,Surprise recog test,2023.1.3,59.95153517896237,
86,0,86,0,,,,,,,,,,,,,,,,,,,,,,,,,,,,,,,,,,219.69049600000002,220.7031221,219.01948639999998,219.01948639999998,219.01948639999998,219.01948639999998,old_stationery_16.png,87,1.0,0.665744200000006,,031,11,2025-01-07_14h30.32.631,Surprise recog test,2023.1.3,59.95153517896237,
87,0,87,0,,,,,,,,,,,,,,,,,,,,,,,,,,,,,,,,,,222.10248729999998,223.12321640000002,220.7031221,220.7031221,220.7031221,220.7031221,new_sceneIn_23.png,88,4.0,1.3979623000000174,,031,11,2025-01-07_14h30.32.631,Surprise recog test,2023.1.3,59.95153517896237,
88,0,88,0,,,,,,,,,,,,,,,,,,,,,,,,,,,,,,,,,,224.2247133,225.25753340000003,223.12321640000002,223.12321640000002,223.12321640000002,223.12321640000002,new_stationery_30.png,89,1.0,1.0973137000000293,,031,11,2025-01-07_14h30.32.631,Surprise recog test,2023.1.3,59.95153517896237,
89,0,89,0,,,,,,,,,,,,,,,,,,,,,,,,,,,,,,,,,,226.21603539999998,227.23590240000001,225.25753340000003,225.25753340000003,225.25753340000003,225.25753340000003,old_stationery_24.png,90,2.0,0.9629778999999985,,031,11,2025-01-07_14h30.32.631,Surprise recog test,2023.1.3,59.95153517896237,
90,0,90,0,,,,,,,,,,,,,,,,,,,,,,,,,,,,,,,,,,228.25400199999999,229.26209300000002,227.23590240000001,227.23590240000001,227.23590240000001,227.23590240000001,old_fruit_14.png,91,1.0,1.0188076000000024,,031,11,2025-01-07_14h30.32.631,Surprise recog test,2023.1.3,59.95153517896237,
91,0,91,0,,,,,,,,,,,,,,,,,,,,,,,,,,,,,,,,,,230.30785290000003,,229.26209300000002,229.26209300000002,229.26209300000002,229.26209300000002,old_stationery_43.png,92,3.0,1.041721100000018,,031,11,2025-01-07_14h30.32.631,Surprise recog test,2023.1.3,59.95153517896237,
92,0,92,0,,,,,,,,,,,,,,,,,,,,,,,,,,,,,,,,,,232.0948117,233.1182499,231.33515029999998,231.33515029999998,231.33515029999998,231.33515029999998,old_sceneIn_28.png,93,4.0,0.7598178000000075,,031,11,2025-01-07_14h30.32.631,Surprise recog test,2023.1.3,59.95153517896237,
93,0,93,0,,,,,,,,,,,,,,,,,,,,,,,,,,,,,,,,,,234.4054257,235.4167057,233.1182499,233.1182499,233.1182499,233.1182499,new_stationery_17.png,94,3.0,1.2866070999999693,,031,11,2025-01-07_14h30.32.631,Surprise recog test,2023.1.3,59.95153517896237,
94,0,94,0,,,,,,,,,,,,,,,,,,,,,,,,,,,,,,,,,,236.5603432,237.5816857,235.4167057,235.4167057,235.4167057,235.4167057,new_sceneOut_49.png,95,4.0,1.14038359999995,,031,11,2025-01-07_14h30.32.631,Surprise recog test,2023.1.3,59.95153517896237,
95,0,95,0,,,,,,,,,,,,,,,,,,,,,,,,,,,,,,,,,,238.29173039999998,239.3159836,237.5816857,237.5816857,237.5816857,237.5816857,new_sceneOut_20.png,96,4.0,0.7156029000000217,,031,11,2025-01-07_14h30.32.631,Surprise recog test,2023.1.3,59.95153517896237,
96,0,96,0,,,,,,,,,,,,,,,,,,,,,,,,,,,,,,,,,,240.1534796,241.1717234,239.3159836,239.3159836,239.3159836,239.3159836,new_sceneIn_18.png,97,4.0,0.8381122000000119,,031,11,2025-01-07_14h30.32.631,Surprise recog test,2023.1.3,59.95153517896237,
97,0,97,0,,,,,,,,,,,,,,,,,,,,,,,,,,,,,,,,,,241.89655869999999,242.9030483,241.1717234,241.1717234,241.1717234,241.1717234,old_sceneOut_49.png,98,4.0,0.7199428000000125,,031,11,2025-01-07_14h30.32.631,Surprise recog test,2023.1.3,59.95153517896237,
98,0,98,0,,,,,,,,,,,,,,,,,,,,,,,,,,,,,,,,,,244.16410570000002,245.1846421,242.9030483,242.9030483,242.9030483,242.9030483,new_fruit_22.png,99,1.0,1.2566213000000062,,031,11,2025-01-07_14h30.32.631,Surprise recog test,2023.1.3,59.95153517896237,
99,0,99,0,,,,,,,,,,,,,,,,,,,,,,,,,,,,,,,,,,245.96011589999998,246.9722454,245.1846421,245.1846421,245.1846421,245.1846421,new_sceneIn_50.png,100,4.0,0.777090899999962,,031,11,2025-01-07_14h30.32.631,Surprise recog test,2023.1.3,59.95153517896237,
100,0,100,0,,,,,,,,,,,,,,,,,,,,,,,,,,,,,,,,,,247.65194649999998,248.6651277,246.9722454,246.9722454,246.9722454,246.9722454,new_sceneIn_4.png,101,4.0,0.6698101999999722,,031,11,2025-01-07_14h30.32.631,Surprise recog test,2023.1.3,59.95153517896237,
101,0,101,0,,,,,,,,,,,,,,,,,,,,,,,,,,,,,,,,,,249.94561940000003,250.96997389999999,248.6651277,248.6651277,248.6651277,248.6651277,old_stationery_31.png,102,2.0,1.2817550000000324,,031,11,2025-01-07_14h30.32.631,Surprise recog test,2023.1.3,59.95153517896237,
102,0,102,0,,,,,,,,,,,,,,,,,,,,,,,,,,,,,,,,,,251.84189999999998,,250.96997389999999,250.96997389999999,250.96997389999999,250.96997389999999,old_fruit_25.png,103,2.0,0.8741120000000251,,031,11,2025-01-07_14h30.32.631,Surprise recog test,2023.1.3,59.95153517896237,
103,0,103,0,,,,,,,,,,,,,,,,,,,,,,,,,,,,,,,,,,253.8259826,,252.8599285,252.8599285,252.8599285,252.8599285,new_sceneOut_25.png,104,4.0,0.9610827000000199,,031,11,2025-01-07_14h30.32.631,Surprise recog test,2023.1.3,59.95153517896237,
104,0,104,0,,,,,,,,,,,,,,,,,,,,,,,,,,,,,,,,,,255.44156990000002,256.4504075,254.86244359999998,254.86244359999998,254.86244359999998,254.86244359999998,old_sceneIn_8.png,105,4.0,0.5816967000000091,,031,11,2025-01-07_14h30.32.631,Surprise recog test,2023.1.3,59.95153517896237,
105,0,105,0,,,,,,,,,,,,,,,,,,,,,,,,,,,,,,,,,,257.18081159999997,,256.4504075,256.4504075,256.4504075,256.4504075,new_sceneIn_13.png,106,4.0,0.7231292000000167,,031,11,2025-01-07_14h30.32.631,Surprise recog test,2023.1.3,59.95153517896237,
106,0,106,0,,,,,,,,,,,,,,,,,,,,,,,,,,,,,,,,,,259.32547580000005,260.3496014,258.21038569999996,258.21038569999996,258.21038569999996,258.21038569999996,new_stationery_4.png,107,3.0,1.1158653999999615,,031,11,2025-01-07_14h30.32.631,Surprise recog test,2023.1.3,59.95153517896237,
107,0,107,0,,,,,,,,,,,,,,,,,,,,,,,,,,,,,,,,,,261.57374930000003,262.60182139999995,260.3496014,260.3496014,260.3496014,260.3496014,old_stationery_33.png,108,1.0,1.2233654999999999,,031,11,2025-01-07_14h30.32.631,Surprise recog test,2023.1.3,59.95153517896237,
108,0,108,0,,,,,,,,,,,,,,,,,,,,,,,,,,,,,,,,,,263.8661958,264.87237100000004,262.60182139999995,262.60182139999995,262.60182139999995,262.60182139999995,old_stationery_41.png,109,2.0,1.2669752000000472,,031,11,2025-01-07_14h30.32.631,Surprise recog test,2023.1.3,59.95153517896237,
109,0,109,0,,,,,,,,,,,,,,,,,,,,,,,,,,,,,,,,,,266.0617221,267.090593,264.87237100000004,264.87237100000004,264.87237100000004,264.87237100000004,old_stationery_8.png,110,1.0,1.1848766999999611,,031,11,2025-01-07_14h30.32.631,Surprise recog test,2023.1.3,59.95153517896237,
110,0,110,0,,,,,,,,,,,,,,,,,,,,,,,,,,,,,,,,,,268.40498979999995,,267.090593,267.090593,267.090593,267.090593,old_stationery_20.png,111,2.0,1.3178356000000235,,031,11,2025-01-07_14h30.32.631,Surprise recog test,2023.1.3,59.95153517896237,
111,0,111,0,,,,,,,,,,,,,,,,,,,,,,,,,,,,,,,,,,270.61900460000004,271.6289303,269.43387210000003,269.43387210000003,269.43387210000003,269.43387210000003,old_stationery_14.png,112,1.0,1.184261900000024,,031,11,2025-01-07_14h30.32.631,Surprise recog test,2023.1.3,59.95153517896237,
112,0,112,0,,,,,,,,,,,,,,,,,,,,,,,,,,,,,,,,,,272.75978269999996,,271.6289303,271.6289303,271.6289303,271.6289303,new_fruit_30.png,113,1.0,1.1255125000000135,,031,11,2025-01-07_14h30.32.631,Surprise recog test,2023.1.3,59.95153517896237,
113,0,113,0,,,,,,,,,,,,,,,,,,,,,,,,,,,,,,,,,,275.02435219999995,276.04969570000003,273.78798759999995,273.78798759999995,273.78798759999995,273.78798759999995,old_sceneOut_17.png,114,4.0,1.237646400000017,,031,11,2025-01-07_14h30.32.631,Surprise recog test,2023.1.3,59.95153517896237,
114,0,114,0,,,,,,,,,,,,,,,,,,,,,,,,,,,,,,,,,,277.29319999999996,278.31073089999995,276.04969570000003,276.04969570000003,276.04969570000003,276.04969570000003,new_stationery_22.png,115,2.0,1.2420065000000022,,031,11,2025-01-07_14h30.32.631,Surprise recog test,2023.1.3,59.95153517896237,
115,0,115,0,,,,,,,,,,,,,,,,,,,,,,,,,,,,,,,,,,279.2778223,280.29425549999996,278.31073089999995,278.31073089999995,278.31073089999995,278.31073089999995,new_fruit_23.png,116,1.0,0.9692545999999993,,031,11,2025-01-07_14h30.32.631,Surprise recog test,2023.1.3,59.95153517896237,
116,0,116,0,,,,,,,,,,,,,,,,,,,,,,,,,,,,,,,,,,281.4529959,282.478081,280.29425549999996,280.29425549999996,280.29425549999996,280.29425549999996,new_stationery_38.png,117,1.0,1.1588259000000107,,031,11,2025-01-07_14h30.32.631,Surprise recog test,2023.1.3,59.95153517896237,
117,0,117,0,,,,,,,,,,,,,,,,,,,,,,,,,,,,,,,,,,283.30460389999996,284.33278099999995,282.478081,282.478081,282.478081,282.478081,old_sceneIn_44.png,118,4.0,0.8270613000000253,,031,11,2025-01-07_14h30.32.631,Surprise recog test,2023.1.3,59.95153517896237,
118,0,118,0,,,,,,,,,,,,,,,,,,,,,,,,,,,,,,,,,,285.17002920000004,,284.33278099999995,284.33278099999995,284.33278099999995,284.33278099999995,new_sceneIn_20.png,119,4.0,0.8396374000000151,,031,11,2025-01-07_14h30.32.631,Surprise recog test,2023.1.3,59.95153517896237,
119,0,119,0,,,,,,,,,,,,,,,,,,,,,,,,,,,,,,,,,,287.0235556,288.04257259999997,286.2047764,286.2047764,286.2047764,286.2047764,new_sceneOut_27.png,120,4.0,0.8205993000000262,,031,11,2025-01-07_14h30.32.631,Surprise recog test,2023.1.3,59.95153517896237,
120,0,120,0,,,,,,,,,,,,,,,,,,,,,,,,,,,,,,,,,,289.42162559999997,290.42791090000003,288.04257259999997,288.04257259999997,288.04257259999997,288.04257259999997,old_stationery_23.png,121,2.0,1.373066700000038,,031,11,2025-01-07_14h30.32.631,Surprise recog test,2023.1.3,59.95153517896237,
121,0,121,0,,,,,,,,,,,,,,,,,,,,,,,,,,,,,,,,,,291.90781690000006,,290.42791090000003,290.42791090000003,290.42791090000003,290.42791090000003,new_fruit_13.png,122,1.0,1.4755043000000114,,031,11,2025-01-07_14h30.32.631,Surprise recog test,2023.1.3,59.95153517896237,
122,0,122,0,,,,,,,,,,,,,,,,,,,,,,,,,,,,,,,,,,293.8375055,294.86140250000005,292.93114979999996,292.93114979999996,292.93114979999996,292.93114979999996,new_sceneIn_12.png,123,4.0,0.9016783999999802,,031,11,2025-01-07_14h30.32.631,Surprise recog test,2023.1.3,59.95153517896237,
123,0,123,0,,,,,,,,,,,,,,,,,,,,,,,,,,,,,,,,,,295.52833999999996,,294.86140250000005,294.86140250000005,294.86140250000005,294.86140250000005,new_sceneIn_11.png,124,4.0,0.6663009000000102,,031,11,2025-01-07_14h30.32.631,Surprise recog test,2023.1.3,59.95153517896237,
124,0,124,0,,,,,,,,,,,,,,,,,,,,,,,,,,,,,,,,,,297.73446690000003,298.763459,296.5477508,296.5477508,296.5477508,296.5477508,new_sceneOut_35.png,125,4.0,1.181822000000011,,031,11,2025-01-07_14h30.32.631,Surprise recog test,2023.1.3,59.95153517896237,
125,0,125,0,,,,,,,,,,,,,,,,,,,,,,,,,,,,,,,,,,299.6499274,,298.763459,298.763459,298.763459,298.763459,new_sceneIn_15.png,126,4.0,0.8869207000000188,,031,11,2025-01-07_14h30.32.631,Surprise recog test,2023.1.3,59.95153517896237,
126,0,126,0,,,,,,,,,,,,,,,,,,,,,,,,,,,,,,,,,,301.7647574,302.78343040000004,300.6847077,300.6847077,300.6847077,300.6847077,old_fruit_17.png,127,1.0,1.0816351999999938,,031,11,2025-01-07_14h30.32.631,Surprise recog test,2023.1.3,59.95153517896237,
127,0,127,0,,,,,,,,,,,,,,,,,,,,,,,,,,,,,,,,,,303.94073249999997,304.95705339999995,302.78343040000004,302.78343040000004,302.78343040000004,302.78343040000004,new_sceneOut_28.png,128,3.0,1.1584660999999983,,031,11,2025-01-07_14h30.32.631,Surprise recog test,2023.1.3,59.95153517896237,
128,0,128,0,,,,,,,,,,,,,,,,,,,,,,,,,,,,,,,,,,305.96218639999995,306.9903037,304.95705339999995,304.95705339999995,304.95705339999995,304.95705339999995,old_fruit_47.png,129,1.0,0.9994997999999669,,031,11,2025-01-07_14h30.32.631,Surprise recog test,2023.1.3,59.95153517896237,
129,0,129,0,,,,,,,,,,,,,,,,,,,,,,,,,,,,,,,,,,307.86883650000004,308.88811999999996,306.9903037,306.9903037,306.9903037,306.9903037,new_sceneIn_16.png,130,4.0,0.8788519999999949,,031,11,2025-01-07_14h30.32.631,Surprise recog test,2023.1.3,59.95153517896237,
130,0,130,0,,,,,,,,,,,,,,,,,,,,,,,,,,,,,,,,,,309.99972990000003,311.0235989,308.88811999999996,308.88811999999996,308.88811999999996,308.88811999999996,old_fruit_42.png,131,1.0,1.1130622000000017,,031,11,2025-01-07_14h30.32.631,Surprise recog test,2023.1.3,59.95153517896237,
131,0,131,0,,,,,,,,,,,,,,,,,,,,,,,,,,,,,,,,,,311.6290421,312.64723560000004,311.0235989,311.0235989,311.0235989,311.0235989,old_fruit_4.png,132,1.0,0.6050506000000269,,031,11,2025-01-07_14h30.32.631,Surprise recog test,2023.1.3,59.95153517896237,
132,0,132,0,,,,,,,,,,,,,,,,,,,,,,,,,,,,,,,,,,313.7950125,314.8158257,312.64723560000004,312.64723560000004,312.64723560000004,312.64723560000004,new_stationery_20.png,133,2.0,1.142413500000032,,031,11,2025-01-07_14h30.32.631,Surprise recog test,2023.1.3,59.95153517896237,
133,0,133,0,,,,,,,,,,,,,,,,,,,,,,,,,,,,,,,,,,315.7679803,316.8009386,314.8158257,314.8158257,314.8158257,314.8158257,old_sceneOut_45.png,134,4.0,0.94803509999997,,031,11,2025-01-07_14h30.32.631,Surprise recog test,2023.1.3,59.95153517896237,
134,0,134,0,,,,,,,,,,,,,,,,,,,,,,,,,,,,,,,,,,317.64908049999997,318.6686456,316.8009386,316.8009386,316.8009386,316.8009386,old_sceneIn_49.png,135,4.0,0.8508854000000383,,031,11,2025-01-07_14h30.32.631,Surprise recog test,2023.1.3,59.95153517896237,
135,0,135,0,,,,,,,,,,,,,,,,,,,,,,,,,,,,,,,,,,319.49245659999997,320.50377560000004,318.6686456,318.6686456,318.6686456,318.6686456,old_sceneIn_11.png,136,4.0,0.8194376999999804,,031,11,2025-01-07_14h30.32.631,Surprise recog test,2023.1.3,59.95153517896237,
136,0,136,0,,,,,,,,,,,,,,,,,,,,,,,,,,,,,,,,,,321.2908823,322.30959659999996,320.50377560000004,320.50377560000004,320.50377560000004,320.50377560000004,new_sceneIn_9.png,137,4.0,0.7827669999999785,,031,11,2025-01-07_14h30.32.631,Surprise recog test,2023.1.3,59.95153517896237,
137,0,137,0,,,,,,,,,,,,,,,,,,,,,,,,,,,,,,,,,,323.0824026,324.08699920000004,322.30959659999996,322.30959659999996,322.30959659999996,322.30959659999996,old_sceneOut_22.png,138,4.0,0.7733931999999868,,031,11,2025-01-07_14h30.32.631,Surprise recog test,2023.1.3,59.95153517896237,
138,0,138,0,,,,,,,,,,,,,,,,,,,,,,,,,,,,,,,,,,324.9357182,,324.08699920000004,324.08699920000004,324.08699920000004,324.08699920000004,new_sceneIn_47.png,139,4.0,0.8442024000000288,,031,11,2025-01-07_14h30.32.631,Surprise recog test,2023.1.3,59.95153517896237,
139,0,139,0,,,,,,,,,,,,,,,,,,,,,,,,,,,,,,,,,,327.2262098,328.24357499999996,325.9577113,325.9577113,325.9577113,325.9577113,old_fruit_22.png,140,2.0,1.2641581000000315,,031,11,2025-01-07_14h30.32.631,Surprise recog test,2023.1.3,59.95153517896237,
140,0,140,0,,,,,,,,,,,,,,,,,,,,,,,,,,,,,,,,,,330.21480369999995,331.2267293,328.24357499999996,328.24357499999996,328.24357499999996,328.24357499999996,new_sceneOut_15.png,141,4.0,1.9676987999999938,,031,11,2025-01-07_14h30.32.631,Surprise recog test,2023.1.3,59.95153517896237,
141,0,141,0,,,,,,,,,,,,,,,,,,,,,,,,,,,,,,,,,,332.6692581,333.68173679999995,331.2267293,331.2267293,331.2267293,331.2267293,new_sceneOut_12.png,142,3.0,1.4390184999999747,,031,11,2025-01-07_14h30.32.631,Surprise recog test,2023.1.3,59.95153517896237,
142,0,142,0,,,,,,,,,,,,,,,,,,,,,,,,,,,,,,,,,,335.0999196,336.1283313,333.68173679999995,333.68173679999995,333.68173679999995,333.68173679999995,old_fruit_48.png,143,2.0,1.4114966999999865,,031,11,2025-01-07_14h30.32.631,Surprise recog test,2023.1.3,59.95153517896237,
143,0,143,0,,,,,,,,,,,,,,,,,,,,,,,,,,,,,,,,,,337.8252413,338.84769559999995,336.1283313,336.1283313,336.1283313,336.1283313,old_sceneOut_24.png,144,3.0,1.6961973000000512,,031,11,2025-01-07_14h30.32.631,Surprise recog test,2023.1.3,59.95153517896237,
144,0,144,0,,,,,,,,,,,,,,,,,,,,,,,,,,,,,,,,,,339.94597650000003,340.96637269999997,338.84769559999995,338.84769559999995,338.84769559999995,338.84769559999995,old_fruit_32.png,145,1.0,1.0993455999999924,,031,11,2025-01-07_14h30.32.631,Surprise recog test,2023.1.3,59.95153517896237,
145,0,145,0,,,,,,,,,,,,,,,,,,,,,,,,,,,,,,,,,,342.0803141,343.10081349999996,340.96637269999997,340.96637269999997,340.96637269999997,340.96637269999997,old_stationery_15.png,146,2.0,1.115173499999969,,031,11,2025-01-07_14h30.32.631,Surprise recog test,2023.1.3,59.95153517896237,
146,0,146,0,,,,,,,,,,,,,,,,,,,,,,,,,,,,,,,,,,344.4890425,345.5205301,343.10081349999996,343.10081349999996,343.10081349999996,343.10081349999996,new_stationery_7.png,147,3.0,1.3891371999999933,,031,11,2025-01-07_14h30.32.631,Surprise recog test,2023.1.3,59.95153517896237,
147,0,147,0,,,,,,,,,,,,,,,,,,,,,,,,,,,,,,,,,,346.97178629999996,,345.5205301,345.5205301,345.5205301,345.5205301,new_fruit_6.png,148,2.0,1.4511496999999736,,031,11,2025-01-07_14h30.32.631,Surprise recog test,2023.1.3,59.95153517896237,
148,0,148,0,,,,,,,,,,,,,,,,,,,,,,,,,,,,,,,,,,349.13652779999995,350.15969210000003,348.0043772,348.0043772,348.0043772,348.0043772,old_fruit_12.png,149,1.0,1.1350014000000215,,031,11,2025-01-07_14h30.32.631,Surprise recog test,2023.1.3,59.95153517896237,
149,0,149,0,,,,,,,,,,,,,,,,,,,,,,,,,,,,,,,,,,351.31390020000003,352.3262376,350.15969210000003,350.15969210000003,350.15969210000003,350.15969210000003,new_fruit_44.png,150,1.0,1.1576909999999998,,031,11,2025-01-07_14h30.32.631,Surprise recog test,2023.1.3,59.95153517896237,
150,0,150,0,,,,,,,,,,,,,,,,,,,,,,,,,,,,,,,,,,353.77856770000005,354.80598139999995,352.3262376,352.3262376,352.3262376,352.3262376,new_fruit_32.png,151,3.0,1.448034199999995,,031,11,2025-01-07_14h30.32.631,Surprise recog test,2023.1.3,59.95153517896237,
151,0,151,0,,,,,,,,,,,,,,,,,,,,,,,,,,,,,,,,,,355.9008282,356.9232101,354.80598139999995,354.80598139999995,354.80598139999995,354.80598139999995,new_sceneIn_43.png,152,4.0,1.0943346999999903,,031,11,2025-01-07_14h30.32.631,Surprise recog test,2023.1.3,59.95153517896237,
152,0,152,0,,,,,,,,,,,,,,,,,,,,,,,,,,,,,,,,,,358.51726510000003,359.54177760000005,356.9232101,356.9232101,356.9232101,356.9232101,old_stationery_6.png,153,2.0,1.593923000000018,,031,11,2025-01-07_14h30.32.631,Surprise recog test,2023.1.3,59.95153517896237,
153,0,153,0,,,,,,,,,,,,,,,,,,,,,,,,,,,,,,,,,,360.4897661,361.5116068,359.54177760000005,359.54177760000005,359.54177760000005,359.54177760000005,new_sceneOut_39.png,154,4.0,0.9482471000000032,,031,11,2025-01-07_14h30.32.631,Surprise recog test,2023.1.3,59.95153517896237,
154,0,154,0,,,,,,,,,,,,,,,,,,,,,,,,,,,,,,,,,,362.62984000000006,363.6420968,361.5116068,361.5116068,361.5116068,361.5116068,old_fruit_23.png,155,1.0,1.1134271999999896,,031,11,2025-01-07_14h30.32.631,Surprise recog test,2023.1.3,59.95153517896237,
155,0,155,0,,,,,,,,,,,,,,,,,,,,,,,,,,,,,,,,,,364.73756290000006,365.77187779999997,363.6420968,363.6420968,363.6420968,363.6420968,new_sceneIn_46.png,156,3.0,1.0946356999999693,,031,11,2025-01-07_14h30.32.631,Surprise recog test,2023.1.3,59.95153517896237,
156,0,156,0,,,,,,,,,,,,,,,,,,,,,,,,,,,,,,,,,,367.1555648,,365.77187779999997,365.77187779999997,365.77187779999997,365.77187779999997,old_sceneOut_38.png,157,3.0,1.385911300000032,,031,11,2025-01-07_14h30.32.631,Surprise recog test,2023.1.3,59.95153517896237,
157,0,157,0,,,,,,,,,,,,,,,,,,,,,,,,,,,,,,,,,,370.16119419999995,371.1943139,368.18813339999997,368.18813339999997,368.18813339999997,368.18813339999997,old_sceneOut_33.png,158,3.0,1.9756550999999831,,031,11,2025-01-07_14h30.32.631,Surprise recog test,2023.1.3,59.95153517896237,
158,0,158,0,,,,,,,,,,,,,,,,,,,,,,,,,,,,,,,,,,372.4331465,373.4460676,371.1943139,371.1943139,371.1943139,371.1943139,old_sceneOut_1.png,159,4.0,1.2405822000000057,,031,11,2025-01-07_14h30.32.631,Surprise recog test,2023.1.3,59.95153517896237,
159,0,159,0,,,,,,,,,,,,,,,,,,,,,,,,,,,,,,,,,,374.7688452,375.7997136,373.4460676,373.4460676,373.4460676,373.4460676,new_fruit_42.png,160,2.0,1.318364900000006,,031,11,2025-01-07_14h30.32.631,Surprise recog test,2023.1.3,59.95153517896237,
160,0,160,0,,,,,,,,,,,,,,,,,,,,,,,,,,,,,,,,,,377.56015620000005,378.56827699999997,375.7997136,375.7997136,375.7997136,375.7997136,new_stationery_32.png,161,2.0,1.7588084000000208,,031,11,2025-01-07_14h30.32.631,Surprise recog test,2023.1.3,59.95153517896237,
161,0,161,0,,,,,,,,,,,,,,,,,,,,,,,,,,,,,,,,,,379.6651809,,378.56827699999997,378.56827699999997,378.56827699999997,378.56827699999997,old_sceneOut_27.png,162,4.0,1.0936872999999991,,031,11,2025-01-07_14h30.32.631,Surprise recog test,2023.1.3,59.95153517896237,
162,0,162,0,,,,,,,,,,,,,,,,,,,,,,,,,,,,,,,,,,381.6347972,,380.6986091,380.6986091,380.6986091,380.6986091,new_sceneIn_41.png,163,4.0,0.9378495999999927,,031,11,2025-01-07_14h30.32.631,Surprise recog test,2023.1.3,59.95153517896237,
163,0,163,0,,,,,,,,,,,,,,,,,,,,,,,,,,,,,,,,,,383.99859060000006,385.0065707,382.6709726,382.6709726,382.6709726,382.6709726,new_fruit_37.png,164,1.0,1.331476699999996,,031,11,2025-01-07_14h30.32.631,Surprise recog test,2023.1.3,59.95153517896237,
164,0,164,0,,,,,,,,,,,,,,,,,,,,,,,,,,,,,,,,,,386.6690847,387.67425979999996,385.0065707,385.0065707,385.0065707,385.0065707,new_sceneIn_37.png,165,3.0,1.656983299999979,,031,11,2025-01-07_14h30.32.631,Surprise recog test,2023.1.3,59.95153517896237,
165,0,165,0,,,,,,,,,,,,,,,,,,,,,,,,,,,,,,,,,,388.60380139999995,389.6266322,387.67425979999996,387.67425979999996,387.67425979999996,387.67425979999996,old_sceneIn_48.png,166,4.0,0.9224750000000199,,031,11,2025-01-07_14h30.32.631,Surprise recog test,2023.1.3,59.95153517896237,
166,0,166,0,,,,,,,,,,,,,,,,,,,,,,,,,,,,,,,,,,391.43084009999995,392.44534450000003,389.6266322,389.6266322,389.6266322,389.6266322,new_sceneOut_23.png,167,4.0,1.8044072000000142,,031,11,2025-01-07_14h30.32.631,Surprise recog test,2023.1.3,59.95153517896237,
167,0,167,0,,,,,,,,,,,,,,,,,,,,,,,,,,,,,,,,,,393.82723699999997,,392.44534450000003,392.44534450000003,392.44534450000003,392.44534450000003,new_stationery_39.png,168,2.0,1.3766167999999652,,031,11,2025-01-07_14h30.32.631,Surprise recog test,2023.1.3,59.95153517896237,
168,0,168,0,,,,,,,,,,,,,,,,,,,,,,,,,,,,,,,,,,395.8734678999999,396.8925633,394.8584314,394.8584314,394.8584314,394.8584314,new_fruit_21.png,169,1.0,1.0167857999999796,,031,11,2025-01-07_14h30.32.631,Surprise recog test,2023.1.3,59.95153517896237,
169,0,169,0,,,,,,,,,,,,,,,,,,,,,,,,,,,,,,,,,,398.62050309999995,399.64392499999997,396.8925633,396.8925633,396.8925633,396.8925633,new_stationery_42.png,170,1.0,1.7288469000000077,,031,11,2025-01-07_14h30.32.631,Surprise recog test,2023.1.3,59.95153517896237,
170,0,170,0,,,,,,,,,,,,,,,,,,,,,,,,,,,,,,,,,,401.9565262,402.9843221,399.64392499999997,399.64392499999997,399.64392499999997,399.64392499999997,new_sceneIn_33.png,171,2.0,2.3131088999999747,,031,11,2025-01-07_14h30.32.631,Surprise recog test,2023.1.3,59.95153517896237,
171,0,171,0,,,,,,,,,,,,,,,,,,,,,,,,,,,,,,,,,,404.2032021,,402.9843221,402.9843221,402.9843221,402.9843221,new_sceneIn_48.png,172,4.0,1.2201305999999477,,031,11,2025-01-07_14h30.32.631,Surprise recog test,2023.1.3,59.95153517896237,
172,0,172,0,,,,,,,,,,,,,,,,,,,,,,,,,,,,,,,,,,407.02614399999993,408.0421914,405.2370559,405.2370559,405.2370559,405.2370559,old_sceneIn_43.png,173,3.0,1.79145010000002,,031,11,2025-01-07_14h30.32.631,Surprise recog test,2023.1.3,59.95153517896237,
173,0,173,0,,,,,,,,,,,,,,,,,,,,,,,,,,,,,,,,,,409.2548585999999,410.2695794,408.0421914,408.0421914,408.0421914,408.0421914,new_stationery_34.png,174,1.0,1.2063008000000082,,031,11,2025-01-07_14h30.32.631,Surprise recog test,2023.1.3,59.95153517896237,
174,0,174,0,,,,,,,,,,,,,,,,,,,,,,,,,,,,,,,,,,412.31272519999993,413.3435525,410.2695794,410.2695794,410.2695794,410.2695794,new_sceneOut_26.png,175,2.0,2.0443822000000864,,031,11,2025-01-07_14h30.32.631,Surprise recog test,2023.1.3,59.95153517896237,
175,0,175,0,,,,,,,,,,,,,,,,,,,,,,,,,,,,,,,,,,415.37168929999996,416.39470659999995,413.3435525,413.3435525,413.3435525,413.3435525,new_sceneOut_6.png,176,4.0,2.0296824000000697,,031,11,2025-01-07_14h30.32.631,Surprise recog test,2023.1.3,59.95153517896237,
176,0,176,0,,,,,,,,,,,,,,,,,,,,,,,,,,,,,,,,,,417.3372032,418.3646426,416.39470659999995,416.39470659999995,416.39470659999995,416.39470659999995,new_stationery_10.png,177,3.0,0.9452165999999806,,031,11,2025-01-07_14h30.32.631,Surprise recog test,2023.1.3,59.95153517896237,
177,0,177,0,,,,,,,,,,,,,,,,,,,,,,,,,,,,,,,,,,419.56833859999995,420.59895240000003,418.3646426,418.3646426,418.3646426,418.3646426,new_fruit_12.png,178,1.0,1.2046640000000934,,031,11,2025-01-07_14h30.32.631,Surprise recog test,2023.1.3,59.95153517896237,
178,0,178,0,,,,,,,,,,,,,,,,,,,,,,,,,,,,,,,,,,421.6982487,422.7049925,420.59895240000003,420.59895240000003,420.59895240000003,420.59895240000003,new_stationery_21.png,179,1.0,1.1012517000000344,,031,11,2025-01-07_14h30.32.631,Surprise recog test,2023.1.3,59.95153517896237,
179,0,179,0,,,,,,,,,,,,,,,,,,,,,,,,,,,,,,,,,,424.0220325,425.04863679999994,422.7049925,422.7049925,422.7049925,422.7049925,new_sceneIn_5.png,180,3.0,1.3146242999999913,,031,11,2025-01-07_14h30.32.631,Surprise recog test,2023.1.3,59.95153517896237,
180,0,180,0,,,,,,,,,,,,,,,,,,,,,,,,,,,,,,,,,,426.8218595999999,,425.04863679999994,425.04863679999994,425.04863679999994,425.04863679999994,old_sceneOut_8.png,181,3.0,1.7716497999999774,,031,11,2025-01-07_14h30.32.631,Surprise recog test,2023.1.3,59.95153517896237,
181,0,181,0,,,,,,,,,,,,,,,,,,,,,,,,,,,,,,,,,,429.4029072999999,430.4197821,427.843258,427.843258,427.843258,427.843258,old_sceneIn_35.png,182,4.0,1.5553223000000571,,031,11,2025-01-07_14h30.32.631,Surprise recog test,2023.1.3,59.95153517896237,
182,0,182,0,,,,,,,,,,,,,,,,,,,,,,,,,,,,,,,,,,431.4644962,432.4902935,430.4197821,430.4197821,430.4197821,430.4197821,new_stationery_12.png,183,1.0,1.042554999999993,,031,11,2025-01-07_14h30.32.631,Surprise recog test,2023.1.3,59.95153517896237,
183,0,183,0,,,,,,,,,,,,,,,,,,,,,,,,,,,,,,,,,,433.45490299999994,434.4813018,432.4902935,432.4902935,432.4902935,432.4902935,old_fruit_19.png,184,2.0,0.9643879000000197,,031,11,2025-01-07_14h30.32.631,Surprise recog test,2023.1.3,59.95153517896237,
184,0,184,0,,,,,,,,,,,,,,,,,,,,,,,,,,,,,,,,,,435.2496546,436.28076609999994,434.4813018,434.4813018,434.4813018,434.4813018,old_fruit_31.png,185,1.0,0.7727946999999631,,031,11,2025-01-07_14h30.32.631,Surprise recog test,2023.1.3,59.95153517896237,
185,0,185,0,,,,,,,,,,,,,,,,,,,,,,,,,,,,,,,,,,437.8041334999999,438.8265044,436.28076609999994,436.28076609999994,436.28076609999994,436.28076609999994,new_sceneIn_27.png,186,3.0,1.526158500000065,,031,11,2025-01-07_14h30.32.631,Surprise recog test,2023.1.3,59.95153517896237,
186,0,186,0,,,,,,,,,,,,,,,,,,,,,,,,,,,,,,,,,,439.730231,440.73274119999996,438.8265044,438.8265044,438.8265044,438.8265044,old_sceneIn_17.png,187,4.0,0.9053834999999708,,031,11,2025-01-07_14h30.32.631,Surprise recog test,2023.1.3,59.95153517896237,
187,0,187,0,,,,,,,,,,,,,,,,,,,,,,,,,,,,,,,,,,441.7456387,442.7546664,440.73274119999996,440.73274119999996,440.73274119999996,440.73274119999996,old_stationery_48.png,188,1.0,1.0075916999999208,,031,11,2025-01-07_14h30.32.631,Surprise recog test,2023.1.3,59.95153517896237,
188,0,188,0,,,,,,,,,,,,,,,,,,,,,,,,,,,,,,,,,,444.1989204,445.2250286,442.7546664,442.7546664,442.7546664,442.7546664,old_stationery_44.png,189,2.0,1.4387859000000844,,031,11,2025-01-07_14h30.32.631,Surprise recog test,2023.1.3,59.95153517896237,
189,0,189,0,,,,,,,,,,,,,,,,,,,,,,,,,,,,,,,,,,446.8851217,447.9061904,445.2250286,445.2250286,445.2250286,445.2250286,old_sceneOut_25.png,190,2.0,1.6622978999999987,,031,11,2025-01-07_14h30.32.631,Surprise recog test,2023.1.3,59.95153517896237,
190,0,190,0,,,,,,,,,,,,,,,,,,,,,,,,,,,,,,,,,,448.98743509999997,449.99074269999994,447.9061904,447.9061904,447.9061904,447.9061904,new_sceneOut_37.png,191,4.0,1.0821942000000035,,031,11,2025-01-07_14h30.32.631,Surprise recog test,2023.1.3,59.95153517896237,
191,0,191,0,,,,,,,,,,,,,,,,,,,,,,,,,,,,,,,,,,451.3801046,452.3999063,449.99074269999994,449.99074269999994,449.99074269999994,449.99074269999994,new_stationery_41.png,192,3.0,1.3828628999999637,,031,11,2025-01-07_14h30.32.631,Surprise recog test,2023.1.3,59.95153517896237,
192,0,192,0,,,,,,,,,,,,,,,,,,,,,,,,,,,,,,,,,,453.5607361,,452.3999063,452.3999063,452.3999063,452.3999063,new_stationery_13.png,193,1.0,1.160590500000012,,031,11,2025-01-07_14h30.32.631,Surprise recog test,2023.1.3,59.95153517896237,
193,0,193,0,,,,,,,,,,,,,,,,,,,,,,,,,,,,,,,,,,455.5834135,456.5981886999999,454.58681219999994,454.58681219999994,454.58681219999994,454.58681219999994,old_sceneOut_4.png,194,4.0,0.9923396000000366,,031,11,2025-01-07_14h30.32.631,Surprise recog test,2023.1.3,59.95153517896237,
194,0,194,0,,,,,,,,,,,,,,,,,,,,,,,,,,,,,,,,,,458.4327971,459.468029,456.5981886999999,456.5981886999999,456.5981886999999,456.5981886999999,old_fruit_39.png,195,2.0,1.8291865999999573,,031,11,2025-01-07_14h30.32.631,Surprise recog test,2023.1.3,59.95153517896237,
195,0,195,0,,,,,,,,,,,,,,,,,,,,,,,,,,,,,,,,,,460.5365444,461.5597722,459.468029,459.468029,459.468029,459.468029,new_sceneIn_44.png,196,4.0,1.0686415000000125,,031,11,2025-01-07_14h30.32.631,Surprise recog test,2023.1.3,59.95153517896237,
196,0,196,0,,,,,,,,,,,,,,,,,,,,,,,,,,,,,,,,,,462.2485412,463.26269,461.5597722,461.5597722,461.5597722,461.5597722,old_sceneIn_41.png,197,4.0,0.6873108999999431,,031,11,2025-01-07_14h30.32.631,Surprise recog test,2023.1.3,59.95153517896237,
197,0,197,0,,,,,,,,,,,,,,,,,,,,,,,,,,,,,,,,,,464.47502969999994,465.4997505,463.26269,463.26269,463.26269,463.26269,old_sceneOut_26.png,198,3.0,1.2116573000000699,,031,11,2025-01-07_14h30.32.631,Surprise recog test,2023.1.3,59.95153517896237,
198,0,198,0,,,,,,,,,,,,,,,,,,,,,,,,,,,,,,,,,,466.98522879999996,468.0107035,465.4997505,465.4997505,465.4997505,465.4997505,new_sceneOut_17.png,199,3.0,1.4872298999999884,,031,11,2025-01-07_14h30.32.631,Surprise recog test,2023.1.3,59.95153517896237,
199,0,199,0,,,,,,,,,,,,,,,,,,,,,,,,,,,,,,,,,,469.08321809999995,470.1063457,468.0107035,468.0107035,468.0107035,468.0107035,new_fruit_19.png,200,2.0,1.0755353000000696,,031,11,2025-01-07_14h30.32.631,Surprise recog test,2023.1.3,59.95153517896237,
200,0,200,0,,,,,,,,,,,,,,,,,,,,,,,,,,,,,,,,,,471.0083092,,470.1063457,470.1063457,470.1063457,470.1063457,new_fruit_47.png,201,1.0,0.9048463000000311,,031,11,2025-01-07_14h30.32.631,Surprise recog test,2023.1.3,59.95153517896237,
201,0,201,0,,,,,,,,,,,,,,,,,,,,,,,,,,,,,,,,,,473.19617619999997,474.22725849999995,472.03659789999995,472.03659789999995,472.03659789999995,472.03659789999995,old_sceneOut_3.png,202,4.0,1.159789700000033,,031,11,2025-01-07_14h30.32.631,Surprise recog test,2023.1.3,59.95153517896237,
202,0,202,0,,,,,,,,,,,,,,,,,,,,,,,,,,,,,,,,,,475.2779736,,474.22725849999995,474.22725849999995,474.22725849999995,474.22725849999995,old_stationery_32.png,203,3.0,1.0492185000000518,,031,11,2025-01-07_14h30.32.631,Surprise recog test,2023.1.3,59.95153517896237,
203,0,203,0,,,,,,,,,,,,,,,,,,,,,,,,,,,,,,,,,,477.17246939999995,478.18432069999994,476.29916649999996,476.29916649999996,476.29916649999996,476.29916649999996,new_sceneIn_30.png,204,4.0,0.8686459000000468,,031,11,2025-01-07_14h30.32.631,Surprise recog test,2023.1.3,59.95153517896237,
204,0,204,0,,,,,,,,,,,,,,,,,,,,,,,,,,,,,,,,,,479.82003199999997,480.8374536,478.18432069999994,478.18432069999994,478.18432069999994,478.18432069999994,new_fruit_24.png,205,3.0,1.6303889000000709,,031,11,2025-01-07_14h30.32.631,Surprise recog test,2023.1.3,59.95153517896237,
205,0,205,0,,,,,,,,,,,,,,,,,,,,,,,,,,,,,,,,,,481.64981969999997,,480.8374536,480.8374536,480.8374536,480.8374536,old_sceneIn_15.png,206,4.0,0.8081270999999788,,031,11,2025-01-07_14h30.32.631,Surprise recog test,2023.1.3,59.95153517896237,
206,0,206,0,,,,,,,,,,,,,,,,,,,,,,,,,,,,,,,,,,483.7653332,484.7846478,482.68002119999994,482.68002119999994,482.68002119999994,482.68002119999994,new_fruit_46.png,207,2.0,1.085023500000034,,031,11,2025-01-07_14h30.32.631,Surprise recog test,2023.1.3,59.95153517896237,
207,0,207,0,,,,,,,,,,,,,,,,,,,,,,,,,,,,,,,,,,486.8156594999999,487.8264259,484.7846478,484.7846478,484.7846478,484.7846478,old_stationery_25.png,208,2.0,2.0313024000000723,,031,11,2025-01-07_14h30.32.631,Surprise recog test,2023.1.3,59.95153517896237,
208,0,208,0,,,,,,,,,,,,,,,,,,,,,,,,,,,,,,,,,,489.55021179999994,490.56239129999994,487.8264259,487.8264259,487.8264259,487.8264259,new_sceneIn_1.png,209,4.0,1.7168029000000615,,031,11,2025-01-07_14h30.32.631,Surprise recog test,2023.1.3,59.95153517896237,
209,0,209,0,,,,,,,,,,,,,,,,,,,,,,,,,,,,,,,,,,492.14243,,490.56239129999994,490.56239129999994,490.56239129999994,490.56239129999994,new_stationery_24.png,210,3.0,1.5763106000000562,,031,11,2025-01-07_14h30.32.631,Surprise recog test,2023.1.3,59.95153517896237,
210,0,210,0,,,,,,,,,,,,,,,,,,,,,,,,,,,,,,,,,,494.27832219999993,,493.169675,493.169675,493.169675,493.169675,old_stationery_35.png,211,2.0,1.108453499999996,,031,11,2025-01-07_14h30.32.631,Surprise recog test,2023.1.3,59.95153517896237,
211,0,211,0,,,,,,,,,,,,,,,,,,,,,,,,,,,,,,,,,,496.3256298,497.3458370999999,495.3163472,495.3163472,495.3163472,495.3163472,old_sceneIn_18.png,212,4.0,1.0063334999999825,,031,11,2025-01-07_14h30.32.631,Surprise recog test,2023.1.3,59.95153517896237,
212,0,212,0,,,,,,,,,,,,,,,,,,,,,,,,,,,,,,,,,,498.5618617,499.5833877,497.3458370999999,497.3458370999999,497.3458370999999,497.3458370999999,new_fruit_3.png,213,1.0,1.2159391999999798,,031,11,2025-01-07_14h30.32.631,Surprise recog test,2023.1.3,59.95153517896237,
213,0,213,0,,,,,,,,,,,,,,,,,,,,,,,,,,,,,,,,,,500.8891654,501.91543079999997,499.5833877,499.5833877,499.5833877,499.5833877,new_stationery_15.png,214,3.0,1.304610499999967,,031,11,2025-01-07_14h30.32.631,Surprise recog test,2023.1.3,59.95153517896237,
214,0,214,0,,,,,,,,,,,,,,,,,,,,,,,,,,,,,,,,,,502.88182459999996,503.9024107,501.91543079999997,501.91543079999997,501.91543079999997,501.91543079999997,old_fruit_1.png,215,2.0,0.9676085999999486,,031,11,2025-01-07_14h30.32.631,Surprise recog test,2023.1.3,59.95153517896237,
215,0,215,0,,,,,,,,,,,,,,,,,,,,,,,,,,,,,,,,,,504.9426294,505.9666191,503.9024107,503.9024107,503.9024107,503.9024107,old_sceneOut_44.png,216,4.0,1.041643399999998,,031,11,2025-01-07_14h30.32.631,Surprise recog test,2023.1.3,59.95153517896237,
216,0,216,0,,,,,,,,,,,,,,,,,,,,,,,,,,,,,,,,,,507.5590608,508.58638169999995,505.9666191,505.9666191,505.9666191,505.9666191,new_stationery_46.png,217,2.0,1.5941795999999613,,031,11,2025-01-07_14h30.32.631,Surprise recog test,2023.1.3,59.95153517896237,
217,0,217,0,,,,,,,,,,,,,,,,,,,,,,,,,,,,,,,,,,510.10031879999997,511.11978279999994,508.58638169999995,508.58638169999995,508.58638169999995,508.58638169999995,old_sceneOut_30.png,218,4.0,1.513730599999917,,031,11,2025-01-07_14h30.32.631,Surprise recog test,2023.1.3,59.95153517896237,
218,0,218,0,,,,,,,,,,,,,,,,,,,,,,,,,,,,,,,,,,512.3223765,513.3388037,511.11978279999994,511.11978279999994,511.11978279999994,511.11978279999994,old_stationery_18.png,219,2.0,1.2032672999999932,,031,11,2025-01-07_14h30.32.631,Surprise recog test,2023.1.3,59.95153517896237,
219,0,219,0,,,,,,,,,,,,,,,,,,,,,,,,,,,,,,,,,,514.5882204,515.6121061,513.3388037,513.3388037,513.3388037,513.3388037,old_sceneOut_46.png,220,3.0,1.2497462999999698,,031,11,2025-01-07_14h30.32.631,Surprise recog test,2023.1.3,59.95153517896237,
220,0,220,0,,,,,,,,,,,,,,,,,,,,,,,,,,,,,,,,,,517.1468955,,515.6121061,515.6121061,515.6121061,515.6121061,new_fruit_20.png,221,3.0,1.5358592000000044,,031,11,2025-01-07_14h30.32.631,Surprise recog test,2023.1.3,59.95153517896237,
221,0,221,0,,,,,,,,,,,,,,,,,,,,,,,,,,,,,,,,,,519.3657701,,518.1810006,518.1810006,518.1810006,518.1810006,old_fruit_34.png,222,1.0,1.1870261999999911,,031,11,2025-01-07_14h30.32.631,Surprise recog test,2023.1.3,59.95153517896237,
222,0,222,0,,,,,,,,,,,,,,,,,,,,,,,,,,,,,,,,,,521.3518299,522.370817,520.3996503,520.3996503,520.3996503,520.3996503,new_sceneIn_22.png,223,4.0,0.9545175000000654,,031,11,2025-01-07_14h30.32.631,Surprise recog test,2023.1.3,59.95153517896237,
223,0,223,0,,,,,,,,,,,,,,,,,,,,,,,,,,,,,,,,,,523.6880414999999,524.7178556,522.370817,522.370817,522.370817,522.370817,old_fruit_33.png,224,1.0,1.3096016000000645,,031,11,2025-01-07_14h30.32.631,Surprise recog test,2023.1.3,59.95153517896237,
224,0,224,0,,,,,,,,,,,,,,,,,,,,,,,,,,,,,,,,,,525.8001767,526.8149758,524.7178556,524.7178556,524.7178556,524.7178556,old_stationery_13.png,225,1.0,1.0811522999999852,,031,11,2025-01-07_14h30.32.631,Surprise recog test,2023.1.3,59.95153517896237,
225,0,225,0,,,,,,,,,,,,,,,,,,,,,,,,,,,,,,,,,,527.9149970999999,528.9265292,526.8149758,526.8149758,526.8149758,526.8149758,old_fruit_24.png,226,1.0,1.099696999999992,,031,11,2025-01-07_14h30.32.631,Surprise recog test,2023.1.3,59.95153517896237,
226,0,226,0,,,,,,,,,,,,,,,,,,,,,,,,,,,,,,,,,,530.1704066,531.1772119999999,528.9265292,528.9265292,528.9265292,528.9265292,old_stationery_21.png,227,2.0,1.2359394000000066,,031,11,2025-01-07_14h30.32.631,Surprise recog test,2023.1.3,59.95153517896237,
227,0,227,0,,,,,,,,,,,,,,,,,,,,,,,,,,,,,,,,,,533.0073744,534.0278472,531.1772119999999,531.1772119999999,531.1772119999999,531.1772119999999,old_sceneIn_31.png,228,3.0,1.8257718999999497,,031,11,2025-01-07_14h30.32.631,Surprise recog test,2023.1.3,59.95153517896237,
228,0,228,0,,,,,,,,,,,,,,,,,,,,,,,,,,,,,,,,,,535.1199845,536.1309447,534.0278472,534.0278472,534.0278472,534.0278472,new_sceneOut_29.png,229,4.0,1.0944286999999804,,031,11,2025-01-07_14h30.32.631,Surprise recog test,2023.1.3,59.95153517896237,
229,0,229,0,,,,,,,,,,,,,,,,,,,,,,,,,,,,,,,,,,537.3225646999999,538.3388719,536.1309447,536.1309447,536.1309447,536.1309447,new_sceneOut_21.png,230,3.0,1.1871207000000368,,031,11,2025-01-07_14h30.32.631,Surprise recog test,2023.1.3,59.95153517896237,
230,0,230,0,,,,,,,,,,,,,,,,,,,,,,,,,,,,,,,,,,539.4928632,540.5147246,538.3388719,538.3388719,538.3388719,538.3388719,new_sceneOut_32.png,231,4.0,1.1529920000000402,,031,11,2025-01-07_14h30.32.631,Surprise recog test,2023.1.3,59.95153517896237,
231,0,231,0,,,,,,,,,,,,,,,,,,,,,,,,,,,,,,,,,,541.847419,542.8608266,540.5147246,540.5147246,540.5147246,540.5147246,old_sceneOut_11.png,232,1.0,1.330378900000028,,031,11,2025-01-07_14h30.32.631,Surprise recog test,2023.1.3,59.95153517896237,
232,0,232,0,,,,,,,,,,,,,,,,,,,,,,,,,,,,,,,,,,544.0843138,,542.8608266,542.8608266,542.8608266,542.8608266,old_sceneOut_40.png,233,2.0,1.2242835999999215,,031,11,2025-01-07_14h30.32.631,Surprise recog test,2023.1.3,59.95153517896237,
233,0,233,0,,,,,,,,,,,,,,,,,,,,,,,,,,,,,,,,,,546.15998,547.1809155999999,545.1178962,545.1178962,545.1178962,545.1178962,old_fruit_27.png,234,1.0,1.0441063000000668,,031,11,2025-01-07_14h30.32.631,Surprise recog test,2023.1.3,59.95153517896237,
234,0,234,0,,,,,,,,,,,,,,,,,,,,,,,,,,,,,,,,,,548.4275736999999,549.4571321999999,547.1809155999999,547.1809155999999,547.1809155999999,547.1809155999999,new_stationery_14.png,235,1.0,1.2469900000000962,,031,11,2025-01-07_14h30.32.631,Surprise recog test,2023.1.3,59.95153517896237,
235,0,235,0,,,,,,,,,,,,,,,,,,,,,,,,,,,,,,,,,,550.7348889,551.7508389999999,549.4571321999999,549.4571321999999,549.4571321999999,549.4571321999999,new_sceneIn_32.png,236,4.0,1.2768588000000136,,031,11,2025-01-07_14h30.32.631,Surprise recog test,2023.1.3,59.95153517896237,
236,0,236,0,,,,,,,,,,,,,,,,,,,,,,,,,,,,,,,,,,552.7181227,553.7459183999999,551.7508389999999,551.7508389999999,551.7508389999999,551.7508389999999,old_fruit_36.png,237,2.0,0.9664586999999756,,031,11,2025-01-07_14h30.32.631,Surprise recog test,2023.1.3,59.95153517896237,
237,0,237,0,,,,,,,,,,,,,,,,,,,,,,,,,,,,,,,,,,555.0741606,556.0906183999999,553.7459183999999,553.7459183999999,553.7459183999999,553.7459183999999,old_stationery_5.png,238,3.0,1.3281793999999536,,031,11,2025-01-07_14h30.32.631,Surprise recog test,2023.1.3,59.95153517896237,
238,0,238,0,,,,,,,,,,,,,,,,,,,,,,,,,,,,,,,,,,557.5344395999999,558.5527647,556.0906183999999,556.0906183999999,556.0906183999999,556.0906183999999,new_stationery_48.png,239,2.0,1.4436514999999872,,031,11,2025-01-07_14h30.32.631,Surprise recog test,2023.1.3,59.95153517896237,
239,0,239,0,,,,,,,,,,,,,,,,,,,,,,,,,,,,,,,,,,559.6135313,,558.5527647,558.5527647,558.5527647,558.5527647,new_fruit_50.png,240,2.0,1.0555625000000646,,031,11,2025-01-07_14h30.32.631,Surprise recog test,2023.1.3,59.95153517896237,
240,0,240,0,,,,,,,,,,,,,,,,,,,,,,,,,,,,,,,,,,561.8879479,562.9240586,560.6347403,560.6347403,560.6347403,560.6347403,new_fruit_27.png,241,1.0,1.2490602999999965,,031,11,2025-01-07_14h30.32.631,Surprise recog test,2023.1.3,59.95153517896237,
241,0,241,0,,,,,,,,,,,,,,,,,,,,,,,,,,,,,,,,,,564.2155855999999,565.2240661,562.9240586,562.9240586,562.9240586,562.9240586,old_sceneOut_15.png,242,4.0,1.2887524999999869,,031,11,2025-01-07_14h30.32.631,Surprise recog test,2023.1.3,59.95153517896237,
242,0,242,0,,,,,,,,,,,,,,,,,,,,,,,,,,,,,,,,,,565.9873533,,565.2240661,565.2240661,565.2240661,565.2240661,old_sceneIn_16.png,243,4.0,0.7592355000000452,,031,11,2025-01-07_14h30.32.631,Surprise recog test,2023.1.3,59.95153517896237,
243,0,243,0,,,,,,,,,,,,,,,,,,,,,,,,,,,,,,,,,,568.243976,569.2564582,567.0077089,567.0077089,567.0077089,567.0077089,old_sceneOut_20.png,244,3.0,1.2319125000000213,,031,11,2025-01-07_14h30.32.631,Surprise recog test,2023.1.3,59.95153517896237,
244,0,244,0,,,,,,,,,,,,,,,,,,,,,,,,,,,,,,,,,,570.5951732,571.6270662,569.2564582,569.2564582,569.2564582,569.2564582,new_stationery_9.png,245,1.0,1.3318894000000228,,031,11,2025-01-07_14h30.32.631,Surprise recog test,2023.1.3,59.95153517896237,
245,0,245,0,,,,,,,,,,,,,,,,,,,,,,,,,,,,,,,,,,573.1196987,574.1450397,571.6270662,571.6270662,571.6270662,571.6270662,new_sceneOut_7.png,246,3.0,1.4934021999999914,,031,11,2025-01-07_14h30.32.631,Surprise recog test,2023.1.3,59.95153517896237,
246,0,246,0,,,,,,,,,,,,,,,,,,,,,,,,,,,,,,,,,,574.9947324999999,,574.1450397,574.1450397,574.1450397,574.1450397,old_sceneOut_19.png,247,4.0,0.8523400999999922,,031,11,2025-01-07_14h30.32.631,Surprise recog test,2023.1.3,59.95153517896237,
247,0,247,0,,,,,,,,,,,,,,,,,,,,,,,,,,,,,,,,,,577.401086,578.4246767999999,576.0157231,576.0157231,576.0157231,576.0157231,new_sceneIn_14.png,248,4.0,1.382021399999985,,031,11,2025-01-07_14h30.32.631,Surprise recog test,2023.1.3,59.95153517896237,
248,0,248,0,,,,,,,,,,,,,,,,,,,,,,,,,,,,,,,,,,579.203478,580.2343207,578.4246767999999,578.4246767999999,578.4246767999999,578.4246767999999,old_sceneOut_37.png,249,4.0,0.7796468000000232,,031,11,2025-01-07_14h30.32.631,Surprise recog test,2023.1.3,59.95153517896237,
249,0,249,0,,,,,,,,,,,,,,,,,,,,,,,,,,,,,,,,,,581.4215018,582.4440695999999,580.2343207,580.2343207,580.2343207,580.2343207,old_fruit_21.png,250,1.0,1.1892425999999432,,031,11,2025-01-07_14h30.32.631,Surprise recog test,2023.1.3,59.95153517896237,
250,0,250,0,,,,,,,,,,,,,,,,,,,,,,,,,,,,,,,,,,583.3860339,584.4085468,582.4440695999999,582.4440695999999,582.4440695999999,582.4440695999999,new_sceneIn_24.png,251,4.0,0.94244290000006,,031,11,2025-01-07_14h30.32.631,Surprise recog test,2023.1.3,59.95153517896237,
251,0,251,0,,,,,,,,,,,,,,,,,,,,,,,,,,,,,,,,,,585.505281,586.5341768999999,584.4085468,584.4085468,584.4085468,584.4085468,old_sceneIn_46.png,252,4.0,1.0932657999999265,,031,11,2025-01-07_14h30.32.631,Surprise recog test,2023.1.3,59.95153517896237,
252,0,252,0,,,,,,,,,,,,,,,,,,,,,,,,,,,,,,,,,,588.5690844,589.5841961,586.5341768999999,586.5341768999999,586.5341768999999,586.5341768999999,new_fruit_26.png,253,3.0,2.0277892000000293,,031,11,2025-01-07_14h30.32.631,Surprise recog test,2023.1.3,59.95153517896237,
253,0,253,0,,,,,,,,,,,,,,,,,,,,,,,,,,,,,,,,,,590.8348809,591.8603846999999,589.5841961,589.5841961,589.5841961,589.5841961,old_fruit_40.png,254,1.0,1.2485606999999845,,031,11,2025-01-07_14h30.32.631,Surprise recog test,2023.1.3,59.95153517896237,
254,0,254,0,,,,,,,,,,,,,,,,,,,,,,,,,,,,,,,,,,592.9769008,,591.8603846999999,591.8603846999999,591.8603846999999,591.8603846999999,old_sceneIn_29.png,255,4.0,1.120119999999929,,031,11,2025-01-07_14h30.32.631,Surprise recog test,2023.1.3,59.95153517896237,
255,0,255,0,,,,,,,,,,,,,,,,,,,,,,,,,,,,,,,,,,595.0859954,596.1131743,594.0087506,594.0087506,594.0087506,594.0087506,old_sceneIn_24.png,256,4.0,1.0787198000000444,,031,11,2025-01-07_14h30.32.631,Surprise recog test,2023.1.3,59.95153517896237,
256,0,256,0,,,,,,,,,,,,,,,,,,,,,,,,,,,,,,,,,,597.1766188,598.1989004999999,596.1131743,596.1131743,596.1131743,596.1131743,old_fruit_35.png,257,1.0,1.0641440000000557,,031,11,2025-01-07_14h30.32.631,Surprise recog test,2023.1.3,59.95153517896237,
257,0,257,0,,,,,,,,,,,,,,,,,,,,,,,,,,,,,,,,,,599.1281144999999,600.1473662,598.1989004999999,598.1989004999999,598.1989004999999,598.1989004999999,old_sceneOut_2.png,258,4.0,0.927411300000017,,031,11,2025-01-07_14h30.32.631,Surprise recog test,2023.1.3,59.95153517896237,
258,0,258,0,,,,,,,,,,,,,,,,,,,,,,,,,,,,,,,,,,601.0191328,602.0425121,600.1473662,600.1473662,600.1473662,600.1473662,old_fruit_50.png,259,1.0,0.8720667000000049,,031,11,2025-01-07_14h30.32.631,Surprise recog test,2023.1.3,59.95153517896237,
259,0,259,0,,,,,,,,,,,,,,,,,,,,,,,,,,,,,,,,,,602.9632753,603.9863118,602.0425121,602.0425121,602.0425121,602.0425121,new_stationery_50.png,260,3.0,0.9207170999999335,,031,11,2025-01-07_14h30.32.631,Surprise recog test,2023.1.3,59.95153517896237,
260,0,260,0,,,,,,,,,,,,,,,,,,,,,,,,,,,,,,,,,,604.774944,605.7984295,603.9863118,603.9863118,603.9863118,603.9863118,new_sceneOut_2.png,261,4.0,0.7910871999999927,,031,11,2025-01-07_14h30.32.631,Surprise recog test,2023.1.3,59.95153517896237,
261,0,261,0,,,,,,,,,,,,,,,,,,,,,,,,,,,,,,,,,,607.2113218,608.2334019,605.7984295,605.7984295,605.7984295,605.7984295,new_fruit_11.png,262,2.0,1.4111238000000412,,031,11,2025-01-07_14h30.32.631,Surprise recog test,2023.1.3,59.95153517896237,
262,0,262,0,,,,,,,,,,,,,,,,,,,,,,,,,,,,,,,,,,609.1919495999999,610.2238778,608.2334019,608.2334019,608.2334019,608.2334019,old_stationery_47.png,263,1.0,0.9581112999999277,,031,11,2025-01-07_14h30.32.631,Surprise recog test,2023.1.3,59.95153517896237,
263,0,263,0,,,,,,,,,,,,,,,,,,,,,,,,,,,,,,,,,,611.9161997,612.930042,610.2238778,610.2238778,610.2238778,610.2238778,old_sceneOut_41.png,264,3.0,1.6932030000000395,,031,11,2025-01-07_14h30.32.631,Surprise recog test,2023.1.3,59.95153517896237,
264,0,264,0,,,,,,,,,,,,,,,,,,,,,,,,,,,,,,,,,,613.9556094999999,614.9638685,612.930042,612.930042,612.930042,612.930042,old_stationery_39.png,265,2.0,1.02028370000005,,031,11,2025-01-07_14h30.32.631,Surprise recog test,2023.1.3,59.95153517896237,
265,0,265,0,,,,,,,,,,,,,,,,,,,,,,,,,,,,,,,,,,616.4757645999999,617.4947546999999,614.9638685,614.9638685,614.9638685,614.9638685,new_fruit_1.png,266,3.0,1.5047409999999672,,031,11,2025-01-07_14h30.32.631,Surprise recog test,2023.1.3,59.95153517896237,
266,0,266,0,,,,,,,,,,,,,,,,,,,,,,,,,,,,,,,,,,619.6161965,,617.4947546999999,617.4947546999999,617.4947546999999,617.4947546999999,new_fruit_16.png,267,4.0,2.122787399999993,,031,11,2025-01-07_14h30.32.631,Surprise recog test,2023.1.3,59.95153517896237,
267,0,267,0,,,,,,,,,,,,,,,,,,,,,,,,,,,,,,,,,,622.0727787999999,623.0996149,620.6489523,620.6489523,620.6489523,620.6489523,old_sceneIn_32.png,268,4.0,1.4265500000000202,,031,11,2025-01-07_14h30.32.631,Surprise recog test,2023.1.3,59.95153517896237,
268,0,268,0,,,,,,,,,,,,,,,,,,,,,,,,,,,,,,,,,,624.3828808999999,625.3911332,623.0996149,623.0996149,623.0996149,623.0996149,new_stationery_28.png,269,1.0,1.2844572999999855,,031,11,2025-01-07_14h30.32.631,Surprise recog test,2023.1.3,59.95153517896237,
269,0,269,0,,,,,,,,,,,,,,,,,,,,,,,,,,,,,,,,,,626.4594756,627.4793426,625.3911332,625.3911332,625.3911332,625.3911332,new_sceneOut_18.png,270,4.0,1.0637009000000717,,031,11,2025-01-07_14h30.32.631,Surprise recog test,2023.1.3,59.95153517896237,
270,0,270,0,,,,,,,,,,,,,,,,,,,,,,,,,,,,,,,,,,628.9211584,629.9372979999999,627.4793426,627.4793426,627.4793426,627.4793426,new_fruit_2.png,271,3.0,1.4404038999999784,,031,11,2025-01-07_14h30.32.631,Surprise recog test,2023.1.3,59.95153517896237,
271,0,271,0,,,,,,,,,,,,,,,,,,,,,,,,,,,,,,,,,,631.5086517,,629.9372979999999,629.9372979999999,629.9372979999999,629.9372979999999,old_stationery_22.png,272,3.0,1.5729371999999557,,031,11,2025-01-07_14h30.32.631,Surprise recog test,2023.1.3,59.95153517896237,
272,0,272,0,,,,,,,,,,,,,,,,,,,,,,,,,,,,,,,,,,633.8857684999999,634.9088092,632.5286054,632.5286054,632.5286054,632.5286054,new_fruit_48.png,273,2.0,1.352815200000009,,031,11,2025-01-07_14h30.32.631,Surprise recog test,2023.1.3,59.95153517896237,
273,0,273,0,,,,,,,,,,,,,,,,,,,,,,,,,,,,,,,,,,636.4854226,637.5126453,634.9088092,634.9088092,634.9088092,634.9088092,new_sceneOut_11.png,274,4.0,1.5749045000000024,,031,11,2025-01-07_14h30.32.631,Surprise recog test,2023.1.3,59.95153517896237,
274,0,274,0,,,,,,,,,,,,,,,,,,,,,,,,,,,,,,,,,,638.2230959999999,639.2428719,637.5126453,637.5126453,637.5126453,637.5126453,new_sceneIn_3.png,275,4.0,0.7135025000000041,,031,11,2025-01-07_14h30.32.631,Surprise recog test,2023.1.3,59.95153517896237,
275,0,275,0,,,,,,,,,,,,,,,,,,,,,,,,,,,,,,,,,,640.0232304,641.0414825,639.2428719,639.2428719,639.2428719,639.2428719,old_sceneOut_35.png,276,4.0,0.7807457000000113,,031,11,2025-01-07_14h30.32.631,Surprise recog test,2023.1.3,59.95153517896237,
276,0,276,0,,,,,,,,,,,,,,,,,,,,,,,,,,,,,,,,,,642.0381718,643.0626358999999,641.0414825,641.0414825,641.0414825,641.0414825,new_fruit_25.png,277,2.0,0.9930644999999458,,031,11,2025-01-07_14h30.32.631,Surprise recog test,2023.1.3,59.95153517896237,
277,0,277,0,,,,,,,,,,,,,,,,,,,,,,,,,,,,,,,,,,644.0989036,645.1079615,643.0626358999999,643.0626358999999,643.0626358999999,643.0626358999999,old_stationery_2.png,278,1.0,1.0347385000000031,,031,11,2025-01-07_14h30.32.631,Surprise recog test,2023.1.3,59.95153517896237,
278,0,278,0,,,,,,,,,,,,,,,,,,,,,,,,,,,,,,,,,,647.2591139,648.2884548999999,645.1079615,645.1079615,645.1079615,645.1079615,new_sceneIn_49.png,279,4.0,2.14684299999999,,031,11,2025-01-07_14h30.32.631,Surprise recog test,2023.1.3,59.95153517896237,
279,0,279,0,,,,,,,,,,,,,,,,,,,,,,,,,,,,,,,,,,650.1382811,651.154908,648.2884548999999,648.2884548999999,648.2884548999999,648.2884548999999,old_sceneOut_16.png,280,2.0,1.8511555000000044,,031,11,2025-01-07_14h30.32.631,Surprise recog test,2023.1.3,59.95153517896237,
280,0,280,0,,,,,,,,,,,,,,,,,,,,,,,,,,,,,,,,,,653.4013557,654.4259899,651.154908,651.154908,651.154908,651.154908,new_fruit_35.png,281,3.0,2.242584400000055,,031,11,2025-01-07_14h30.32.631,Surprise recog test,2023.1.3,59.95153517896237,
281,0,281,0,,,,,,,,,,,,,,,,,,,,,,,,,,,,,,,,,,655.2827215,656.3000503,654.4259899,654.4259899,654.4259899,654.4259899,new_sceneIn_35.png,282,4.0,0.8582067999999481,,031,11,2025-01-07_14h30.32.631,Surprise recog test,2023.1.3,59.95153517896237,
282,0,282,0,,,,,,,,,,,,,,,,,,,,,,,,,,,,,,,,,,657.5686438,658.5935387,656.3000503,656.3000503,656.3000503,656.3000503,old_stationery_7.png,283,1.0,1.2653012000000672,,031,11,2025-01-07_14h30.32.631,Surprise recog test,2023.1.3,59.95153517896237,
283,0,283,0,,,,,,,,,,,,,,,,,,,,,,,,,,,,,,,,,,659.7141065,,658.5935387,658.5935387,658.5935387,658.5935387,old_stationery_4.png,284,2.0,1.1216967999999952,,031,11,2025-01-07_14h30.32.631,Surprise recog test,2023.1.3,59.95153517896237,
284,0,284,0,,,,,,,,,,,,,,,,,,,,,,,,,,,,,,,,,,662.0114088,663.0305437999999,660.736188,660.736188,660.736188,660.736188,new_sceneOut_19.png,285,3.0,1.2707805000000008,,031,11,2025-01-07_14h30.32.631,Surprise recog test,2023.1.3,59.95153517896237,
285,0,285,0,,,,,,,,,,,,,,,,,,,,,,,,,,,,,,,,,,664.1621931,665.1834305,663.0305437999999,663.0305437999999,663.0305437999999,663.0305437999999,old_stationery_29.png,286,1.0,1.1333289000000377,,031,11,2025-01-07_14h30.32.631,Surprise recog test,2023.1.3,59.95153517896237,
286,0,286,0,,,,,,,,,,,,,,,,,,,,,,,,,,,,,,,,,,666.3343666999999,667.3552294,665.1834305,665.1834305,665.1834305,665.1834305,old_fruit_20.png,287,1.0,1.1510212999999112,,031,11,2025-01-07_14h30.32.631,Surprise recog test,2023.1.3,59.95153517896237,
287,0,287,0,,,,,,,,,,,,,,,,,,,,,,,,,,,,,,,,,,668.3730906,,667.3552294,667.3552294,667.3552294,667.3552294,old_fruit_15.png,288,1.0,1.018028700000059,,031,11,2025-01-07_14h30.32.631,Surprise recog test,2023.1.3,59.95153517896237,
288,0,288,0,,,,,,,,,,,,,,,,,,,,,,,,,,,,,,,,,,671.1216357999999,672.1428457,669.4046313,669.4046313,669.4046313,669.4046313,old_sceneIn_47.png,289,3.0,1.7195849999999382,,031,11,2025-01-07_14h30.32.631,Surprise recog test,2023.1.3,59.95153517896237,
289,0,289,0,,,,,,,,,,,,,,,,,,,,,,,,,,,,,,,,,,673.1586182,,672.1428457,672.1428457,672.1428457,672.1428457,old_sceneOut_50.png,290,4.0,1.0174498999999741,,031,11,2025-01-07_14h30.32.631,Surprise recog test,2023.1.3,59.95153517896237,
290,0,290,0,,,,,,,,,,,,,,,,,,,,,,,,,,,,,,,,,,675.2201901,676.2416098,674.1928055999999,674.1928055999999,674.1928055999999,674.1928055999999,old_fruit_30.png,291,1.0,1.028355499999975,,031,11,2025-01-07_14h30.32.631,Surprise recog test,2023.1.3,59.95153517896237,
291,0,291,0,,,,,,,,,,,,,,,,,,,,,,,,,,,,,,,,,,677.1024181,678.1253802,676.2416098,676.2416098,676.2416098,676.2416098,old_sceneIn_25.png,292,4.0,0.862308799999937,,031,11,2025-01-07_14h30.32.631,Surprise recog test,2023.1.3,59.95153517896237,
292,0,292,0,,,,,,,,,,,,,,,,,,,,,,,,,,,,,,,,,,679.3205689,680.3476882,678.1253802,678.1253802,678.1253802,678.1253802,old_sceneOut_34.png,293,4.0,1.1977370999999266,,031,11,2025-01-07_14h30.32.631,Surprise recog test,2023.1.3,59.95153517896237,
293,0,293,0,,,,,,,,,,,,,,,,,,,,,,,,,,,,,,,,,,681.3129829,682.3284335999999,680.3476882,680.3476882,680.3476882,680.3476882,old_sceneOut_48.png,294,4.0,0.9645880000000489,,031,11,2025-01-07_14h30.32.631,Surprise recog test,2023.1.3,59.95153517896237,
294,0,294,0,,,,,,,,,,,,,,,,,,,,,,,,,,,,,,,,,,683.1409583999999,684.163821,682.3284335999999,682.3284335999999,682.3284335999999,682.3284335999999,new_sceneOut_4.png,295,4.0,0.8145561000000043,,031,11,2025-01-07_14h30.32.631,Surprise recog test,2023.1.3,59.95153517896237,
295,0,295,0,,,,,,,,,,,,,,,,,,,,,,,,,,,,,,,,,,685.2631037,686.2853286,684.163821,684.163821,684.163821,684.163821,new_stationery_49.png,296,1.0,1.0999204999999392,,031,11,2025-01-07_14h30.32.631,Surprise recog test,2023.1.3,59.95153517896237,
296,0,296,0,,,,,,,,,,,,,,,,,,,,,,,,,,,,,,,,,,687.2924028,688.3198388999999,686.2853286,686.2853286,686.2853286,686.2853286,old_fruit_8.png,297,1.0,1.0073145999999724,,031,11,2025-01-07_14h30.32.631,Surprise recog test,2023.1.3,59.95153517896237,
297,0,297,0,,,,,,,,,,,,,,,,,,,,,,,,,,,,,,,,,,689.6002702999999,690.6254182,688.3198388999999,688.3198388999999,688.3198388999999,688.3198388999999,old_sceneOut_43.png,298,3.0,1.2818443999999545,,031,11,2025-01-07_14h30.32.631,Surprise recog test,2023.1.3,59.95153517896237,
298,0,298,0,,,,,,,,,,,,,,,,,,,,,,,,,,,,,,,,,,691.7981608,692.8186602,690.6254182,690.6254182,690.6254182,690.6254182,old_sceneOut_9.png,299,3.0,1.174287599999957,,031,11,2025-01-07_14h30.32.631,Surprise recog test,2023.1.3,59.95153517896237,
299,0,299,0,,,,,,,,,,,,,,,,,,,,,,,,,,,,,,,,,,694.1894389,695.1992601,692.8186602,692.8186602,692.8186602,692.8186602,new_sceneIn_6.png,300,3.0,1.3683896000000004,,031,11,2025-01-07_14h30.32.631,Surprise recog test,2023.1.3,59.95153517896237,
300,0,300,0,,,,,,,,,,,,,,,,,,,,,,,,,,,,,,,,,,696.8156577999999,697.8462248,695.1992601,695.1992601,695.1992601,695.1992601,new_stationery_26.png,301,2.0,1.6101626999999326,,031,11,2025-01-07_14h30.32.631,Surprise recog test,2023.1.3,59.95153517896237,
301,0,301,0,,,,,,,,,,,,,,,,,,,,,,,,,,,,,,,,,,699.5475086,,697.8462248,697.8462248,697.8462248,697.8462248,new_stationery_8.png,302,4.0,1.701989200000071,,031,11,2025-01-07_14h30.32.631,Surprise recog test,2023.1.3,59.95153517896237,
302,0,302,0,,,,,,,,,,,,,,,,,,,,,,,,,,,,,,,,,,701.3382129,702.3605570999999,700.5814981,700.5814981,700.5814981,700.5814981,old_sceneIn_5.png,303,4.0,0.7573912000000291,,031,11,2025-01-07_14h30.32.631,Surprise recog test,2023.1.3,59.95153517896237,
303,0,303,0,,,,,,,,,,,,,,,,,,,,,,,,,,,,,,,,,,703.8737934999999,704.8903114,702.3605570999999,702.3605570999999,702.3605570999999,702.3605570999999,new_stationery_33.png,304,3.0,1.5126291999999921,,031,11,2025-01-07_14h30.32.631,Surprise recog test,2023.1.3,59.95153517896237,
304,0,304,0,,,,,,,,,,,,,,,,,,,,,,,,,,,,,,,,,,706.0947579,707.1098539999999,704.8903114,704.8903114,704.8903114,704.8903114,old_sceneOut_32.png,305,4.0,1.1989452999999912,,031,11,2025-01-07_14h30.32.631,Surprise recog test,2023.1.3,59.95153517896237,
305,0,305,0,,,,,,,,,,,,,,,,,,,,,,,,,,,,,,,,,,708.4059589999999,,707.1098539999999,707.1098539999999,707.1098539999999,707.1098539999999,new_sceneOut_22.png,306,4.0,1.2904605999999603,,031,11,2025-01-07_14h30.32.631,Surprise recog test,2023.1.3,59.95153517896237,
306,0,306,0,,,,,,,,,,,,,,,,,,,,,,,,,,,,,,,,,,710.1563116,,709.4263539,709.4263539,709.4263539,709.4263539,old_sceneIn_12.png,307,4.0,0.7230299999999943,,031,11,2025-01-07_14h30.32.631,Surprise recog test,2023.1.3,59.95153517896237,
307,0,307,0,,,,,,,,,,,,,,,,,,,,,,,,,,,,,,,,,,712.139639,713.1566015,711.1853893,711.1853893,711.1853893,711.1853893,new_sceneIn_26.png,308,4.0,0.9543619999999464,,031,11,2025-01-07_14h30.32.631,Surprise recog test,2023.1.3,59.95153517896237,
308,0,308,0,,,,,,,,,,,,,,,,,,,,,,,,,,,,,,,,,,714.087329,715.109153,713.1566015,713.1566015,713.1566015,713.1566015,old_sceneOut_39.png,309,4.0,0.930110099999979,,031,11,2025-01-07_14h30.32.631,Surprise recog test,2023.1.3,59.95153517896237,
309,0,309,0,,,,,,,,,,,,,,,,,,,,,,,,,,,,,,,,,,716.3601146999999,717.3760929,715.109153,715.109153,715.109153,715.109153,old_fruit_2.png,310,1.0,1.252192100000002,,031,11,2025-01-07_14h30.32.631,Surprise recog test,2023.1.3,59.95153517896237,
310,0,310,0,,,,,,,,,,,,,,,,,,,,,,,,,,,,,,,,,,718.3690647999999,719.3964209999999,717.3760929,717.3760929,717.3760929,717.3760929,old_stationery_28.png,311,1.0,0.9904100999999628,,031,11,2025-01-07_14h30.32.631,Surprise recog test,2023.1.3,59.95153517896237,
311,0,311,0,,,,,,,,,,,,,,,,,,,,,,,,,,,,,,,,,,720.3666244,,719.3964209999999,719.3964209999999,719.3964209999999,719.3964209999999,new_fruit_7.png,312,1.0,0.9724751999999626,,031,11,2025-01-07_14h30.32.631,Surprise recog test,2023.1.3,59.95153517896237,
312,0,312,0,,,,,,,,,,,,,,,,,,,,,,,,,,,,,,,,,,723.0979841,724.1129020999999,721.4001086,721.4001086,721.4001086,721.4001086,old_sceneOut_12.png,313,4.0,1.7006688999999824,,031,11,2025-01-07_14h30.32.631,Surprise recog test,2023.1.3,59.95153517896237,
313,0,313,0,,,,,,,,,,,,,,,,,,,,,,,,,,,,,,,,,,725.5347519,726.5421678,724.1129020999999,724.1129020999999,724.1129020999999,724.1129020999999,new_sceneOut_33.png,314,4.0,1.4231455000000324,,031,11,2025-01-07_14h30.32.631,Surprise recog test,2023.1.3,59.95153517896237,
314,0,314,0,,,,,,,,,,,,,,,,,,,,,,,,,,,,,,,,,,727.5597047,728.5878180999999,726.5421678,726.5421678,726.5421678,726.5421678,new_sceneIn_42.png,315,4.0,1.0133706999999958,,031,11,2025-01-07_14h30.32.631,Surprise recog test,2023.1.3,59.95153517896237,
315,0,315,0,,,,,,,,,,,,,,,,,,,,,,,,,,,,,,,,,,729.6799163,730.7076353,728.5878180999999,728.5878180999999,728.5878180999999,728.5878180999999,old_fruit_38.png,316,1.0,1.0933582000000115,,031,11,2025-01-07_14h30.32.631,Surprise recog test,2023.1.3,59.95153517896237,
316,0,316,0,,,,,,,,,,,,,,,,,,,,,,,,,,,,,,,,,,731.9411501,,730.7076353,730.7076353,730.7076353,730.7076353,new_fruit_31.png,317,2.0,1.2331726999999546,,031,11,2025-01-07_14h30.32.631,Surprise recog test,2023.1.3,59.95153517896237,
317,0,317,0,,,,,,,,,,,,,,,,,,,,,,,,,,,,,,,,,,733.9134429,734.9432413999999,732.9630463,732.9630463,732.9630463,732.9630463,old_fruit_3.png,318,1.0,0.9439298999999437,,031,11,2025-01-07_14h30.32.631,Surprise recog test,2023.1.3,59.95153517896237,
318,0,318,0,,,,,,,,,,,,,,,,,,,,,,,,,,,,,,,,,,736.204225,737.2322856,734.9432413999999,734.9432413999999,734.9432413999999,734.9432413999999,new_fruit_29.png,319,3.0,1.2603735000000142,,031,11,2025-01-07_14h30.32.631,Surprise recog test,2023.1.3,59.95153517896237,
319,0,319,0,,,,,,,,,,,,,,,,,,,,,,,,,,,,,,,,,,738.0700796,739.0972527,737.2322856,737.2322856,737.2322856,737.2322856,old_sceneIn_1.png,320,4.0,0.8406002000000399,,031,11,2025-01-07_14h30.32.631,Surprise recog test,2023.1.3,59.95153517896237,
320,0,320,0,,,,,,,,,,,,,,,,,,,,,,,,,,,,,,,,,,740.4276077,741.4437492999999,739.0972527,739.0972527,739.0972527,739.0972527,new_sceneIn_28.png,321,3.0,1.3313582000000679,,031,11,2025-01-07_14h30.32.631,Surprise recog test,2023.1.3,59.95153517896237,
321,0,321,0,,,,,,,,,,,,,,,,,,,,,,,,,,,,,,,,,,742.7550639,743.772733,741.4437492999999,741.4437492999999,741.4437492999999,741.4437492999999,new_sceneOut_43.png,322,3.0,1.3050079000000778,,031,11,2025-01-07_14h30.32.631,Surprise recog test,2023.1.3,59.95153517896237,
322,0,322,0,,,,,,,,,,,,,,,,,,,,,,,,,,,,,,,,,,745.1757408999999,746.1951918999999,743.772733,743.772733,743.772733,743.772733,old_sceneIn_38.png,323,4.0,1.3984245999999985,,031,11,2025-01-07_14h30.32.631,Surprise recog test,2023.1.3,59.95153517896237,
323,0,323,0,,,,,,,,,,,,,,,,,,,,,,,,,,,,,,,,,,747.430568,748.4563459,746.1951918999999,746.1951918999999,746.1951918999999,746.1951918999999,old_stationery_45.png,324,2.0,1.235512799999924,,031,11,2025-01-07_14h30.32.631,Surprise recog test,2023.1.3,59.95153517896237,
324,0,324,0,,,,,,,,,,,,,,,,,,,,,,,,,,,,,,,,,,750.172027,751.1924865999999,748.4563459,748.4563459,748.4563459,748.4563459,new_sceneOut_48.png,325,4.0,1.7164563000000044,,031,11,2025-01-07_14h30.32.631,Surprise recog test,2023.1.3,59.95153517896237,
325,0,325,0,,,,,,,,,,,,,,,,,,,,,,,,,,,,,,,,,,752.2117055,753.2455158,751.1924865999999,751.1924865999999,751.1924865999999,751.1924865999999,new_sceneIn_38.png,326,4.0,1.021257500000047,,031,11,2025-01-07_14h30.32.631,Surprise recog test,2023.1.3,59.95153517896237,
326,0,326,0,,,,,,,,,,,,,,,,,,,,,,,,,,,,,,,,,,754.8652065,755.8912258,753.2455158,753.2455158,753.2455158,753.2455158,old_sceneOut_10.png,327,4.0,1.6219890999999507,,031,11,2025-01-07_14h30.32.631,Surprise recog test,2023.1.3,59.95153517896237,
327,0,327,0,,,,,,,,,,,,,,,,,,,,,,,,,,,,,,,,,,756.9205413999999,757.9468851,755.8912258,755.8912258,755.8912258,755.8912258,new_fruit_5.png,328,2.0,1.0292578999999478,,031,11,2025-01-07_14h30.32.631,Surprise recog test,2023.1.3,59.95153517896237,
328,0,328,0,,,,,,,,,,,,,,,,,,,,,,,,,,,,,,,,,,759.6046156,760.6200967,757.9468851,757.9468851,757.9468851,757.9468851,new_fruit_34.png,329,3.0,1.6577180000000453,,031,11,2025-01-07_14h30.32.631,Surprise recog test,2023.1.3,59.95153517896237,
329,0,329,0,,,,,,,,,,,,,,,,,,,,,,,,,,,,,,,,,,761.7832364999999,,760.6200967,760.6200967,760.6200967,760.6200967,new_stationery_40.png,330,3.0,1.1581429999999955,,031,11,2025-01-07_14h30.32.631,Surprise recog test,2023.1.3,59.95153517896237,
330,0,330,0,,,,,,,,,,,,,,,,,,,,,,,,,,,,,,,,,,763.9167416,764.9216091999999,762.8136119,762.8136119,762.8136119,762.8136119,old_stationery_42.png,331,2.0,1.102706000000012,,031,11,2025-01-07_14h30.32.631,Surprise recog test,2023.1.3,59.95153517896237,
331,0,331,0,,,,,,,,,,,,,,,,,,,,,,,,,,,,,,,,,,767.0843076,768.0902753,764.9216091999999,764.9216091999999,764.9216091999999,764.9216091999999,new_stationery_29.png,332,2.0,2.156463400000007,,031,11,2025-01-07_14h30.32.631,Surprise recog test,2023.1.3,59.95153517896237,
332,0,332,0,,,,,,,,,,,,,,,,,,,,,,,,,,,,,,,,,,769.2564004,,768.0902753,768.0902753,768.0902753,768.0902753,new_sceneIn_29.png,333,4.0,1.1628566000000546,,031,11,2025-01-07_14h30.32.631,Surprise recog test,2023.1.3,59.95153517896237,
333,0,333,0,,,,,,,,,,,,,,,,,,,,,,,,,,,,,,,,,,771.9420723,,770.285673,770.285673,770.285673,770.285673,old_sceneIn_21.png,334,3.0,1.6571986999999808,,031,11,2025-01-07_14h30.32.631,Surprise recog test,2023.1.3,59.95153517896237,
334,0,334,0,,,,,,,,,,,,,,,,,,,,,,,,,,,,,,,,,,774.2851443999999,775.2994942,772.9750537,772.9750537,772.9750537,772.9750537,old_sceneIn_39.png,335,3.0,1.3121466999999711,,031,11,2025-01-07_14h30.32.631,Surprise recog test,2023.1.3,59.95153517896237,
335,0,335,0,,,,,,,,,,,,,,,,,,,,,,,,,,,,,,,,,,776.7735259,777.7963847,775.2994942,775.2994942,775.2994942,775.2994942,old_sceneIn_14.png,336,4.0,1.4688844999999446,,031,11,2025-01-07_14h30.32.631,Surprise recog test,2023.1.3,59.95153517896237,
336,0,336,0,,,,,,,,,,,,,,,,,,,,,,,,,,,,,,,,,,779.083858,780.1128931,777.7963847,777.7963847,777.7963847,777.7963847,old_fruit_11.png,337,1.0,1.289847399999985,,031,11,2025-01-07_14h30.32.631,Surprise recog test,2023.1.3,59.95153517896237,
337,0,337,0,,,,,,,,,,,,,,,,,,,,,,,,,,,,,,,,,,782.1519974,783.1782227,780.1128931,780.1128931,780.1128931,780.1128931,old_stationery_1.png,338,2.0,2.0422715999999355,,031,11,2025-01-07_14h30.32.631,Surprise recog test,2023.1.3,59.95153517896237,
338,0,338,0,,,,,,,,,,,,,,,,,,,,,,,,,,,,,,,,,,784.2637723,785.2738152,783.1782227,783.1782227,783.1782227,783.1782227,new_fruit_39.png,339,2.0,1.0865786000000526,,031,11,2025-01-07_14h30.32.631,Surprise recog test,2023.1.3,59.95153517896237,
339,0,339,0,,,,,,,,,,,,,,,,,,,,,,,,,,,,,,,,,,786.5451638999999,787.5636486999999,785.2738152,785.2738152,785.2738152,785.2738152,old_sceneIn_22.png,340,3.0,1.2660404000000653,,031,11,2025-01-07_14h30.32.631,Surprise recog test,2023.1.3,59.95153517896237,
340,0,340,0,,,,,,,,,,,,,,,,,,,,,,,,,,,,,,,,,,788.5535375,789.5608734,787.5636486999999,787.5636486999999,787.5636486999999,787.5636486999999,old_sceneOut_14.png,341,4.0,0.9902402999999822,,031,11,2025-01-07_14h30.32.631,Surprise recog test,2023.1.3,59.95153517896237,
341,0,341,0,,,,,,,,,,,,,,,,,,,,,,,,,,,,,,,,,,790.7774823,791.792904,789.5608734,789.5608734,789.5608734,789.5608734,new_sceneOut_41.png,342,3.0,1.210213500000009,,031,11,2025-01-07_14h30.32.631,Surprise recog test,2023.1.3,59.95153517896237,
342,0,342,0,,,,,,,,,,,,,,,,,,,,,,,,,,,,,,,,,,792.6542863999999,793.6603431,791.792904,791.792904,791.792904,791.792904,old_sceneIn_2.png,343,4.0,0.8572247000000743,,031,11,2025-01-07_14h30.32.631,Surprise recog test,2023.1.3,59.95153517896237,
343,0,343,0,,,,,,,,,,,,,,,,,,,,,,,,,,,,,,,,,,794.6588292,795.6647822,793.6603431,793.6603431,793.6603431,793.6603431,new_stationery_11.png,344,3.0,0.9938132000000905,,031,11,2025-01-07_14h30.32.631,Surprise recog test,2023.1.3,59.95153517896237,
344,0,344,0,,,,,,,,,,,,,,,,,,,,,,,,,,,,,,,,,,796.8091393999999,797.8145172,795.6647822,795.6647822,795.6647822,795.6647822,new_sceneOut_24.png,345,4.0,1.1367469000000483,,031,11,2025-01-07_14h30.32.631,Surprise recog test,2023.1.3,59.95153517896237,
345,0,345,0,,,,,,,,,,,,,,,,,,,,,,,,,,,,,,,,,,799.1276558999999,800.1344875,797.8145172,797.8145172,797.8145172,797.8145172,new_fruit_8.png,346,2.0,1.3037772000000132,,031,11,2025-01-07_14h30.32.631,Surprise recog test,2023.1.3,59.95153517896237,
346,0,346,0,,,,,,,,,,,,,,,,,,,,,,,,,,,,,,,,,,801.1461315,802.1521862999999,800.1344875,800.1344875,800.1344875,800.1344875,new_fruit_28.png,347,3.0,1.0032310999999936,,031,11,2025-01-07_14h30.32.631,Surprise recog test,2023.1.3,59.95153517896237,
347,0,347,0,,,,,,,,,,,,,,,,,,,,,,,,,,,,,,,,,,803.0309119,804.0384513,802.1521862999999,802.1521862999999,802.1521862999999,802.1521862999999,new_stationery_1.png,348,2.0,0.8703727000000754,,031,11,2025-01-07_14h30.32.631,Surprise recog test,2023.1.3,59.95153517896237,
348,0,348,0,,,,,,,,,,,,,,,,,,,,,,,,,,,,,,,,,,805.3662624,806.3717753999999,804.0384513,804.0384513,804.0384513,804.0384513,new_sceneOut_5.png,349,4.0,1.3214209999999866,,031,11,2025-01-07_14h30.32.631,Surprise recog test,2023.1.3,59.95153517896237,
349,0,349,0,,,,,,,,,,,,,,,,,,,,,,,,,,,,,,,,,,807.2844911,808.289009,806.3717753999999,806.3717753999999,806.3717753999999,806.3717753999999,old_sceneIn_37.png,350,4.0,0.9054061000000502,,031,11,2025-01-07_14h30.32.631,Surprise recog test,2023.1.3,59.95153517896237,
350,0,350,0,,,,,,,,,,,,,,,,,,,,,,,,,,,,,,,,,,809.086041,810.0912734999999,808.289009,808.289009,808.289009,808.289009,old_sceneIn_10.png,351,4.0,0.7885483000000022,,031,11,2025-01-07_14h30.32.631,Surprise recog test,2023.1.3,59.95153517896237,
351,0,351,0,,,,,,,,,,,,,,,,,,,,,,,,,,,,,,,,,,811.0891182,812.0928519,810.0912734999999,810.0912734999999,810.0912734999999,810.0912734999999,old_sceneOut_42.png,352,4.0,0.9909950999999637,,031,11,2025-01-07_14h30.32.631,Surprise recog test,2023.1.3,59.95153517896237,
352,0,352,0,,,,,,,,,,,,,,,,,,,,,,,,,,,,,,,,,,813.0393404,814.0443639,812.0928519,812.0928519,812.0928519,812.0928519,new_sceneOut_1.png,353,4.0,0.9384215999999697,,031,11,2025-01-07_14h30.32.631,Surprise recog test,2023.1.3,59.95153517896237,
353,0,353,0,,,,,,,,,,,,,,,,,,,,,,,,,,,,,,,,,,815.3244910999999,816.3313403999999,814.0443639,814.0443639,814.0443639,814.0443639,new_stationery_45.png,354,2.0,1.2703804999999875,,031,11,2025-01-07_14h30.32.631,Surprise recog test,2023.1.3,59.95153517896237,
354,0,354,0,,,,,,,,,,,,,,,,,,,,,,,,,,,,,,,,,,817.2928135,818.2980807,816.3313403999999,816.3313403999999,816.3313403999999,816.3313403999999,old_fruit_45.png,355,1.0,0.9533630000000812,,031,11,2025-01-07_14h30.32.631,Surprise recog test,2023.1.3,59.95153517896237,
355,0,355,0,,,,,,,,,,,,,,,,,,,,,,,,,,,,,,,,,,819.9450551,820.9505398,818.2980807,818.2980807,818.2980807,818.2980807,old_sceneOut_5.png,356,3.0,1.6376500999999735,,031,11,2025-01-07_14h30.32.631,Surprise recog test,2023.1.3,59.95153517896237,
356,0,356,0,,,,,,,,,,,,,,,,,,,,,,,,,,,,,,,,,,822.7640544999999,823.7693987,820.9505398,820.9505398,820.9505398,820.9505398,new_sceneOut_38.png,357,1.0,1.8052575000000388,,031,11,2025-01-07_14h30.32.631,Surprise recog test,2023.1.3,59.95153517896237,
357,0,357,0,,,,,,,,,,,,,,,,,,,,,,,,,,,,,,,,,,825.1159948999999,826.1219261,823.7693987,823.7693987,823.7693987,823.7693987,new_sceneIn_40.png,358,3.0,1.3373628000000508,,031,11,2025-01-07_14h30.32.631,Surprise recog test,2023.1.3,59.95153517896237,
358,0,358,0,,,,,,,,,,,,,,,,,,,,,,,,,,,,,,,,,,828.1351404999999,829.1405692,826.1219261,826.1219261,826.1219261,826.1219261,new_sceneOut_40.png,359,4.0,2.0075957000000244,,031,11,2025-01-07_14h30.32.631,Surprise recog test,2023.1.3,59.95153517896237,
359,0,359,0,,,,,,,,,,,,,,,,,,,,,,,,,,,,,,,,,,831.020947,832.0272572,829.1405692,829.1405692,829.1405692,829.1405692,old_sceneIn_34.png,360,3.0,1.87060299999996,,031,11,2025-01-07_14h30.32.631,Surprise recog test,2023.1.3,59.95153517896237,
360,0,360,0,,,,,,,,,,,,,,,,,,,,,,,,,,,,,,,,,,833.1560054,834.1606747,832.0272572,832.0272572,832.0272572,832.0272572,old_stationery_19.png,361,1.0,1.1243153000000348,,031,11,2025-01-07_14h30.32.631,Surprise recog test,2023.1.3,59.95153517896237,
361,0,361,0,,,,,,,,,,,,,,,,,,,,,,,,,,,,,,,,,,836.2586142,837.2633339,834.1606747,834.1606747,834.1606747,834.1606747,old_sceneOut_13.png,362,4.0,2.088677299999972,,031,11,2025-01-07_14h30.32.631,Surprise recog test,2023.1.3,59.95153517896237,
362,0,362,0,,,,,,,,,,,,,,,,,,,,,,,,,,,,,,,,,,838.8441138,839.8484753,837.2633339,837.2633339,837.2633339,837.2633339,new_sceneIn_8.png,363,3.0,1.5709759000000076,,031,11,2025-01-07_14h30.32.631,Surprise recog test,2023.1.3,59.95153517896237,
363,0,363,0,,,,,,,,,,,,,,,,,,,,,,,,,,,,,,,,,,840.8624264,841.867798,839.8484753,839.8484753,839.8484753,839.8484753,new_stationery_2.png,364,2.0,1.0044808000000103,,031,11,2025-01-07_14h30.32.631,Surprise recog test,2023.1.3,59.95153517896237,
364,0,364,0,,,,,,,,,,,,,,,,,,,,,,,,,,,,,,,,,,843.0976294999999,844.1023893,841.867798,841.867798,841.867798,841.867798,new_stationery_18.png,365,2.0,1.22009079999998,,031,11,2025-01-07_14h30.32.631,Surprise recog test,2023.1.3,59.95153517896237,
365,0,365,0,,,,,,,,,,,,,,,,,,,,,,,,,,,,,,,,,,846.4838043,847.4890462999999,844.1023893,844.1023893,844.1023893,844.1023893,old_sceneIn_13.png,366,3.0,2.371078300000022,,031,11,2025-01-07_14h30.32.631,Surprise recog test,2023.1.3,59.95153517896237,
366,0,366,0,,,,,,,,,,,,,,,,,,,,,,,,,,,,,,,,,,848.5355175999999,849.5422331,847.4890462999999,847.4890462999999,847.4890462999999,847.4890462999999,new_fruit_38.png,367,3.0,1.0370864999999867,,031,11,2025-01-07_14h30.32.631,Surprise recog test,2023.1.3,59.95153517896237,
367,0,367,0,,,,,,,,,,,,,,,,,,,,,,,,,,,,,,,,,,850.6873303,851.6919553,849.5422331,849.5422331,849.5422331,849.5422331,new_sceneOut_16.png,368,3.0,1.136868800000002,,031,11,2025-01-07_14h30.32.631,Surprise recog test,2023.1.3,59.95153517896237,
368,0,368,0,,,,,,,,,,,,,,,,,,,,,,,,,,,,,,,,,,852.7225106,853.7277869999999,851.6919553,851.6919553,851.6919553,851.6919553,old_fruit_18.png,369,1.0,1.0202254000000721,,031,11,2025-01-07_14h30.32.631,Surprise recog test,2023.1.3,59.95153517896237,
369,0,369,0,,,,,,,,,,,,,,,,,,,,,,,,,,,,,,,,,,854.8741729,855.8787616999999,853.7277869999999,853.7277869999999,853.7277869999999,853.7277869999999,new_sceneOut_44.png,370,4.0,1.13852200000008,,031,11,2025-01-07_14h30.32.631,Surprise recog test,2023.1.3,59.95153517896237,
370,0,370,0,,,,,,,,,,,,,,,,,,,,,,,,,,,,,,,,,,857.1092312,858.1139193,855.8787616999999,855.8787616999999,855.8787616999999,855.8787616999999,old_stationery_49.png,371,3.0,1.2204318999999941,,031,11,2025-01-07_14h30.32.631,Surprise recog test,2023.1.3,59.95153517896237,
371,0,371,0,,,,,,,,,,,,,,,,,,,,,,,,,,,,,,,,,,859.2610672,860.2655647,858.1139193,858.1139193,858.1139193,858.1139193,old_sceneIn_4.png,372,4.0,1.1370706999999811,,031,11,2025-01-07_14h30.32.631,Surprise recog test,2023.1.3,59.95153517896237,
372,0,372,0,,,,,,,,,,,,,,,,,,,,,,,,,,,,,,,,,,861.3294397,862.3354908,860.2655647,860.2655647,860.2655647,860.2655647,old_fruit_5.png,373,1.0,1.0536481999999978,,031,11,2025-01-07_14h30.32.631,Surprise recog test,2023.1.3,59.95153517896237,
373,0,373,0,,,,,,,,,,,,,,,,,,,,,,,,,,,,,,,,,,863.1977359,864.2029362,862.3354908,862.3354908,862.3354908,862.3354908,old_stationery_9.png,374,1.0,0.8522752999999739,,031,11,2025-01-07_14h30.32.631,Surprise recog test,2023.1.3,59.95153517896237,
374,0,374,0,,,,,,,,,,,,,,,,,,,,,,,,,,,,,,,,,,865.0492985999999,866.0545326,864.2029362,864.2029362,864.2029362,864.2029362,old_fruit_7.png,375,1.0,0.8367284000000836,,031,11,2025-01-07_14h30.32.631,Surprise recog test,2023.1.3,59.95153517896237,
375,0,375,0,,,,,,,,,,,,,,,,,,,,,,,,,,,,,,,,,,867.3679009,868.3729402,866.0545326,866.0545326,866.0545326,866.0545326,old_sceneIn_42.png,376,4.0,1.3034579000000122,,031,11,2025-01-07_14h30.32.631,Surprise recog test,2023.1.3,59.95153517896237,
376,0,376,0,,,,,,,,,,,,,,,,,,,,,,,,,,,,,,,,,,869.8365308,870.8430165999999,868.3729402,868.3729402,868.3729402,868.3729402,new_fruit_36.png,377,2.0,1.4542193000000907,,031,11,2025-01-07_14h30.32.631,Surprise recog test,2023.1.3,59.95153517896237,
377,0,377,0,,,,,,,,,,,,,,,,,,,,,,,,,,,,,,,,,,871.7715248,872.7773105,870.8430165999999,870.8430165999999,870.8430165999999,870.8430165999999,old_sceneOut_6.png,378,3.0,0.921147000000019,,031,11,2025-01-07_14h30.32.631,Surprise recog test,2023.1.3,59.95153517896237,
378,0,378,0,,,,,,,,,,,,,,,,,,,,,,,,,,,,,,,,,,874.1203821,875.1362928,872.7773105,872.7773105,872.7773105,872.7773105,new_fruit_4.png,379,3.0,1.3352165000000014,,031,11,2025-01-07_14h30.32.631,Surprise recog test,2023.1.3,59.95153517896237,
379,0,379,0,,,,,,,,,,,,,,,,,,,,,,,,,,,,,,,,,,876.5925816,877.6073537999999,875.1362928,875.1362928,875.1362928,875.1362928,old_sceneIn_6.png,380,5.0,1.4526382999999896,,031,11,2025-01-07_14h30.32.631,Surprise recog test,2023.1.3,59.95153517896237,
380,0,380,0,,,,,,,,,,,,,,,,,,,,,,,,,,,,,,,,,,878.6218258,879.6501581,877.6073537999999,877.6073537999999,877.6073537999999,877.6073537999999,new_stationery_3.png,381,2.0,1.0171929999999065,,031,11,2025-01-07_14h30.32.631,Surprise recog test,2023.1.3,59.95153517896237,
381,0,381,0,,,,,,,,,,,,,,,,,,,,,,,,,,,,,,,,,,880.7962265,881.8057848999999,879.6501581,879.6501581,879.6501581,879.6501581,new_stationery_16.png,382,2.0,1.1488223000000062,,031,11,2025-01-07_14h30.32.631,Surprise recog test,2023.1.3,59.95153517896237,
382,0,382,0,,,,,,,,,,,,,,,,,,,,,,,,,,,,,,,,,,883.2768624,884.2989931,881.8057848999999,881.8057848999999,881.8057848999999,881.8057848999999,old_stationery_12.png,383,3.0,1.4664043999999876,,031,11,2025-01-07_14h30.32.631,Surprise recog test,2023.1.3,59.95153517896237,
383,0,383,0,,,,,,,,,,,,,,,,,,,,,,,,,,,,,,,,,,885.5162613,886.5237599,884.2989931,884.2989931,884.2989931,884.2989931,old_fruit_28.png,384,1.0,1.2105506999999989,,031,11,2025-01-07_14h30.32.631,Surprise recog test,2023.1.3,59.95153517896237,
384,0,384,0,,,,,,,,,,,,,,,,,,,,,,,,,,,,,,,,,,887.6892071999999,,886.5237599,886.5237599,886.5237599,886.5237599,new_fruit_10.png,385,3.0,1.1593192999999928,,031,11,2025-01-07_14h30.32.631,Surprise recog test,2023.1.3,59.95153517896237,
