trial_loop.thisRepN,trial_loop.thisTrialN,trial_loop.thisN,trial_loop.thisIndex,VAS_slider.started,VAS_text.started,VAS_notstressed_text.started,VAS_stressed_text.started,continue_input.started,continue_text.started,label0.started,label10.started,label20.started,label30.started,label40.started,label50.started,label60.started,label70.started,label80.started,label90.started,label100.started,VAS_slider.response,VAS_slider.rt,VAS_slider.history,Answer_VAS,continue_input.keys,instruction_text.started,continue_text_2.started,continue_input_2.started,continue_input_2.keys,continue_input_2.rt,continue_input_2.duration,example_text.started,example_slider_2.started,example_image.started,example_slider_2.response,example_slider_2.rt,fixcross.started,fixcross.stopped,front_square.started,stim_images.started,trial_inst_images.started,slider_images.started,slider_images.stopped,thisImg,trial_count,slider_images.response,slider_images.rt,outro.started,participant,condition,date,expName,psychopyVersion,frameRate,
,,,,25.61393020000014,25.61393020000014,25.61393020000014,25.61393020000014,25.61393020000014,25.61393020000014,25.61393020000014,25.61393020000014,25.61393020000014,25.61393020000014,25.61393020000014,25.61393020000014,25.61393020000014,25.61393020000014,25.61393020000014,25.61393020000014,25.61393020000014,2.0166666666666666,9.808210199999849,"[(2.0166666666666666, 9.808210199999849)]",2.0166666666666666,None,,,,,,,,,,,,,,,,,,,,,,,,033,00,2025-01-07_16h23.39.205,Surprise recog test,2023.1.3,59.958257061393375,
,,,,,,,,,,,,,,,,,,,,,,,,,,35.45319019999988,35.45319019999988,35.45319019999988,space,10.549410900000112,None,,,,,,,,,,,,,,,,,,033,00,2025-01-07_16h23.39.205,Surprise recog test,2023.1.3,59.958257061393375,
0,0,0,0,,,,,,,,,,,,,,,,,,,,,,,,,,,,,46.12210049999976,46.12210049999976,46.12210049999976,3.0,15.779515899999751,67.84433749999971,62.86355029999959,62.86355029999959,62.86355029999959,62.86355029999959,62.86355029999959,67.82913569999982,new_sceneOut_30.png,1,None,None,,033,00,2025-01-07_16h23.39.205,Surprise recog test,2023.1.3,59.958257061393375,
1,0,1,0,,,,,,,,,,,,,,,,,,,,,,,,,,,,,,,,,,70.9970543999998,72.00176399999964,68.84908939999968,68.84908939999968,68.84908939999968,68.84908939999968,,old_sceneIn_9.png,2,2.0,2.1382858999995733,,033,00,2025-01-07_16h23.39.205,Surprise recog test,2023.1.3,59.958257061393375,
2,0,2,0,,,,,,,,,,,,,,,,,,,,,,,,,,,,,,,,,,74.48328579999998,75.48798960000022,72.00176399999964,72.00176399999964,72.00176399999964,72.00176399999964,,new_fruit_34.png,3,4.0,2.4712955999993937,,033,00,2025-01-07_16h23.39.205,Surprise recog test,2023.1.3,59.958257061393375,
3,0,3,0,,,,,,,,,,,,,,,,,,,,,,,,,,,,,,,,,,78.18707489999997,79.19142310000007,75.48798960000022,75.48798960000022,75.48798960000022,75.48798960000022,,new_stationery_7.png,4,5.0,2.6880067000001873,,033,00,2025-01-07_16h23.39.205,Surprise recog test,2023.1.3,59.958257061393375,
4,0,4,0,,,,,,,,,,,,,,,,,,,,,,,,,,,,,,,,,,81.80599540000003,82.81092850000005,79.19142310000007,79.19142310000007,79.19142310000007,79.19142310000007,,new_fruit_4.png,5,4.0,2.6043462999996336,,033,00,2025-01-07_16h23.39.205,Surprise recog test,2023.1.3,59.958257061393375,
5,0,5,0,,,,,,,,,,,,,,,,,,,,,,,,,,,,,,,,,,84.69188779999968,85.69693840000036,82.81092850000005,82.81092850000005,82.81092850000005,82.81092850000005,,old_sceneOut_20.png,6,2.0,1.8710989000001064,,033,00,2025-01-07_16h23.39.205,Surprise recog test,2023.1.3,59.958257061393375,
6,0,6,0,,,,,,,,,,,,,,,,,,,,,,,,,,,,,,,,,,87.87782700000025,88.88269020000007,85.69693840000036,85.69693840000036,85.69693840000036,85.69693840000036,,old_sceneOut_44.png,7,4.0,2.1715305000006992,,033,00,2025-01-07_16h23.39.205,Surprise recog test,2023.1.3,59.958257061393375,
7,0,7,0,,,,,,,,,,,,,,,,,,,,,,,,,,,,,,,,,,91.49737960000039,92.50264440000046,88.88269020000007,88.88269020000007,88.88269020000007,88.88269020000007,,new_stationery_38.png,8,2.0,2.6049182000006113,,033,00,2025-01-07_16h23.39.205,Surprise recog test,2023.1.3,59.958257061393375,
8,0,8,0,,,,,,,,,,,,,,,,,,,,,,,,,,,,,,,,,,94.3331433000003,95.33828580000045,92.50264440000046,92.50264440000046,92.50264440000046,92.50264440000046,,old_stationery_45.png,9,1.0,1.8217445999998745,,033,00,2025-01-07_16h23.39.205,Surprise recog test,2023.1.3,59.958257061393375,
9,0,9,0,,,,,,,,,,,,,,,,,,,,,,,,,,,,,,,,,,98.06955509999989,99.0749552999996,95.33828580000045,95.33828580000045,95.33828580000045,95.33828580000045,,old_stationery_50.png,10,2.0,2.7214294000004884,,033,00,2025-01-07_16h23.39.205,Surprise recog test,2023.1.3,59.958257061393375,
10,0,10,0,,,,,,,,,,,,,,,,,,,,,,,,,,,,,,,,,,100.83852250000018,101.84504769999967,99.0749552999996,99.0749552999996,99.0749552999996,99.0749552999996,,old_fruit_11.png,11,1.0,1.753603899999689,,033,00,2025-01-07_16h23.39.205,Surprise recog test,2023.1.3,59.958257061393375,
11,0,11,0,,,,,,,,,,,,,,,,,,,,,,,,,,,,,,,,,,103.9077742999998,104.9136711000001,101.84504769999967,101.84504769999967,101.84504769999967,101.84504769999967,,new_sceneOut_14.png,12,3.0,2.054565899999943,,033,00,2025-01-07_16h23.39.205,Surprise recog test,2023.1.3,59.958257061393375,
12,0,12,0,,,,,,,,,,,,,,,,,,,,,,,,,,,,,,,,,,107.24395259999983,108.24911609999981,104.9136711000001,104.9136711000001,104.9136711000001,104.9136711000001,,old_sceneIn_3.png,13,4.0,2.3216140999993513,,033,00,2025-01-07_16h23.39.205,Surprise recog test,2023.1.3,59.958257061393375,
13,0,13,0,,,,,,,,,,,,,,,,,,,,,,,,,,,,,,,,,,110.58014120000007,111.5842775000001,108.24911609999981,108.24911609999981,108.24911609999981,108.24911609999981,,new_sceneIn_45.png,14,4.0,2.321200299999873,,033,00,2025-01-07_16h23.39.205,Surprise recog test,2023.1.3,59.958257061393375,
14,0,14,0,,,,,,,,,,,,,,,,,,,,,,,,,,,,,,,,,,113.01529459999983,114.02026529999966,111.5842775000001,111.5842775000001,111.5842775000001,111.5842775000001,,old_stationery_42.png,15,1.0,1.4201842000002216,,033,00,2025-01-07_16h23.39.205,Surprise recog test,2023.1.3,59.958257061393375,
15,0,15,0,,,,,,,,,,,,,,,,,,,,,,,,,,,,,,,,,,115.50093740000011,116.50649150000027,114.02026529999966,114.02026529999966,114.02026529999966,114.02026529999966,,new_fruit_9.png,16,1.0,1.4705235999999786,,033,00,2025-01-07_16h23.39.205,Surprise recog test,2023.1.3,59.958257061393375,
16,0,16,0,,,,,,,,,,,,,,,,,,,,,,,,,,,,,,,,,,118.7703475999997,119.77634240000043,116.50649150000027,116.50649150000027,116.50649150000027,116.50649150000027,,old_fruit_41.png,17,3.0,2.2537327999998524,,033,00,2025-01-07_16h23.39.205,Surprise recog test,2023.1.3,59.958257061393375,
17,0,17,0,,,,,,,,,,,,,,,,,,,,,,,,,,,,,,,,,,121.33897820000038,122.3438428999998,119.77634240000043,119.77634240000043,119.77634240000043,119.77634240000043,,new_fruit_32.png,18,2.0,1.5536084999994273,,033,00,2025-01-07_16h23.39.205,Surprise recog test,2023.1.3,59.958257061393375,
18,0,18,0,,,,,,,,,,,,,,,,,,,,,,,,,,,,,,,,,,124.20805519999976,125.21299360000012,122.3438428999998,122.3438428999998,122.3438428999998,122.3438428999998,,old_stationery_2.png,19,1.0,1.8541569999997591,,033,00,2025-01-07_16h23.39.205,Surprise recog test,2023.1.3,59.958257061393375,
19,0,19,0,,,,,,,,,,,,,,,,,,,,,,,,,,,,,,,,,,127.51076269999976,128.51496860000043,125.21299360000012,125.21299360000012,125.21299360000012,125.21299360000012,,new_sceneIn_25.png,20,2.0,2.2874222000000373,,033,00,2025-01-07_16h23.39.205,Surprise recog test,2023.1.3,59.958257061393375,
20,0,20,0,,,,,,,,,,,,,,,,,,,,,,,,,,,,,,,,,,130.8336932000002,,128.51496860000043,128.51496860000043,128.51496860000043,128.51496860000043,,old_stationery_25.png,21,4.0,2.313719400000082,,033,00,2025-01-07_16h23.39.205,Surprise recog test,2023.1.3,59.958257061393375,
21,0,21,0,,,,,,,,,,,,,,,,,,,,,,,,,,,,,,,,,,134.53834050000023,135.56465930000013,131.85301040000013,131.85301040000013,131.85301040000013,131.85301040000013,,new_fruit_28.png,22,3.0,2.6817001999997956,,033,00,2025-01-07_16h23.39.205,Surprise recog test,2023.1.3,59.958257061393375,
22,0,22,0,,,,,,,,,,,,,,,,,,,,,,,,,,,,,,,,,,137.6912086000002,138.71694240000033,135.56465930000013,135.56465930000013,135.56465930000013,135.56465930000013,,old_sceneOut_37.png,23,4.0,2.128225000000384,,033,00,2025-01-07_16h23.39.205,Surprise recog test,2023.1.3,59.958257061393375,
23,0,23,0,,,,,,,,,,,,,,,,,,,,,,,,,,,,,,,,,,140.39851439999984,141.42080710000027,138.71694240000033,138.71694240000033,138.71694240000033,138.71694240000033,,new_fruit_49.png,24,2.0,1.6776049000000057,,033,00,2025-01-07_16h23.39.205,Surprise recog test,2023.1.3,59.958257061393375,
24,0,24,0,,,,,,,,,,,,,,,,,,,,,,,,,,,,,,,,,,143.75808119999965,144.7656216000005,141.42080710000027,141.42080710000027,141.42080710000027,141.42080710000027,,new_stationery_48.png,25,5.0,2.339972900000248,,033,00,2025-01-07_16h23.39.205,Surprise recog test,2023.1.3,59.958257061393375,
25,0,25,0,,,,,,,,,,,,,,,,,,,,,,,,,,,,,,,,,,146.76175369999964,147.76805590000004,144.7656216000005,144.7656216000005,144.7656216000005,144.7656216000005,,new_fruit_29.png,26,4.0,1.9913056000004872,,033,00,2025-01-07_16h23.39.205,Surprise recog test,2023.1.3,59.958257061393375,
26,0,26,0,,,,,,,,,,,,,,,,,,,,,,,,,,,,,,,,,,149.9263916,150.93357519999972,147.76805590000004,147.76805590000004,147.76805590000004,147.76805590000004,,new_sceneIn_15.png,27,5.0,2.156621400000404,,033,00,2025-01-07_16h23.39.205,Surprise recog test,2023.1.3,59.958257061393375,
27,0,27,0,,,,,,,,,,,,,,,,,,,,,,,,,,,,,,,,,,153.72484900000018,154.74629259999983,150.93357519999972,150.93357519999972,150.93357519999972,150.93357519999972,,old_fruit_33.png,28,3.0,2.7874455999999554,,033,00,2025-01-07_16h23.39.205,Surprise recog test,2023.1.3,59.958257061393375,
28,0,28,0,,,,,,,,,,,,,,,,,,,,,,,,,,,,,,,,,,156.83665329999985,157.85535580000032,154.74629259999983,154.74629259999983,154.74629259999983,154.74629259999983,,new_sceneIn_18.png,29,4.0,2.0914198999998916,,033,00,2025-01-07_16h23.39.205,Surprise recog test,2023.1.3,59.958257061393375,
29,0,29,0,,,,,,,,,,,,,,,,,,,,,,,,,,,,,,,,,,159.52475649999997,,157.85535580000032,157.85535580000032,157.85535580000032,157.85535580000032,,old_sceneIn_12.png,30,2.0,1.6709686000003785,,033,00,2025-01-07_16h23.39.205,Surprise recog test,2023.1.3,59.958257061393375,
30,0,30,0,,,,,,,,,,,,,,,,,,,,,,,,,,,,,,,,,,162.7684478000001,163.78160600000047,160.54404700000032,160.54404700000032,160.54404700000032,160.54404700000032,,new_fruit_19.png,31,4.0,2.218435099999624,,033,00,2025-01-07_16h23.39.205,Surprise recog test,2023.1.3,59.958257061393375,
31,0,31,0,,,,,,,,,,,,,,,,,,,,,,,,,,,,,,,,,,166.51017589999992,167.5258219999996,163.78160600000047,163.78160600000047,163.78160600000047,163.78160600000047,,old_fruit_10.png,32,3.0,2.7221810000000914,,033,00,2025-01-07_16h23.39.205,Surprise recog test,2023.1.3,59.958257061393375,
32,0,32,0,,,,,,,,,,,,,,,,,,,,,,,,,,,,,,,,,,169.60658429999967,170.63140610000028,167.5258219999996,167.5258219999996,167.5258219999996,167.5258219999996,,old_sceneOut_43.png,33,2.0,2.0779985999997734,,033,00,2025-01-07_16h23.39.205,Surprise recog test,2023.1.3,59.958257061393375,
33,0,33,0,,,,,,,,,,,,,,,,,,,,,,,,,,,,,,,,,,172.71733109999968,,170.63140610000028,170.63140610000028,170.63140610000028,170.63140610000028,,new_sceneIn_43.png,34,5.0,2.0879688000004535,,033,00,2025-01-07_16h23.39.205,Surprise recog test,2023.1.3,59.958257061393375,
34,0,34,0,,,,,,,,,,,,,,,,,,,,,,,,,,,,,,,,,,175.79116760000034,176.8079899000004,173.7408016999998,173.7408016999998,173.7408016999998,173.7408016999998,,old_sceneIn_25.png,35,4.0,2.0456818000002386,,033,00,2025-01-07_16h23.39.205,Surprise recog test,2023.1.3,59.958257061393375,
35,0,35,0,,,,,,,,,,,,,,,,,,,,,,,,,,,,,,,,,,179.5189032999997,180.52531569999974,176.8079899000004,176.8079899000004,176.8079899000004,176.8079899000004,,old_fruit_38.png,36,2.0,2.708312799999476,,033,00,2025-01-07_16h23.39.205,Surprise recog test,2023.1.3,59.958257061393375,
36,0,36,0,,,,,,,,,,,,,,,,,,,,,,,,,,,,,,,,,,183.169981,184.18219239999962,180.52531569999974,180.52531569999974,180.52531569999974,180.52531569999974,,old_fruit_3.png,37,3.0,2.6393363000006502,,033,00,2025-01-07_16h23.39.205,Surprise recog test,2023.1.3,59.958257061393375,
37,0,37,0,,,,,,,,,,,,,,,,,,,,,,,,,,,,,,,,,,186.21429460000036,187.23323989999972,184.18219239999962,184.18219239999962,184.18219239999962,184.18219239999962,,old_sceneOut_22.png,38,2.0,2.0274092999998174,,033,00,2025-01-07_16h23.39.205,Surprise recog test,2023.1.3,59.958257061393375,
38,0,38,0,,,,,,,,,,,,,,,,,,,,,,,,,,,,,,,,,,189.013199,190.02809030000026,187.23323989999972,187.23323989999972,187.23323989999972,187.23323989999972,,old_stationery_44.png,39,1.0,1.7752282999999807,,033,00,2025-01-07_16h23.39.205,Surprise recog test,2023.1.3,59.958257061393375,
39,0,39,0,,,,,,,,,,,,,,,,,,,,,,,,,,,,,,,,,,192.18565409999974,,190.02809030000026,190.02809030000026,190.02809030000026,190.02809030000026,,new_fruit_12.png,40,3.0,2.157009200000175,,033,00,2025-01-07_16h23.39.205,Surprise recog test,2023.1.3,59.958257061393375,
40,0,40,0,,,,,,,,,,,,,,,,,,,,,,,,,,,,,,,,,,195.0461175999999,196.06011200000012,193.21523390000038,193.21523390000038,193.21523390000038,193.21523390000038,,new_stationery_29.png,41,5.0,1.8302929000001313,,033,00,2025-01-07_16h23.39.205,Surprise recog test,2023.1.3,59.958257061393375,
41,0,41,0,,,,,,,,,,,,,,,,,,,,,,,,,,,,,,,,,,197.62299789999997,,196.06011200000012,196.06011200000012,196.06011200000012,196.06011200000012,,new_fruit_27.png,42,2.0,1.5627396999998382,,033,00,2025-01-07_16h23.39.205,Surprise recog test,2023.1.3,59.958257061393375,
42,0,42,0,,,,,,,,,,,,,,,,,,,,,,,,,,,,,,,,,,200.54627379999965,201.57085160000042,198.64377010000044,198.64377010000044,198.64377010000044,198.64377010000044,,old_fruit_42.png,43,2.0,1.89663980000023,,033,00,2025-01-07_16h23.39.205,Surprise recog test,2023.1.3,59.958257061393375,
43,0,43,0,,,,,,,,,,,,,,,,,,,,,,,,,,,,,,,,,,203.28391040000042,204.30745750000006,201.57085160000042,201.57085160000042,201.57085160000042,201.57085160000042,,new_stationery_21.png,44,4.0,1.7153508999999758,,033,00,2025-01-07_16h23.39.205,Surprise recog test,2023.1.3,59.958257061393375,
44,0,44,0,,,,,,,,,,,,,,,,,,,,,,,,,,,,,,,,,,206.42694980000033,207.44166769999993,204.30745750000006,204.30745750000006,204.30745750000006,204.30745750000006,,old_sceneIn_17.png,45,3.0,2.1215561000008165,,033,00,2025-01-07_16h23.39.205,Surprise recog test,2023.1.3,59.958257061393375,
45,0,45,0,,,,,,,,,,,,,,,,,,,,,,,,,,,,,,,,,,209.58534090000012,210.60027360000004,207.44166769999993,207.44166769999993,207.44166769999993,207.44166769999993,,old_sceneIn_35.png,46,2.0,2.1450621000003594,,033,00,2025-01-07_16h23.39.205,Surprise recog test,2023.1.3,59.958257061393375,
46,0,46,0,,,,,,,,,,,,,,,,,,,,,,,,,,,,,,,,,,212.2617368000001,213.28599039999972,210.60027360000004,210.60027360000004,210.60027360000004,210.60027360000004,,old_stationery_22.png,47,1.0,1.6575671000000511,,033,00,2025-01-07_16h23.39.205,Surprise recog test,2023.1.3,59.958257061393375,
47,0,47,0,,,,,,,,,,,,,,,,,,,,,,,,,,,,,,,,,,216.72791130000041,217.75652749999972,213.28599039999972,213.28599039999972,213.28599039999972,213.28599039999972,,old_sceneOut_8.png,48,2.0,3.4423288000007233,,033,00,2025-01-07_16h23.39.205,Surprise recog test,2023.1.3,59.958257061393375,
48,0,48,0,,,,,,,,,,,,,,,,,,,,,,,,,,,,,,,,,,219.72759250000036,220.74686550000024,217.75652749999972,217.75652749999972,217.75652749999972,217.75652749999972,,new_sceneOut_27.png,49,3.0,1.9732303000000684,,033,00,2025-01-07_16h23.39.205,Surprise recog test,2023.1.3,59.958257061393375,
49,0,49,0,,,,,,,,,,,,,,,,,,,,,,,,,,,,,,,,,,222.60387730000002,223.6277028000004,220.74686550000024,220.74686550000024,220.74686550000024,220.74686550000024,,old_sceneIn_6.png,50,1.0,1.8554332000003342,,033,00,2025-01-07_16h23.39.205,Surprise recog test,2023.1.3,59.958257061393375,
50,0,50,0,,,,,,,,,,,,,,,,,,,,,,,,,,,,,,,,,,226.43252480000046,227.46526509999967,223.6277028000004,223.6277028000004,223.6277028000004,223.6277028000004,,new_stationery_4.png,51,4.0,2.8089759999993476,,033,00,2025-01-07_16h23.39.205,Surprise recog test,2023.1.3,59.958257061393375,
51,0,51,0,,,,,,,,,,,,,,,,,,,,,,,,,,,,,,,,,,229.2148619999998,,227.46526509999967,227.46526509999967,227.46526509999967,227.46526509999967,,old_stationery_14.png,52,1.0,1.7522732999996151,,033,00,2025-01-07_16h23.39.205,Surprise recog test,2023.1.3,59.958257061393375,
52,0,52,0,,,,,,,,,,,,,,,,,,,,,,,,,,,,,,,,,,233.44414039999992,234.4578236999996,230.25134220000018,230.25134220000018,230.25134220000018,230.25134220000018,,new_sceneIn_50.png,53,3.0,3.1967134999995324,,033,00,2025-01-07_16h23.39.205,Surprise recog test,2023.1.3,59.958257061393375,
53,0,53,0,,,,,,,,,,,,,,,,,,,,,,,,,,,,,,,,,,237.5689854000002,238.59009070000047,234.4578236999996,234.4578236999996,234.4578236999996,234.4578236999996,,new_sceneIn_28.png,54,4.0,3.103957899999841,,033,00,2025-01-07_16h23.39.205,Surprise recog test,2023.1.3,59.958257061393375,
54,0,54,0,,,,,,,,,,,,,,,,,,,,,,,,,,,,,,,,,,242.21750040000006,243.23983969999972,238.59009070000047,238.59009070000047,238.59009070000047,238.59009070000047,,new_sceneIn_40.png,55,3.0,3.6280110999996396,,033,00,2025-01-07_16h23.39.205,Surprise recog test,2023.1.3,59.958257061393375,
55,0,55,0,,,,,,,,,,,,,,,,,,,,,,,,,,,,,,,,,,245.53863160000037,246.56128230000013,243.23983969999972,243.23983969999972,243.23983969999972,243.23983969999972,,new_sceneIn_9.png,56,2.0,2.299739199999749,,033,00,2025-01-07_16h23.39.205,Surprise recog test,2023.1.3,59.958257061393375,
56,0,56,0,,,,,,,,,,,,,,,,,,,,,,,,,,,,,,,,,,248.79517769999984,249.81205370000043,246.56128230000013,246.56128230000013,246.56128230000013,246.56128230000013,,new_fruit_10.png,57,4.0,2.230731900000137,,033,00,2025-01-07_16h23.39.205,Surprise recog test,2023.1.3,59.958257061393375,
57,0,57,0,,,,,,,,,,,,,,,,,,,,,,,,,,,,,,,,,,252.66108640000039,253.67509880000034,249.81205370000043,249.81205370000043,249.81205370000043,249.81205370000043,,new_sceneIn_4.png,58,3.0,2.848632700000053,,033,00,2025-01-07_16h23.39.205,Surprise recog test,2023.1.3,59.958257061393375,
58,0,58,0,,,,,,,,,,,,,,,,,,,,,,,,,,,,,,,,,,255.88900860000012,256.9064317000002,253.67509880000034,253.67509880000034,253.67509880000034,253.67509880000034,,new_sceneOut_12.png,59,3.0,2.211428800000249,,033,00,2025-01-07_16h23.39.205,Surprise recog test,2023.1.3,59.958257061393375,
59,0,59,0,,,,,,,,,,,,,,,,,,,,,,,,,,,,,,,,,,258.84593829999994,259.85815600000024,256.9064317000002,256.9064317000002,256.9064317000002,256.9064317000002,,old_fruit_22.png,60,2.0,1.9362910999998348,,033,00,2025-01-07_16h23.39.205,Surprise recog test,2023.1.3,59.958257061393375,
60,0,60,0,,,,,,,,,,,,,,,,,,,,,,,,,,,,,,,,,,261.88701760000004,262.9114347000004,259.85815600000024,259.85815600000024,259.85815600000024,259.85815600000024,,new_fruit_5.png,61,2.0,2.0243408999995154,,033,00,2025-01-07_16h23.39.205,Surprise recog test,2023.1.3,59.958257061393375,
61,0,61,0,,,,,,,,,,,,,,,,,,,,,,,,,,,,,,,,,,265.13250919999973,266.16115139999965,262.9114347000004,262.9114347000004,262.9114347000004,262.9114347000004,,old_sceneIn_30.png,62,4.0,2.224387499999466,,033,00,2025-01-07_16h23.39.205,Surprise recog test,2023.1.3,59.958257061393375,
62,0,62,0,,,,,,,,,,,,,,,,,,,,,,,,,,,,,,,,,,267.64188300000023,268.65723119999984,266.16115139999965,266.16115139999965,266.16115139999965,266.16115139999965,,old_fruit_19.png,63,2.0,1.4818795999999566,,033,00,2025-01-07_16h23.39.205,Surprise recog test,2023.1.3,59.958257061393375,
63,0,63,0,,,,,,,,,,,,,,,,,,,,,,,,,,,,,,,,,,270.65784669999994,271.68788289999975,268.65723119999984,268.65723119999984,268.65723119999984,268.65723119999984,,new_stationery_19.png,64,1.0,1.9952542000000903,,033,00,2025-01-07_16h23.39.205,Surprise recog test,2023.1.3,59.958257061393375,
64,0,64,0,,,,,,,,,,,,,,,,,,,,,,,,,,,,,,,,,,275.50926789999994,276.53475960000014,271.68788289999975,271.68788289999975,271.68788289999975,271.68788289999975,,new_sceneOut_16.png,65,3.0,3.8244104999994306,,033,00,2025-01-07_16h23.39.205,Surprise recog test,2023.1.3,59.958257061393375,
65,0,65,0,,,,,,,,,,,,,,,,,,,,,,,,,,,,,,,,,,278.63680639999984,279.64511479999965,276.53475960000014,276.53475960000014,276.53475960000014,276.53475960000014,,new_fruit_48.png,66,4.0,2.1015920999998343,,033,00,2025-01-07_16h23.39.205,Surprise recog test,2023.1.3,59.958257061393375,
66,0,66,0,,,,,,,,,,,,,,,,,,,,,,,,,,,,,,,,,,282.1486973000001,283.1716585000004,279.64511479999965,279.64511479999965,279.64511479999965,279.64511479999965,,old_stationery_39.png,67,1.0,2.4994787999994514,,033,00,2025-01-07_16h23.39.205,Surprise recog test,2023.1.3,59.958257061393375,
67,0,67,0,,,,,,,,,,,,,,,,,,,,,,,,,,,,,,,,,,285.11227380000037,,283.1716585000004,283.1716585000004,283.1716585000004,283.1716585000004,,new_fruit_7.png,68,3.0,1.93748289999985,,033,00,2025-01-07_16h23.39.205,Surprise recog test,2023.1.3,59.958257061393375,
68,0,68,0,,,,,,,,,,,,,,,,,,,,,,,,,,,,,,,,,,288.46878949999973,289.4916725000003,286.14221,286.14221,286.14221,286.14221,,old_fruit_31.png,69,4.0,2.329378700000234,,033,00,2025-01-07_16h23.39.205,Surprise recog test,2023.1.3,59.958257061393375,
69,0,69,0,,,,,,,,,,,,,,,,,,,,,,,,,,,,,,,,,,292.7102928000004,293.73609020000004,289.4916725000003,289.4916725000003,289.4916725000003,289.4916725000003,,old_stationery_32.png,70,1.0,3.217318900000464,,033,00,2025-01-07_16h23.39.205,Surprise recog test,2023.1.3,59.958257061393375,
70,0,70,0,,,,,,,,,,,,,,,,,,,,,,,,,,,,,,,,,,295.4898702999999,296.5148677999996,293.73609020000004,293.73609020000004,293.73609020000004,293.73609020000004,,old_stationery_37.png,71,1.0,1.7556101000000126,,033,00,2025-01-07_16h23.39.205,Surprise recog test,2023.1.3,59.958257061393375,
71,0,71,0,,,,,,,,,,,,,,,,,,,,,,,,,,,,,,,,,,298.83605199999965,299.8605085999998,296.5148677999996,296.5148677999996,296.5148677999996,296.5148677999996,,old_sceneOut_46.png,72,2.0,2.3219412999997076,,033,00,2025-01-07_16h23.39.205,Surprise recog test,2023.1.3,59.958257061393375,
72,0,72,0,,,,,,,,,,,,,,,,,,,,,,,,,,,,,,,,,,302.07499110000026,,299.8605085999998,299.8605085999998,299.8605085999998,299.8605085999998,,old_sceneIn_21.png,73,4.0,2.2150879000000714,,033,00,2025-01-07_16h23.39.205,Surprise recog test,2023.1.3,59.958257061393375,
73,0,73,0,,,,,,,,,,,,,,,,,,,,,,,,,,,,,,,,,,305.42575810000017,306.4310937,303.1067740999997,303.1067740999997,303.1067740999997,303.1067740999997,,old_fruit_29.png,74,3.0,2.3148974000005182,,033,00,2025-01-07_16h23.39.205,Surprise recog test,2023.1.3,59.958257061393375,
74,0,74,0,,,,,,,,,,,,,,,,,,,,,,,,,,,,,,,,,,308.7006183000003,309.7167978999996,306.4310937,306.4310937,306.4310937,306.4310937,,new_sceneOut_21.png,75,2.0,2.266099899999972,,033,00,2025-01-07_16h23.39.205,Surprise recog test,2023.1.3,59.958257061393375,
75,0,75,0,,,,,,,,,,,,,,,,,,,,,,,,,,,,,,,,,,311.2162486999996,,309.7167978999996,309.7167978999996,309.7167978999996,309.7167978999996,,old_fruit_12.png,76,2.0,1.493296300000111,,033,00,2025-01-07_16h23.39.205,Surprise recog test,2023.1.3,59.958257061393375,
76,0,76,0,,,,,,,,,,,,,,,,,,,,,,,,,,,,,,,,,,314.4915540000002,315.5162212000005,312.2381564999996,312.2381564999996,312.2381564999996,312.2381564999996,,new_fruit_15.png,77,3.0,2.247634599999401,,033,00,2025-01-07_16h23.39.205,Surprise recog test,2023.1.3,59.958257061393375,
77,0,77,0,,,,,,,,,,,,,,,,,,,,,,,,,,,,,,,,,,317.60108930000024,318.62020719999964,315.5162212000005,315.5162212000005,315.5162212000005,315.5162212000005,,old_stationery_47.png,78,1.0,2.086548300000686,,033,00,2025-01-07_16h23.39.205,Surprise recog test,2023.1.3,59.958257061393375,
78,0,78,0,,,,,,,,,,,,,,,,,,,,,,,,,,,,,,,,,,320.10603850000007,321.1090608000004,318.62020719999964,318.62020719999964,318.62020719999964,318.62020719999964,,old_stationery_11.png,79,1.0,1.4868764000002557,,033,00,2025-01-07_16h23.39.205,Surprise recog test,2023.1.3,59.958257061393375,
79,0,79,0,,,,,,,,,,,,,,,,,,,,,,,,,,,,,,,,,,323.12370999999985,324.14483519999976,321.1090608000004,321.1090608000004,321.1090608000004,321.1090608000004,,new_stationery_40.png,80,1.0,2.0066578000005393,,033,00,2025-01-07_16h23.39.205,Surprise recog test,2023.1.3,59.958257061393375,
80,0,80,0,,,,,,,,,,,,,,,,,,,,,,,,,,,,,,,,,,326.3163457999999,327.34663400000045,324.14483519999976,324.14483519999976,324.14483519999976,324.14483519999976,,old_sceneOut_40.png,81,4.0,2.173515600000428,,033,00,2025-01-07_16h23.39.205,Surprise recog test,2023.1.3,59.958257061393375,
81,0,81,0,,,,,,,,,,,,,,,,,,,,,,,,,,,,,,,,,,329.6875106999996,330.70117279999977,327.34663400000045,327.34663400000045,327.34663400000045,327.34663400000045,,new_sceneOut_7.png,82,4.0,2.343318199999885,,033,00,2025-01-07_16h23.39.205,Surprise recog test,2023.1.3,59.958257061393375,
82,0,82,0,,,,,,,,,,,,,,,,,,,,,,,,,,,,,,,,,,332.79654500000015,333.8064402,330.70117279999977,330.70117279999977,330.70117279999977,330.70117279999977,,old_fruit_7.png,83,2.0,2.092330100000254,,033,00,2025-01-07_16h23.39.205,Surprise recog test,2023.1.3,59.958257061393375,
83,0,83,0,,,,,,,,,,,,,,,,,,,,,,,,,,,,,,,,,,335.42740779999986,336.45467240000016,333.8064402,333.8064402,333.8064402,333.8064402,,old_fruit_21.png,84,1.0,1.614426099999946,,033,00,2025-01-07_16h23.39.205,Surprise recog test,2023.1.3,59.958257061393375,
84,0,84,0,,,,,,,,,,,,,,,,,,,,,,,,,,,,,,,,,,338.45100209999964,339.47620370000004,336.45467240000016,336.45467240000016,336.45467240000016,336.45467240000016,,old_sceneOut_36.png,85,3.0,1.9967108999999255,,033,00,2025-01-07_16h23.39.205,Surprise recog test,2023.1.3,59.958257061393375,
85,0,85,0,,,,,,,,,,,,,,,,,,,,,,,,,,,,,,,,,,342.2347079000001,343.25091470000007,339.47620370000004,339.47620370000004,339.47620370000004,339.47620370000004,,new_stationery_3.png,86,4.0,2.7617745000006835,,033,00,2025-01-07_16h23.39.205,Surprise recog test,2023.1.3,59.958257061393375,
86,0,86,0,,,,,,,,,,,,,,,,,,,,,,,,,,,,,,,,,,346.7354974,347.7654474000001,343.25091470000007,343.25091470000007,343.25091470000007,343.25091470000007,,new_sceneOut_20.png,87,4.0,3.4770445000003747,,033,00,2025-01-07_16h23.39.205,Surprise recog test,2023.1.3,59.958257061393375,
87,0,87,0,,,,,,,,,,,,,,,,,,,,,,,,,,,,,,,,,,349.54883119999977,,347.7654474000001,347.7654474000001,347.7654474000001,347.7654474000001,,new_sceneOut_37.png,88,3.0,1.7829804000002696,,033,00,2025-01-07_16h23.39.205,Surprise recog test,2023.1.3,59.958257061393375,
88,0,88,0,,,,,,,,,,,,,,,,,,,,,,,,,,,,,,,,,,353.5481491999999,354.5569988999996,350.56959730000017,350.56959730000017,350.56959730000017,350.56959730000017,,new_sceneIn_36.png,89,4.0,2.973189199999979,,033,00,2025-01-07_16h23.39.205,Surprise recog test,2023.1.3,59.958257061393375,
89,0,89,0,,,,,,,,,,,,,,,,,,,,,,,,,,,,,,,,,,356.19540210000014,357.20627179999974,354.5569988999996,354.5569988999996,354.5569988999996,354.5569988999996,,old_fruit_36.png,90,2.0,1.634718199999952,,033,00,2025-01-07_16h23.39.205,Surprise recog test,2023.1.3,59.958257061393375,
90,0,90,0,,,,,,,,,,,,,,,,,,,,,,,,,,,,,,,,,,358.67812030000005,359.70804339999995,357.20627179999974,357.20627179999974,357.20627179999974,357.20627179999974,,old_sceneOut_49.png,91,2.0,1.4687599999997474,,033,00,2025-01-07_16h23.39.205,Surprise recog test,2023.1.3,59.958257061393375,
91,0,91,0,,,,,,,,,,,,,,,,,,,,,,,,,,,,,,,,,,361.6556363999998,362.6756795000001,359.70804339999995,359.70804339999995,359.70804339999995,359.70804339999995,,new_fruit_11.png,92,5.0,1.9431950000007419,,033,00,2025-01-07_16h23.39.205,Surprise recog test,2023.1.3,59.958257061393375,
92,0,92,0,,,,,,,,,,,,,,,,,,,,,,,,,,,,,,,,,,364.0897637999997,365.09936000000016,362.6756795000001,362.6756795000001,362.6756795000001,362.6756795000001,,old_fruit_14.png,93,5.0,1.4154747000002317,,033,00,2025-01-07_16h23.39.205,Surprise recog test,2023.1.3,59.958257061393375,
93,0,93,0,,,,,,,,,,,,,,,,,,,,,,,,,,,,,,,,,,367.61068239999986,368.6307231999999,365.09936000000016,365.09936000000016,365.09936000000016,365.09936000000016,,new_stationery_11.png,94,4.0,2.5010388999999122,,033,00,2025-01-07_16h23.39.205,Surprise recog test,2023.1.3,59.958257061393375,
94,0,94,0,,,,,,,,,,,,,,,,,,,,,,,,,,,,,,,,,,370.3385744999996,371.36219189999974,368.6307231999999,368.6307231999999,368.6307231999999,368.6307231999999,,old_sceneOut_38.png,95,3.0,1.70832320000045,,033,00,2025-01-07_16h23.39.205,Surprise recog test,2023.1.3,59.958257061393375,
95,0,95,0,,,,,,,,,,,,,,,,,,,,,,,,,,,,,,,,,,373.36067470000035,374.3743065999997,371.36219189999974,371.36219189999974,371.36219189999974,371.36219189999974,,new_sceneIn_17.png,96,5.0,1.9973092999998698,,033,00,2025-01-07_16h23.39.205,Surprise recog test,2023.1.3,59.958257061393375,
96,0,96,0,,,,,,,,,,,,,,,,,,,,,,,,,,,,,,,,,,375.9825334999996,377.00857819999965,374.3743065999997,374.3743065999997,374.3743065999997,374.3743065999997,,old_fruit_20.png,97,5.0,1.6040498999991541,,033,00,2025-01-07_16h23.39.205,Surprise recog test,2023.1.3,59.958257061393375,
97,0,97,0,,,,,,,,,,,,,,,,,,,,,,,,,,,,,,,,,,378.6592877000003,379.6895303000001,377.00857819999965,377.00857819999965,377.00857819999965,377.00857819999965,,old_fruit_6.png,98,4.0,1.6550491000007241,,033,00,2025-01-07_16h23.39.205,Surprise recog test,2023.1.3,59.958257061393375,
98,0,98,0,,,,,,,,,,,,,,,,,,,,,,,,,,,,,,,,,,381.2558703000004,382.2760645999997,379.6895303000001,379.6895303000001,379.6895303000001,379.6895303000001,,new_sceneOut_5.png,99,2.0,1.5663466999994853,,033,00,2025-01-07_16h23.39.205,Surprise recog test,2023.1.3,59.958257061393375,
99,0,99,0,,,,,,,,,,,,,,,,,,,,,,,,,,,,,,,,,,384.3308913000001,385.35507039999993,382.2760645999997,382.2760645999997,382.2760645999997,382.2760645999997,,new_sceneOut_3.png,100,3.0,2.057986799999526,,033,00,2025-01-07_16h23.39.205,Surprise recog test,2023.1.3,59.958257061393375,
100,0,100,0,,,,,,,,,,,,,,,,,,,,,,,,,,,,,,,,,,387.1141243000002,,385.35507039999993,385.35507039999993,385.35507039999993,385.35507039999993,,new_stationery_1.png,101,1.0,1.7594931999992696,,033,00,2025-01-07_16h23.39.205,Surprise recog test,2023.1.3,59.958257061393375,
101,0,101,0,,,,,,,,,,,,,,,,,,,,,,,,,,,,,,,,,,389.7307019,390.7497279999998,388.14491369999996,388.14491369999996,388.14491369999996,388.14491369999996,,old_fruit_39.png,102,3.0,1.5880236999992121,,033,00,2025-01-07_16h23.39.205,Surprise recog test,2023.1.3,59.958257061393375,
102,0,102,0,,,,,,,,,,,,,,,,,,,,,,,,,,,,,,,,,,392.85854329999984,393.87354049999976,390.7497279999998,390.7497279999998,390.7497279999998,390.7497279999998,,new_sceneIn_12.png,103,4.0,2.1102789999995366,,033,00,2025-01-07_16h23.39.205,Surprise recog test,2023.1.3,59.958257061393375,
103,0,103,0,,,,,,,,,,,,,,,,,,,,,,,,,,,,,,,,,,395.56003770000007,396.57294509999974,393.87354049999976,393.87354049999976,393.87354049999976,393.87354049999976,,old_stationery_12.png,104,1.0,1.682047400000556,,033,00,2025-01-07_16h23.39.205,Surprise recog test,2023.1.3,59.958257061393375,
104,0,104,0,,,,,,,,,,,,,,,,,,,,,,,,,,,,,,,,,,398.67591170000014,399.70944059999965,396.57294509999974,396.57294509999974,396.57294509999974,396.57294509999974,,new_fruit_6.png,105,2.0,2.097593699999379,,033,00,2025-01-07_16h23.39.205,Surprise recog test,2023.1.3,59.958257061393375,
105,0,105,0,,,,,,,,,,,,,,,,,,,,,,,,,,,,,,,,,,401.3818712000002,402.4074082999996,399.70944059999965,399.70944059999965,399.70944059999965,399.70944059999965,,old_sceneOut_13.png,106,2.0,1.6743819000002986,,033,00,2025-01-07_16h23.39.205,Surprise recog test,2023.1.3,59.958257061393375,
106,0,106,0,,,,,,,,,,,,,,,,,,,,,,,,,,,,,,,,,,405.0034131000002,406.01774660000046,402.4074082999996,402.4074082999996,402.4074082999996,402.4074082999996,,new_sceneIn_24.png,107,4.0,2.596223900000041,,033,00,2025-01-07_16h23.39.205,Surprise recog test,2023.1.3,59.958257061393375,
107,0,107,0,,,,,,,,,,,,,,,,,,,,,,,,,,,,,,,,,,408.9088720999998,409.9311754999999,406.01774660000046,406.01774660000046,406.01774660000046,406.01774660000046,,new_sceneIn_13.png,108,2.0,2.8871706999998423,,033,00,2025-01-07_16h23.39.205,Surprise recog test,2023.1.3,59.958257061393375,
108,0,108,0,,,,,,,,,,,,,,,,,,,,,,,,,,,,,,,,,,411.5653527000004,412.57247819999975,409.9311754999999,409.9311754999999,409.9311754999999,409.9311754999999,,old_stationery_40.png,109,1.0,1.6354387000001225,,033,00,2025-01-07_16h23.39.205,Surprise recog test,2023.1.3,59.958257061393375,
109,0,109,0,,,,,,,,,,,,,,,,,,,,,,,,,,,,,,,,,,414.9306282999996,415.9473148999996,412.57247819999975,412.57247819999975,412.57247819999975,412.57247819999975,,new_sceneOut_42.png,110,2.0,2.351596000000427,,033,00,2025-01-07_16h23.39.205,Surprise recog test,2023.1.3,59.958257061393375,
110,0,110,0,,,,,,,,,,,,,,,,,,,,,,,,,,,,,,,,,,417.6296050000001,418.65471609999986,415.9473148999996,415.9473148999996,415.9473148999996,415.9473148999996,,old_sceneIn_28.png,111,2.0,1.6840546999992512,,033,00,2025-01-07_16h23.39.205,Surprise recog test,2023.1.3,59.958257061393375,
111,0,111,0,,,,,,,,,,,,,,,,,,,,,,,,,,,,,,,,,,420.32749870000043,421.35965099999976,418.65471609999986,418.65471609999986,418.65471609999986,418.65471609999986,,old_fruit_34.png,112,2.0,1.6719672999997783,,033,00,2025-01-07_16h23.39.205,Surprise recog test,2023.1.3,59.958257061393375,
112,0,112,0,,,,,,,,,,,,,,,,,,,,,,,,,,,,,,,,,,423.0378307000001,424.05971260000024,421.35965099999976,421.35965099999976,421.35965099999976,421.35965099999976,,old_sceneOut_18.png,113,3.0,1.6797961000002033,,033,00,2025-01-07_16h23.39.205,Surprise recog test,2023.1.3,59.958257061393375,
113,0,113,0,,,,,,,,,,,,,,,,,,,,,,,,,,,,,,,,,,425.8530219000004,426.8644181999998,424.05971260000024,424.05971260000024,424.05971260000024,424.05971260000024,,new_fruit_18.png,114,4.0,1.7954230999994252,,033,00,2025-01-07_16h23.39.205,Surprise recog test,2023.1.3,59.958257061393375,
114,0,114,0,,,,,,,,,,,,,,,,,,,,,,,,,,,,,,,,,,428.8983035000001,,426.8644181999998,426.8644181999998,426.8644181999998,426.8644181999998,,new_sceneIn_10.png,115,2.0,2.0290963999996166,,033,00,2025-01-07_16h23.39.205,Surprise recog test,2023.1.3,59.958257061393375,
115,0,115,0,,,,,,,,,,,,,,,,,,,,,,,,,,,,,,,,,,431.5161602999997,,429.93030739999995,429.93030739999995,429.93030739999995,429.93030739999995,,old_stationery_16.png,116,1.0,1.5872865000001184,,033,00,2025-01-07_16h23.39.205,Surprise recog test,2023.1.3,59.958257061393375,
116,0,116,0,,,,,,,,,,,,,,,,,,,,,,,,,,,,,,,,,,433.8646299000002,434.8745693999999,432.5516676999996,432.5516676999996,432.5516676999996,432.5516676999996,,old_fruit_1.png,117,1.0,1.3156731999997646,,033,00,2025-01-07_16h23.39.205,Surprise recog test,2023.1.3,59.958257061393375,
117,0,117,0,,,,,,,,,,,,,,,,,,,,,,,,,,,,,,,,,,436.4220742999996,,434.8745693999999,434.8745693999999,434.8745693999999,434.8745693999999,,new_sceneOut_8.png,118,2.0,1.5427738999997018,,033,00,2025-01-07_16h23.39.205,Surprise recog test,2023.1.3,59.958257061393375,
118,0,118,0,,,,,,,,,,,,,,,,,,,,,,,,,,,,,,,,,,439.23179340000024,440.25353449999966,437.44930399999976,437.44930399999976,437.44930399999976,437.44930399999976,,new_sceneOut_23.png,119,5.0,1.7819319999998697,,033,00,2025-01-07_16h23.39.205,Surprise recog test,2023.1.3,59.958257061393375,
119,0,119,0,,,,,,,,,,,,,,,,,,,,,,,,,,,,,,,,,,442.17293119999977,443.18125080000027,440.25353449999966,440.25353449999966,440.25353449999966,440.25353449999966,,new_stationery_35.png,120,2.0,1.917205699999613,,033,00,2025-01-07_16h23.39.205,Surprise recog test,2023.1.3,59.958257061393375,
120,0,120,0,,,,,,,,,,,,,,,,,,,,,,,,,,,,,,,,,,445.1533688999998,446.1636473999997,443.18125080000027,443.18125080000027,443.18125080000027,443.18125080000027,,old_fruit_13.png,121,3.0,1.9655577000003177,,033,00,2025-01-07_16h23.39.205,Surprise recog test,2023.1.3,59.958257061393375,
121,0,121,0,,,,,,,,,,,,,,,,,,,,,,,,,,,,,,,,,,447.7985514000002,,446.1636473999997,446.1636473999997,446.1636473999997,446.1636473999997,,old_sceneIn_31.png,122,2.0,1.6290091999999277,,033,00,2025-01-07_16h23.39.205,Surprise recog test,2023.1.3,59.958257061393375,
122,0,122,0,,,,,,,,,,,,,,,,,,,,,,,,,,,,,,,,,,450.8214174000004,451.8434606999999,448.8313151000002,448.8313151000002,448.8313151000002,448.8313151000002,,new_fruit_38.png,123,1.0,1.9933152000003247,,033,00,2025-01-07_16h23.39.205,Surprise recog test,2023.1.3,59.958257061393375,
123,0,123,0,,,,,,,,,,,,,,,,,,,,,,,,,,,,,,,,,,453.0847371,,451.8434606999999,451.8434606999999,451.8434606999999,451.8434606999999,,old_stationery_29.png,124,1.0,1.2376852999996117,,033,00,2025-01-07_16h23.39.205,Surprise recog test,2023.1.3,59.958257061393375,
124,0,124,0,,,,,,,,,,,,,,,,,,,,,,,,,,,,,,,,,,456.1072505000002,457.13178789999984,454.1198280999997,454.1198280999997,454.1198280999997,454.1198280999997,,old_fruit_35.png,125,4.0,1.9904576999997516,,033,00,2025-01-07_16h23.39.205,Surprise recog test,2023.1.3,59.958257061393375,
125,0,125,0,,,,,,,,,,,,,,,,,,,,,,,,,,,,,,,,,,458.67041189999964,459.6883022000002,457.13178789999984,457.13178789999984,457.13178789999984,457.13178789999984,,new_fruit_22.png,126,3.0,1.5345486999995046,,033,00,2025-01-07_16h23.39.205,Surprise recog test,2023.1.3,59.958257061393375,
126,0,126,0,,,,,,,,,,,,,,,,,,,,,,,,,,,,,,,,,,463.13947590000043,464.16342989999976,459.6883022000002,459.6883022000002,459.6883022000002,459.6883022000002,,new_sceneIn_11.png,127,3.0,3.4523819999994885,,033,00,2025-01-07_16h23.39.205,Surprise recog test,2023.1.3,59.958257061393375,
127,0,127,0,,,,,,,,,,,,,,,,,,,,,,,,,,,,,,,,,,465.8795590999998,,464.16342989999976,464.16342989999976,464.16342989999976,464.16342989999976,,new_sceneIn_41.png,128,4.0,1.720024199999898,,033,00,2025-01-07_16h23.39.205,Surprise recog test,2023.1.3,59.958257061393375,
128,0,128,0,,,,,,,,,,,,,,,,,,,,,,,,,,,,,,,,,,468.9021438,469.91936799999985,466.9135876,466.9135876,466.9135876,466.9135876,,new_stationery_36.png,129,4.0,1.9916317999995954,,033,00,2025-01-07_16h23.39.205,Surprise recog test,2023.1.3,59.958257061393375,
129,0,129,0,,,,,,,,,,,,,,,,,,,,,,,,,,,,,,,,,,472.70222509999985,,469.91936799999985,469.91936799999985,469.91936799999985,469.91936799999985,,new_fruit_40.png,130,3.0,2.7788923000007344,,033,00,2025-01-07_16h23.39.205,Surprise recog test,2023.1.3,59.958257061393375,
130,0,130,0,,,,,,,,,,,,,,,,,,,,,,,,,,,,,,,,,,475.18366700000024,476.2035616000003,473.73149379999995,473.73149379999995,473.73149379999995,473.73149379999995,,new_sceneOut_33.png,131,2.0,1.4476420000000871,,033,00,2025-01-07_16h23.39.205,Surprise recog test,2023.1.3,59.958257061393375,
131,0,131,0,,,,,,,,,,,,,,,,,,,,,,,,,,,,,,,,,,478.2088291,479.22612240000035,476.2035616000003,476.2035616000003,476.2035616000003,476.2035616000003,,old_stationery_48.png,132,2.0,2.0060758999998143,,033,00,2025-01-07_16h23.39.205,Surprise recog test,2023.1.3,59.958257061393375,
132,0,132,0,,,,,,,,,,,,,,,,,,,,,,,,,,,,,,,,,,481.13437799999974,482.16175870000006,479.22612240000035,479.22612240000035,479.22612240000035,479.22612240000035,,new_stationery_50.png,133,4.0,1.9042519000004177,,033,00,2025-01-07_16h23.39.205,Surprise recog test,2023.1.3,59.958257061393375,
133,0,133,0,,,,,,,,,,,,,,,,,,,,,,,,,,,,,,,,,,484.40200689999983,485.4234355999997,482.16175870000006,482.16175870000006,482.16175870000006,482.16175870000006,,new_fruit_2.png,134,5.0,2.2443112000000838,,033,00,2025-01-07_16h23.39.205,Surprise recog test,2023.1.3,59.958257061393375,
134,0,134,0,,,,,,,,,,,,,,,,,,,,,,,,,,,,,,,,,,487.0000404000002,488.0330409999997,485.4234355999997,485.4234355999997,485.4234355999997,485.4234355999997,,new_sceneOut_41.png,135,2.0,1.5760824999997567,,033,00,2025-01-07_16h23.39.205,Surprise recog test,2023.1.3,59.958257061393375,
135,0,135,0,,,,,,,,,,,,,,,,,,,,,,,,,,,,,,,,,,490.0222891000003,491.0504331000002,488.0330409999997,488.0330409999997,488.0330409999997,488.0330409999997,,new_stationery_39.png,136,3.0,1.9921466999994664,,033,00,2025-01-07_16h23.39.205,Surprise recog test,2023.1.3,59.958257061393375,
136,0,136,0,,,,,,,,,,,,,,,,,,,,,,,,,,,,,,,,,,492.64324940000006,493.6575475999998,491.0504331000002,491.0504331000002,491.0504331000002,491.0504331000002,,new_fruit_3.png,137,4.0,1.5945606000004773,,033,00,2025-01-07_16h23.39.205,Surprise recog test,2023.1.3,59.958257061393375,
137,0,137,0,,,,,,,,,,,,,,,,,,,,,,,,,,,,,,,,,,495.35862890000044,496.3845647999997,493.6575475999998,493.6575475999998,493.6575475999998,493.6575475999998,,new_sceneOut_13.png,138,5.0,1.6963940000005095,,033,00,2025-01-07_16h23.39.205,Surprise recog test,2023.1.3,59.958257061393375,
138,0,138,0,,,,,,,,,,,,,,,,,,,,,,,,,,,,,,,,,,498.1194843000003,499.1395007000001,496.3845647999997,496.3845647999997,496.3845647999997,496.3845647999997,,old_sceneOut_1.png,139,3.0,1.7320835000000443,,033,00,2025-01-07_16h23.39.205,Surprise recog test,2023.1.3,59.958257061393375,
139,0,139,0,,,,,,,,,,,,,,,,,,,,,,,,,,,,,,,,,,501.4121436000005,502.42941640000026,499.1395007000001,499.1395007000001,499.1395007000001,499.1395007000001,,new_sceneIn_22.png,140,4.0,2.274076500000774,,033,00,2025-01-07_16h23.39.205,Surprise recog test,2023.1.3,59.958257061393375,
140,0,140,0,,,,,,,,,,,,,,,,,,,,,,,,,,,,,,,,,,504.70408430000043,505.72404670000014,502.42941640000026,502.42941640000026,502.42941640000026,502.42941640000026,,new_fruit_24.png,141,5.0,2.26983570000084,,033,00,2025-01-07_16h23.39.205,Surprise recog test,2023.1.3,59.958257061393375,
141,0,141,0,,,,,,,,,,,,,,,,,,,,,,,,,,,,,,,,,,507.9914553999997,509.0023930999996,505.72404670000014,505.72404670000014,505.72404670000014,505.72404670000014,,old_sceneOut_48.png,142,2.0,2.264402400000108,,033,00,2025-01-07_16h23.39.205,Surprise recog test,2023.1.3,59.958257061393375,
142,0,142,0,,,,,,,,,,,,,,,,,,,,,,,,,,,,,,,,,,511.4901077000004,512.5181419,509.0023930999996,509.0023930999996,509.0023930999996,509.0023930999996,,old_sceneIn_18.png,143,3.0,2.482742700000017,,033,00,2025-01-07_16h23.39.205,Surprise recog test,2023.1.3,59.958257061393375,
143,0,143,0,,,,,,,,,,,,,,,,,,,,,,,,,,,,,,,,,,514.2284467,515.2522489000003,512.5181419,512.5181419,512.5181419,512.5181419,,new_sceneOut_19.png,144,2.0,1.7125993999998173,,033,00,2025-01-07_16h23.39.205,Surprise recog test,2023.1.3,59.958257061393375,
144,0,144,0,,,,,,,,,,,,,,,,,,,,,,,,,,,,,,,,,,517.0796951000002,518.1086373999997,515.2522489000003,515.2522489000003,515.2522489000003,515.2522489000003,,old_sceneIn_36.png,145,1.0,1.8288178000002517,,033,00,2025-01-07_16h23.39.205,Surprise recog test,2023.1.3,59.958257061393375,
145,0,145,0,,,,,,,,,,,,,,,,,,,,,,,,,,,,,,,,,,520.3328067000002,521.3658936000002,518.1086373999997,518.1086373999997,518.1086373999997,518.1086373999997,,new_stationery_45.png,146,5.0,2.227819300000192,,033,00,2025-01-07_16h23.39.205,Surprise recog test,2023.1.3,59.958257061393375,
146,0,146,0,,,,,,,,,,,,,,,,,,,,,,,,,,,,,,,,,,523.1569019999997,524.1777013999999,521.3658936000002,521.3658936000002,521.3658936000002,521.3658936000002,,old_fruit_16.png,147,3.0,1.7893991999999344,,033,00,2025-01-07_16h23.39.205,Surprise recog test,2023.1.3,59.958257061393375,
147,0,147,0,,,,,,,,,,,,,,,,,,,,,,,,,,,,,,,,,,525.7614526999996,,524.1777013999999,524.1777013999999,524.1777013999999,524.1777013999999,,old_sceneIn_11.png,148,2.0,1.5855401999997412,,033,00,2025-01-07_16h23.39.205,Surprise recog test,2023.1.3,59.958257061393375,
148,0,148,0,,,,,,,,,,,,,,,,,,,,,,,,,,,,,,,,,,528.3948479999999,529.4013427999998,526.7882827000003,526.7882827000003,526.7882827000003,526.7882827000003,,old_sceneIn_43.png,149,1.0,1.5968333000000712,,033,00,2025-01-07_16h23.39.205,Surprise recog test,2023.1.3,59.958257061393375,
149,0,149,0,,,,,,,,,,,,,,,,,,,,,,,,,,,,,,,,,,531.3542949000002,532.3770009,529.4013427999998,529.4013427999998,529.4013427999998,529.4013427999998,,new_fruit_41.png,150,4.0,1.94752200000039,,033,00,2025-01-07_16h23.39.205,Surprise recog test,2023.1.3,59.958257061393375,
150,0,150,0,,,,,,,,,,,,,,,,,,,,,,,,,,,,,,,,,,534.5081653999996,535.5309343999998,532.3770009,532.3770009,532.3770009,532.3770009,,new_sceneIn_1.png,151,5.0,2.132338499999605,,033,00,2025-01-07_16h23.39.205,Surprise recog test,2023.1.3,59.958257061393375,
151,0,151,0,,,,,,,,,,,,,,,,,,,,,,,,,,,,,,,,,,536.9671672000004,537.9778641000003,535.5309343999998,535.5309343999998,535.5309343999998,535.5309343999998,,new_fruit_33.png,152,4.0,1.4299052000005759,,033,00,2025-01-07_16h23.39.205,Surprise recog test,2023.1.3,59.958257061393375,
152,0,152,0,,,,,,,,,,,,,,,,,,,,,,,,,,,,,,,,,,540.3742395999998,,537.9778641000003,537.9778641000003,537.9778641000003,537.9778641000003,,new_sceneIn_3.png,153,2.0,2.391173100000742,,033,00,2025-01-07_16h23.39.205,Surprise recog test,2023.1.3,59.958257061393375,
153,0,153,0,,,,,,,,,,,,,,,,,,,,,,,,,,,,,,,,,,542.7452934000003,543.7753576000005,541.4095557,541.4095557,541.4095557,541.4095557,,new_sceneOut_24.png,154,2.0,1.338678100000834,,033,00,2025-01-07_16h23.39.205,Surprise recog test,2023.1.3,59.958257061393375,
154,0,154,0,,,,,,,,,,,,,,,,,,,,,,,,,,,,,,,,,,546.6769565000004,547.703974,543.7753576000005,543.7753576000005,543.7753576000005,543.7753576000005,,old_stationery_17.png,155,3.0,2.902097300000605,,033,00,2025-01-07_16h23.39.205,Surprise recog test,2023.1.3,59.958257061393375,
155,0,155,0,,,,,,,,,,,,,,,,,,,,,,,,,,,,,,,,,,549.9530200999998,550.9813904000002,547.703974,547.703974,547.703974,547.703974,,new_fruit_13.png,156,4.0,2.252658899999915,,033,00,2025-01-07_16h23.39.205,Surprise recog test,2023.1.3,59.958257061393375,
156,0,156,0,,,,,,,,,,,,,,,,,,,,,,,,,,,,,,,,,,552.5168326000003,,550.9813904000002,550.9813904000002,550.9813904000002,550.9813904000002,,old_stationery_43.png,157,1.0,1.5350080999996862,,033,00,2025-01-07_16h23.39.205,Surprise recog test,2023.1.3,59.958257061393375,
157,0,157,0,,,,,,,,,,,,,,,,,,,,,,,,,,,,,,,,,,555.8681886000004,556.8906698999999,553.5512398999999,553.5512398999999,553.5512398999999,553.5512398999999,,old_sceneIn_24.png,158,1.0,2.3187378000002354,,033,00,2025-01-07_16h23.39.205,Surprise recog test,2023.1.3,59.958257061393375,
158,0,158,0,,,,,,,,,,,,,,,,,,,,,,,,,,,,,,,,,,558.7950622999997,559.8183618000003,556.8906698999999,556.8906698999999,556.8906698999999,556.8906698999999,,old_fruit_47.png,159,5.0,1.9044540999993842,,033,00,2025-01-07_16h23.39.205,Surprise recog test,2023.1.3,59.958257061393375,
159,0,159,0,,,,,,,,,,,,,,,,,,,,,,,,,,,,,,,,,,561.7848449000003,562.7976478,559.8183618000003,559.8183618000003,559.8183618000003,559.8183618000003,,new_fruit_47.png,160,4.0,1.9634901999997965,,033,00,2025-01-07_16h23.39.205,Surprise recog test,2023.1.3,59.958257061393375,
160,0,160,0,,,,,,,,,,,,,,,,,,,,,,,,,,,,,,,,,,564.9153833,565.9466868,562.7976478,562.7976478,562.7976478,562.7976478,,old_sceneIn_15.png,161,2.0,2.1135342999996283,,033,00,2025-01-07_16h23.39.205,Surprise recog test,2023.1.3,59.958257061393375,
161,0,161,0,,,,,,,,,,,,,,,,,,,,,,,,,,,,,,,,,,567.7289502000003,568.7462690000002,565.9466868,565.9466868,565.9466868,565.9466868,,old_fruit_28.png,162,3.0,1.7809950999999273,,033,00,2025-01-07_16h23.39.205,Surprise recog test,2023.1.3,59.958257061393375,
162,0,162,0,,,,,,,,,,,,,,,,,,,,,,,,,,,,,,,,,,571.0056567000001,572.0218591000003,568.7462690000002,568.7462690000002,568.7462690000002,568.7462690000002,,new_sceneOut_48.png,163,4.0,2.260776299999634,,033,00,2025-01-07_16h23.39.205,Surprise recog test,2023.1.3,59.958257061393375,
163,0,163,0,,,,,,,,,,,,,,,,,,,,,,,,,,,,,,,,,,573.8825168000003,574.9003762000002,572.0218591000003,572.0218591000003,572.0218591000003,572.0218591000003,,old_sceneIn_7.png,164,1.0,1.8525853000001007,,033,00,2025-01-07_16h23.39.205,Surprise recog test,2023.1.3,59.958257061393375,
164,0,164,0,,,,,,,,,,,,,,,,,,,,,,,,,,,,,,,,,,576.7530281999998,577.7747322000005,574.9003762000002,574.9003762000002,574.9003762000002,574.9003762000002,,old_sceneOut_17.png,165,5.0,1.8544389999997293,,033,00,2025-01-07_16h23.39.205,Surprise recog test,2023.1.3,59.958257061393375,
165,0,165,0,,,,,,,,,,,,,,,,,,,,,,,,,,,,,,,,,,579.5658521000005,580.5915345000003,577.7747322000005,577.7747322000005,577.7747322000005,577.7747322000005,,new_sceneIn_5.png,166,1.0,1.7940914000000703,,033,00,2025-01-07_16h23.39.205,Surprise recog test,2023.1.3,59.958257061393375,
166,0,166,0,,,,,,,,,,,,,,,,,,,,,,,,,,,,,,,,,,582.5472761000001,583.5726212,580.5915345000003,580.5915345000003,580.5915345000003,580.5915345000003,,new_stationery_37.png,167,2.0,1.9577896000000692,,033,00,2025-01-07_16h23.39.205,Surprise recog test,2023.1.3,59.958257061393375,
167,0,167,0,,,,,,,,,,,,,,,,,,,,,,,,,,,,,,,,,,585.6408965,586.6517604000001,583.5726212,583.5726212,583.5726212,583.5726212,,new_sceneOut_4.png,168,2.0,2.069050000000061,,033,00,2025-01-07_16h23.39.205,Surprise recog test,2023.1.3,59.958257061393375,
168,0,168,0,,,,,,,,,,,,,,,,,,,,,,,,,,,,,,,,,,588.7206641000002,589.7430488999998,586.6517604000001,586.6517604000001,586.6517604000001,586.6517604000001,,new_stationery_2.png,169,4.0,2.0644071999995504,,033,00,2025-01-07_16h23.39.205,Surprise recog test,2023.1.3,59.958257061393375,
169,0,169,0,,,,,,,,,,,,,,,,,,,,,,,,,,,,,,,,,,591.7089311,592.7344230999997,589.7430488999998,589.7430488999998,589.7430488999998,589.7430488999998,,new_sceneOut_50.png,170,3.0,1.9611514000007446,,033,00,2025-01-07_16h23.39.205,Surprise recog test,2023.1.3,59.958257061393375,
170,0,170,0,,,,,,,,,,,,,,,,,,,,,,,,,,,,,,,,,,594.6063039999999,595.6359611999997,592.7344230999997,592.7344230999997,592.7344230999997,592.7344230999997,,new_fruit_36.png,171,2.0,1.8742346999997608,,033,00,2025-01-07_16h23.39.205,Surprise recog test,2023.1.3,59.958257061393375,
171,0,171,0,,,,,,,,,,,,,,,,,,,,,,,,,,,,,,,,,,597.4255696,598.4548353,595.6359611999997,595.6359611999997,595.6359611999997,595.6359611999997,,old_sceneOut_45.png,172,3.0,1.7913205999993806,,033,00,2025-01-07_16h23.39.205,Surprise recog test,2023.1.3,59.958257061393375,
172,0,172,0,,,,,,,,,,,,,,,,,,,,,,,,,,,,,,,,,,600.2220521999998,601.239251,598.4548353,598.4548353,598.4548353,598.4548353,,old_fruit_8.png,173,1.0,1.7667301000001316,,033,00,2025-01-07_16h23.39.205,Surprise recog test,2023.1.3,59.958257061393375,
173,0,173,0,,,,,,,,,,,,,,,,,,,,,,,,,,,,,,,,,,603.3655875000004,604.3945397999996,601.239251,601.239251,601.239251,601.239251,,old_sceneIn_13.png,174,2.0,2.125031300000046,,033,00,2025-01-07_16h23.39.205,Surprise recog test,2023.1.3,59.958257061393375,
174,0,174,0,,,,,,,,,,,,,,,,,,,,,,,,,,,,,,,,,,606.2877582000001,607.3072315,604.3945397999996,604.3945397999996,604.3945397999996,604.3945397999996,,new_sceneOut_46.png,175,3.0,1.8953613000003315,,033,00,2025-01-07_16h23.39.205,Surprise recog test,2023.1.3,59.958257061393375,
175,0,175,0,,,,,,,,,,,,,,,,,,,,,,,,,,,,,,,,,,609.2003170999997,610.2177807999997,607.3072315,607.3072315,607.3072315,607.3072315,,old_stationery_8.png,176,1.0,1.8940789999996923,,033,00,2025-01-07_16h23.39.205,Surprise recog test,2023.1.3,59.958257061393375,
176,0,176,0,,,,,,,,,,,,,,,,,,,,,,,,,,,,,,,,,,611.5864809000004,612.6026570000004,610.2177807999997,610.2177807999997,610.2177807999997,610.2177807999997,,old_stationery_31.png,177,1.0,1.3620347000005495,,033,00,2025-01-07_16h23.39.205,Surprise recog test,2023.1.3,59.958257061393375,
177,0,177,0,,,,,,,,,,,,,,,,,,,,,,,,,,,,,,,,,,614.7268574,615.7424355000003,612.6026570000004,612.6026570000004,612.6026570000004,612.6026570000004,,new_stationery_10.png,178,2.0,2.121083300000464,,033,00,2025-01-07_16h23.39.205,Surprise recog test,2023.1.3,59.958257061393375,
178,0,178,0,,,,,,,,,,,,,,,,,,,,,,,,,,,,,,,,,,617.5407219999997,618.5602239999998,615.7424355000003,615.7424355000003,615.7424355000003,615.7424355000003,,new_stationery_20.png,179,4.0,1.7945356000000174,,033,00,2025-01-07_16h23.39.205,Surprise recog test,2023.1.3,59.958257061393375,
179,0,179,0,,,,,,,,,,,,,,,,,,,,,,,,,,,,,,,,,,620.1215728999996,621.1413662000004,618.5602239999998,618.5602239999998,618.5602239999998,618.5602239999998,,old_sceneOut_25.png,180,3.0,1.5573334000000614,,033,00,2025-01-07_16h23.39.205,Surprise recog test,2023.1.3,59.958257061393375,
180,0,180,0,,,,,,,,,,,,,,,,,,,,,,,,,,,,,,,,,,623.9773518000002,,621.1413662000004,621.1413662000004,621.1413662000004,621.1413662000004,,old_sceneIn_29.png,181,4.0,2.838182599999527,,033,00,2025-01-07_16h23.39.205,Surprise recog test,2023.1.3,59.958257061393375,
181,0,181,0,,,,,,,,,,,,,,,,,,,,,,,,,,,,,,,,,,627.4215566000003,628.4340492000001,624.9984328,624.9984328,624.9984328,624.9984328,,new_stationery_46.png,182,5.0,2.4193350999994436,,033,00,2025-01-07_16h23.39.205,Surprise recog test,2023.1.3,59.958257061393375,
182,0,182,0,,,,,,,,,,,,,,,,,,,,,,,,,,,,,,,,,,630.2269493000003,631.2356695999997,628.4340492000001,628.4340492000001,628.4340492000001,628.4340492000001,,new_stationery_23.png,183,4.0,1.7886392000000342,,033,00,2025-01-07_16h23.39.205,Surprise recog test,2023.1.3,59.958257061393375,
183,0,183,0,,,,,,,,,,,,,,,,,,,,,,,,,,,,,,,,,,633.5702099,634.5984010000002,631.2356695999997,631.2356695999997,631.2356695999997,631.2356695999997,,new_sceneOut_10.png,184,3.0,2.3315189000004466,,033,00,2025-01-07_16h23.39.205,Surprise recog test,2023.1.3,59.958257061393375,
184,0,184,0,,,,,,,,,,,,,,,,,,,,,,,,,,,,,,,,,,636.1751967999999,637.1930178000002,634.5984010000002,634.5984010000002,634.5984010000002,634.5984010000002,,old_sceneIn_10.png,185,1.0,1.5782836000007592,,033,00,2025-01-07_16h23.39.205,Surprise recog test,2023.1.3,59.958257061393375,
185,0,185,0,,,,,,,,,,,,,,,,,,,,,,,,,,,,,,,,,,639.0019567999998,640.0117923999996,637.1930178000002,637.1930178000002,637.1930178000002,637.1930178000002,,new_sceneIn_49.png,186,4.0,1.8044683999996778,,033,00,2025-01-07_16h23.39.205,Surprise recog test,2023.1.3,59.958257061393375,
186,0,186,0,,,,,,,,,,,,,,,,,,,,,,,,,,,,,,,,,,641.5738822000003,642.5941458999996,640.0117923999996,640.0117923999996,640.0117923999996,640.0117923999996,,old_sceneOut_19.png,187,5.0,1.5584133000002112,,033,00,2025-01-07_16h23.39.205,Surprise recog test,2023.1.3,59.958257061393375,
187,0,187,0,,,,,,,,,,,,,,,,,,,,,,,,,,,,,,,,,,644.4133738999999,645.4312619000002,642.5941458999996,642.5941458999996,642.5941458999996,642.5941458999996,,old_stationery_35.png,188,1.0,1.8219939000000522,,033,00,2025-01-07_16h23.39.205,Surprise recog test,2023.1.3,59.958257061393375,
188,0,188,0,,,,,,,,,,,,,,,,,,,,,,,,,,,,,,,,,,647.3236354000001,648.3513303999998,645.4312619000002,645.4312619000002,645.4312619000002,645.4312619000002,,old_sceneIn_26.png,189,4.0,1.8874904999993305,,033,00,2025-01-07_16h23.39.205,Surprise recog test,2023.1.3,59.958257061393375,
189,0,189,0,,,,,,,,,,,,,,,,,,,,,,,,,,,,,,,,,,651.8973779999997,652.9213300000001,648.3513303999998,648.3513303999998,648.3513303999998,648.3513303999998,,old_sceneIn_49.png,190,2.0,3.5477387000000817,,033,00,2025-01-07_16h23.39.205,Surprise recog test,2023.1.3,59.958257061393375,
190,0,190,0,,,,,,,,,,,,,,,,,,,,,,,,,,,,,,,,,,655.0536052999996,,652.9213300000001,652.9213300000001,652.9213300000001,652.9213300000001,,old_sceneIn_44.png,191,3.0,2.1365170999997645,,033,00,2025-01-07_16h23.39.205,Surprise recog test,2023.1.3,59.958257061393375,
191,0,191,0,,,,,,,,,,,,,,,,,,,,,,,,,,,,,,,,,,657.6890867000002,,656.0927893999997,656.0927893999997,656.0927893999997,656.0927893999997,,old_stationery_5.png,192,2.0,1.59994640000059,,033,00,2025-01-07_16h23.39.205,Surprise recog test,2023.1.3,59.958257061393375,
192,0,192,0,,,,,,,,,,,,,,,,,,,,,,,,,,,,,,,,,,660.3282852000002,661.3537655999999,658.7098827999998,658.7098827999998,658.7098827999998,658.7098827999998,,new_stationery_6.png,193,4.0,1.6140285000001313,,033,00,2025-01-07_16h23.39.205,Surprise recog test,2023.1.3,59.958257061393375,
193,0,193,0,,,,,,,,,,,,,,,,,,,,,,,,,,,,,,,,,,663.4181581000003,664.4279198000004,661.3537655999999,661.3537655999999,661.3537655999999,661.3537655999999,,old_sceneOut_32.png,194,4.0,2.065514100000655,,033,00,2025-01-07_16h23.39.205,Surprise recog test,2023.1.3,59.958257061393375,
194,0,194,0,,,,,,,,,,,,,,,,,,,,,,,,,,,,,,,,,,667.6787870999997,668.6815942000003,664.4279198000004,664.4279198000004,664.4279198000004,664.4279198000004,,old_stationery_46.png,195,2.0,3.2470828000004985,,033,00,2025-01-07_16h23.39.205,Surprise recog test,2023.1.3,59.958257061393375,
195,0,195,0,,,,,,,,,,,,,,,,,,,,,,,,,,,,,,,,,,671.5471668,672.5632722,668.6815942000003,668.6815942000003,668.6815942000003,668.6815942000003,,new_sceneOut_22.png,196,4.0,2.857432400000107,,033,00,2025-01-07_16h23.39.205,Surprise recog test,2023.1.3,59.958257061393375,
196,0,196,0,,,,,,,,,,,,,,,,,,,,,,,,,,,,,,,,,,675.6157776999999,676.6253409000001,672.5632722,672.5632722,672.5632722,672.5632722,,old_sceneIn_22.png,197,3.0,3.0514647999998488,,033,00,2025-01-07_16h23.39.205,Surprise recog test,2023.1.3,59.958257061393375,
197,0,197,0,,,,,,,,,,,,,,,,,,,,,,,,,,,,,,,,,,678.4987031000001,679.5183084,676.6253409000001,676.6253409000001,676.6253409000001,676.6253409000001,,old_sceneIn_2.png,198,2.0,1.8681183999997302,,033,00,2025-01-07_16h23.39.205,Surprise recog test,2023.1.3,59.958257061393375,
198,0,198,0,,,,,,,,,,,,,,,,,,,,,,,,,,,,,,,,,,681.5012612999999,682.5255989999996,679.5183084,679.5183084,679.5183084,679.5183084,,old_fruit_37.png,199,5.0,1.9852899999996225,,033,00,2025-01-07_16h23.39.205,Surprise recog test,2023.1.3,59.958257061393375,
199,0,199,0,,,,,,,,,,,,,,,,,,,,,,,,,,,,,,,,,,684.0241249999999,685.0452513,682.5255989999996,682.5255989999996,682.5255989999996,682.5255989999996,,new_stationery_5.png,200,4.0,1.4939025000003312,,033,00,2025-01-07_16h23.39.205,Surprise recog test,2023.1.3,59.958257061393375,
200,0,200,0,,,,,,,,,,,,,,,,,,,,,,,,,,,,,,,,,,687.1669800999998,688.1846846999997,685.0452513,685.0452513,685.0452513,685.0452513,,old_fruit_24.png,201,4.0,2.123859600000287,,033,00,2025-01-07_16h23.39.205,Surprise recog test,2023.1.3,59.958257061393375,
201,0,201,0,,,,,,,,,,,,,,,,,,,,,,,,,,,,,,,,,,690.4924518999997,691.5180373000003,688.1846846999997,688.1846846999997,688.1846846999997,688.1846846999997,,new_fruit_20.png,202,4.0,2.3036849999998594,,033,00,2025-01-07_16h23.39.205,Surprise recog test,2023.1.3,59.958257061393375,
202,0,202,0,,,,,,,,,,,,,,,,,,,,,,,,,,,,,,,,,,693.5397505000001,694.5649659000001,691.5180373000003,691.5180373000003,691.5180373000003,691.5180373000003,,old_sceneIn_14.png,203,1.0,2.024695499999325,,033,00,2025-01-07_16h23.39.205,Surprise recog test,2023.1.3,59.958257061393375,
203,0,203,0,,,,,,,,,,,,,,,,,,,,,,,,,,,,,,,,,,696.8051574000001,,694.5649659000001,694.5649659000001,694.5649659000001,694.5649659000001,,new_sceneIn_26.png,204,3.0,2.237892699999975,,033,00,2025-01-07_16h23.39.205,Surprise recog test,2023.1.3,59.958257061393375,
204,0,204,0,,,,,,,,,,,,,,,,,,,,,,,,,,,,,,,,,,699.2440513000001,700.2762769999999,697.8291502000002,697.8291502000002,697.8291502000002,697.8291502000002,,old_fruit_17.png,205,4.0,1.4143416000006255,,033,00,2025-01-07_16h23.39.205,Surprise recog test,2023.1.3,59.958257061393375,
205,0,205,0,,,,,,,,,,,,,,,,,,,,,,,,,,,,,,,,,,701.8569754999999,702.8759040000004,700.2762769999999,700.2762769999999,700.2762769999999,700.2762769999999,,old_sceneOut_39.png,206,3.0,1.5832611000005272,,033,00,2025-01-07_16h23.39.205,Surprise recog test,2023.1.3,59.958257061393375,
206,0,206,0,,,,,,,,,,,,,,,,,,,,,,,,,,,,,,,,,,705.1009172000004,706.1179155999998,702.8759040000004,702.8759040000004,702.8759040000004,702.8759040000004,,old_sceneIn_45.png,207,2.0,2.228275399999802,,033,00,2025-01-07_16h23.39.205,Surprise recog test,2023.1.3,59.958257061393375,
207,0,207,0,,,,,,,,,,,,,,,,,,,,,,,,,,,,,,,,,,707.9239625,708.9357964999999,706.1179155999998,706.1179155999998,706.1179155999998,706.1179155999998,,new_sceneOut_47.png,208,2.0,1.8045376999998552,,033,00,2025-01-07_16h23.39.205,Surprise recog test,2023.1.3,59.958257061393375,
208,0,208,0,,,,,,,,,,,,,,,,,,,,,,,,,,,,,,,,,,710.4550632999999,711.4797305000002,708.9357964999999,708.9357964999999,708.9357964999999,708.9357964999999,,old_stationery_7.png,209,1.0,1.5131311000004644,,033,00,2025-01-07_16h23.39.205,Surprise recog test,2023.1.3,59.958257061393375,
209,0,209,0,,,,,,,,,,,,,,,,,,,,,,,,,,,,,,,,,,715.2925834999996,716.3087765999999,711.4797305000002,711.4797305000002,711.4797305000002,711.4797305000002,,old_fruit_5.png,210,4.0,3.8104283000002397,,033,00,2025-01-07_16h23.39.205,Surprise recog test,2023.1.3,59.958257061393375,
210,0,210,0,,,,,,,,,,,,,,,,,,,,,,,,,,,,,,,,,,717.9228862999998,,716.3087765999999,716.3087765999999,716.3087765999999,716.3087765999999,,old_stationery_4.png,211,1.0,1.608853800000361,,033,00,2025-01-07_16h23.39.205,Surprise recog test,2023.1.3,59.958257061393375,
211,0,211,0,,,,,,,,,,,,,,,,,,,,,,,,,,,,,,,,,,721.1072795,,718.9431752999999,718.9431752999999,718.9431752999999,718.9431752999999,,new_sceneOut_44.png,212,3.0,2.157299000000421,,033,00,2025-01-07_16h23.39.205,Surprise recog test,2023.1.3,59.958257061393375,
212,0,212,0,,,,,,,,,,,,,,,,,,,,,,,,,,,,,,,,,,724.1974974000004,725.2298559999999,722.1413817000002,722.1413817000002,722.1413817000002,722.1413817000002,,old_stationery_27.png,213,1.0,2.05823429999964,,033,00,2025-01-07_16h23.39.205,Surprise recog test,2023.1.3,59.958257061393375,
213,0,213,0,,,,,,,,,,,,,,,,,,,,,,,,,,,,,,,,,,726.7169868000001,727.7456425,725.2298559999999,725.2298559999999,725.2298559999999,725.2298559999999,,new_stationery_15.png,214,1.0,1.4887334000004557,,033,00,2025-01-07_16h23.39.205,Surprise recog test,2023.1.3,59.958257061393375,
214,0,214,0,,,,,,,,,,,,,,,,,,,,,,,,,,,,,,,,,,730.5730847000004,731.5915234000004,727.7456425,727.7456425,727.7456425,727.7456425,,new_fruit_50.png,215,3.0,2.8297979000008127,,033,00,2025-01-07_16h23.39.205,Surprise recog test,2023.1.3,59.958257061393375,
215,0,215,0,,,,,,,,,,,,,,,,,,,,,,,,,,,,,,,,,,734.6847125000004,735.7028000999999,731.5915234000004,731.5915234000004,731.5915234000004,731.5915234000004,,new_sceneIn_48.png,216,2.0,3.0894559000007575,,033,00,2025-01-07_16h23.39.205,Surprise recog test,2023.1.3,59.958257061393375,
216,0,216,0,,,,,,,,,,,,,,,,,,,,,,,,,,,,,,,,,,737.7644399000001,738.7762824000001,735.7028000999999,735.7028000999999,735.7028000999999,735.7028000999999,,old_sceneOut_42.png,217,4.0,2.0619901000000027,,033,00,2025-01-07_16h23.39.205,Surprise recog test,2023.1.3,59.958257061393375,
217,0,217,0,,,,,,,,,,,,,,,,,,,,,,,,,,,,,,,,,,740.5212079000003,741.5351324000003,738.7762824000001,738.7762824000001,738.7762824000001,738.7762824000001,,old_stationery_20.png,218,1.0,1.740833200000452,,033,00,2025-01-07_16h23.39.205,Surprise recog test,2023.1.3,59.958257061393375,
218,0,218,0,,,,,,,,,,,,,,,,,,,,,,,,,,,,,,,,,,743.4830818,744.5054657000001,741.5351324000003,741.5351324000003,741.5351324000003,741.5351324000003,,new_stationery_25.png,219,4.0,1.9483477000003404,,033,00,2025-01-07_16h23.39.205,Surprise recog test,2023.1.3,59.958257061393375,
219,0,219,0,,,,,,,,,,,,,,,,,,,,,,,,,,,,,,,,,,746.2846009000004,747.3127854000004,744.5054657000001,744.5054657000001,744.5054657000001,744.5054657000001,,old_sceneOut_27.png,220,3.0,1.7821082000000388,,033,00,2025-01-07_16h23.39.205,Surprise recog test,2023.1.3,59.958257061393375,
220,0,220,0,,,,,,,,,,,,,,,,,,,,,,,,,,,,,,,,,,748.8963974999997,749.9026894999997,747.3127854000004,747.3127854000004,747.3127854000004,747.3127854000004,,old_sceneIn_8.png,221,4.0,1.5859228999997868,,033,00,2025-01-07_16h23.39.205,Surprise recog test,2023.1.3,59.958257061393375,
221,0,221,0,,,,,,,,,,,,,,,,,,,,,,,,,,,,,,,,,,751.2968093999998,752.3167482999997,749.9026894999997,749.9026894999997,749.9026894999997,749.9026894999997,,new_sceneIn_6.png,222,4.0,1.383565100000851,,033,00,2025-01-07_16h23.39.205,Surprise recog test,2023.1.3,59.958257061393375,
222,0,222,0,,,,,,,,,,,,,,,,,,,,,,,,,,,,,,,,,,755.1543032,,752.3167482999997,752.3167482999997,752.3167482999997,752.3167482999997,,new_sceneOut_49.png,223,3.0,2.8371870999999373,,033,00,2025-01-07_16h23.39.205,Surprise recog test,2023.1.3,59.958257061393375,
223,0,223,0,,,,,,,,,,,,,,,,,,,,,,,,,,,,,,,,,,758.0146181,759.0359575000002,756.1739432000004,756.1739432000004,756.1739432000004,756.1739432000004,,new_stationery_8.png,224,5.0,1.8360067000003255,,033,00,2025-01-07_16h23.39.205,Surprise recog test,2023.1.3,59.958257061393375,
224,0,224,0,,,,,,,,,,,,,,,,,,,,,,,,,,,,,,,,,,760.7951294000004,761.8235209000004,759.0359575000002,759.0359575000002,759.0359575000002,759.0359575000002,,new_sceneOut_15.png,225,2.0,1.760135600000467,,033,00,2025-01-07_16h23.39.205,Surprise recog test,2023.1.3,59.958257061393375,
225,0,225,0,,,,,,,,,,,,,,,,,,,,,,,,,,,,,,,,,,763.3512944000004,764.3784736999996,761.8235209000004,761.8235209000004,761.8235209000004,761.8235209000004,,old_fruit_15.png,226,1.0,1.5294629999998506,,033,00,2025-01-07_16h23.39.205,Surprise recog test,2023.1.3,59.958257061393375,
226,0,226,0,,,,,,,,,,,,,,,,,,,,,,,,,,,,,,,,,,766.3380500000003,767.3599800000002,764.3784736999996,764.3784736999996,764.3784736999996,764.3784736999996,,new_sceneOut_1.png,227,4.0,1.9627260999995997,,033,00,2025-01-07_16h23.39.205,Surprise recog test,2023.1.3,59.958257061393375,
227,0,227,0,,,,,,,,,,,,,,,,,,,,,,,,,,,,,,,,,,769.7832933999998,,767.3599800000002,767.3599800000002,767.3599800000002,767.3599800000002,,old_fruit_4.png,228,3.0,2.421468100000311,,033,00,2025-01-07_16h23.39.205,Surprise recog test,2023.1.3,59.958257061393375,
228,0,228,0,,,,,,,,,,,,,,,,,,,,,,,,,,,,,,,,,,772.390015,773.4058905000002,770.8024908999996,770.8024908999996,770.8024908999996,770.8024908999996,,old_stationery_10.png,229,1.0,1.5824406000001545,,033,00,2025-01-07_16h23.39.205,Surprise recog test,2023.1.3,59.958257061393375,
229,0,229,0,,,,,,,,,,,,,,,,,,,,,,,,,,,,,,,,,,775.1472740999998,776.1743684000003,773.4058905000002,773.4058905000002,773.4058905000002,773.4058905000002,,new_stationery_9.png,230,3.0,1.7367698000007294,,033,00,2025-01-07_16h23.39.205,Surprise recog test,2023.1.3,59.958257061393375,
230,0,230,0,,,,,,,,,,,,,,,,,,,,,,,,,,,,,,,,,,778.1476798000003,779.1607451,776.1743684000003,776.1743684000003,776.1743684000003,776.1743684000003,,old_sceneIn_5.png,231,4.0,1.9781060999994224,,033,00,2025-01-07_16h23.39.205,Surprise recog test,2023.1.3,59.958257061393375,
231,0,231,0,,,,,,,,,,,,,,,,,,,,,,,,,,,,,,,,,,781.4357658999998,782.4608637000001,779.1607451,779.1607451,779.1607451,779.1607451,,old_sceneOut_11.png,232,3.0,2.2709869000000253,,033,00,2025-01-07_16h23.39.205,Surprise recog test,2023.1.3,59.958257061393375,
232,0,232,0,,,,,,,,,,,,,,,,,,,,,,,,,,,,,,,,,,784.1141063000005,785.1419151,782.4608637000001,782.4608637000001,782.4608637000001,782.4608637000001,,old_sceneOut_41.png,233,3.0,1.6518147999995563,,033,00,2025-01-07_16h23.39.205,Surprise recog test,2023.1.3,59.958257061393375,
233,0,233,0,,,,,,,,,,,,,,,,,,,,,,,,,,,,,,,,,,786.6850918999999,787.7181696999996,785.1419151,785.1419151,785.1419151,785.1419151,,old_stationery_3.png,234,1.0,1.5451043000002755,,033,00,2025-01-07_16h23.39.205,Surprise recog test,2023.1.3,59.958257061393375,
234,0,234,0,,,,,,,,,,,,,,,,,,,,,,,,,,,,,,,,,,789.6420429999998,790.6539057,787.7181696999996,787.7181696999996,787.7181696999996,787.7181696999996,,new_sceneIn_29.png,235,4.0,1.9267468999996709,,033,00,2025-01-07_16h23.39.205,Surprise recog test,2023.1.3,59.958257061393375,
235,0,235,0,,,,,,,,,,,,,,,,,,,,,,,,,,,,,,,,,,792.4505982999999,,790.6539057,790.6539057,790.6539057,790.6539057,,old_sceneIn_1.png,236,2.0,1.7924944999995205,,033,00,2025-01-07_16h23.39.205,Surprise recog test,2023.1.3,59.958257061393375,
236,0,236,0,,,,,,,,,,,,,,,,,,,,,,,,,,,,,,,,,,795.3237202,796.3411016,793.4843449999998,793.4843449999998,793.4843449999998,793.4843449999998,,old_stationery_23.png,237,1.0,1.8380121000000145,,033,00,2025-01-07_16h23.39.205,Surprise recog test,2023.1.3,59.958257061393375,
237,0,237,0,,,,,,,,,,,,,,,,,,,,,,,,,,,,,,,,,,799.6435031999999,800.6620033999998,796.3411016,796.3411016,796.3411016,796.3411016,,old_sceneIn_38.png,238,2.0,3.298197500000242,,033,00,2025-01-07_16h23.39.205,Surprise recog test,2023.1.3,59.958257061393375,
238,0,238,0,,,,,,,,,,,,,,,,,,,,,,,,,,,,,,,,,,803.068217,804.0978099000004,800.6620033999998,800.6620033999998,800.6620033999998,800.6620033999998,,old_sceneOut_6.png,239,3.0,2.4020166000000245,,033,00,2025-01-07_16h23.39.205,Surprise recog test,2023.1.3,59.958257061393375,
239,0,239,0,,,,,,,,,,,,,,,,,,,,,,,,,,,,,,,,,,805.9270459999998,806.9473349999998,804.0978099000004,804.0978099000004,804.0978099000004,804.0978099000004,,new_fruit_35.png,240,4.0,1.8335713999995278,,033,00,2025-01-07_16h23.39.205,Surprise recog test,2023.1.3,59.958257061393375,
240,0,240,0,,,,,,,,,,,,,,,,,,,,,,,,,,,,,,,,,,809.1035840000004,810.1259704000004,806.9473349999998,806.9473349999998,806.9473349999998,806.9473349999998,,new_sceneOut_40.png,241,3.0,2.1566961999997147,,033,00,2025-01-07_16h23.39.205,Surprise recog test,2023.1.3,59.958257061393375,
241,0,241,0,,,,,,,,,,,,,,,,,,,,,,,,,,,,,,,,,,813.0871589999997,814.1190539999998,810.1259704000004,810.1259704000004,810.1259704000004,810.1259704000004,,new_fruit_46.png,242,3.0,2.960538600000291,,033,00,2025-01-07_16h23.39.205,Surprise recog test,2023.1.3,59.958257061393375,
242,0,242,0,,,,,,,,,,,,,,,,,,,,,,,,,,,,,,,,,,815.7843915000003,816.8114076000002,814.1190539999998,814.1190539999998,814.1190539999998,814.1190539999998,,old_fruit_26.png,243,4.0,1.6676923000004535,,033,00,2025-01-07_16h23.39.205,Surprise recog test,2023.1.3,59.958257061393375,
243,0,243,0,,,,,,,,,,,,,,,,,,,,,,,,,,,,,,,,,,818.5450694000001,819.5609339000002,816.8114076000002,816.8114076000002,816.8114076000002,816.8114076000002,,old_fruit_49.png,244,2.0,1.7378127000001768,,033,00,2025-01-07_16h23.39.205,Surprise recog test,2023.1.3,59.958257061393375,
244,0,244,0,,,,,,,,,,,,,,,,,,,,,,,,,,,,,,,,,,822.1042213999999,823.1390012000002,819.5609339000002,819.5609339000002,819.5609339000002,819.5609339000002,,new_sceneOut_2.png,245,3.0,2.5384345999991638,,033,00,2025-01-07_16h23.39.205,Surprise recog test,2023.1.3,59.958257061393375,
245,0,245,0,,,,,,,,,,,,,,,,,,,,,,,,,,,,,,,,,,824.7740772999996,825.7840557,823.1390012000002,823.1390012000002,823.1390012000002,823.1390012000002,,old_fruit_40.png,246,5.0,1.642877999999655,,033,00,2025-01-07_16h23.39.205,Surprise recog test,2023.1.3,59.958257061393375,
246,0,246,0,,,,,,,,,,,,,,,,,,,,,,,,,,,,,,,,,,827.5102883,828.5316572000002,825.7840557,825.7840557,825.7840557,825.7840557,,old_stationery_38.png,247,1.0,1.7158950000002733,,033,00,2025-01-07_16h23.39.205,Surprise recog test,2023.1.3,59.958257061393375,
247,0,247,0,,,,,,,,,,,,,,,,,,,,,,,,,,,,,,,,,,830.4229009000001,831.4417672999998,828.5316572000002,828.5316572000002,828.5316572000002,828.5316572000002,,old_sceneOut_21.png,248,4.0,1.893441499999426,,033,00,2025-01-07_16h23.39.205,Surprise recog test,2023.1.3,59.958257061393375,
248,0,248,0,,,,,,,,,,,,,,,,,,,,,,,,,,,,,,,,,,833.5411634000002,834.5570137000004,831.4417672999998,831.4417672999998,831.4417672999998,831.4417672999998,,new_sceneOut_18.png,249,4.0,2.098941399999603,,033,00,2025-01-07_16h23.39.205,Surprise recog test,2023.1.3,59.958257061393375,
249,0,249,0,,,,,,,,,,,,,,,,,,,,,,,,,,,,,,,,,,836.3655325999998,837.3759510999998,834.5570137000004,834.5570137000004,834.5570137000004,834.5570137000004,,old_sceneOut_50.png,250,3.0,1.803424300000188,,033,00,2025-01-07_16h23.39.205,Surprise recog test,2023.1.3,59.958257061393375,
250,0,250,0,,,,,,,,,,,,,,,,,,,,,,,,,,,,,,,,,,839.0864966999998,840.0943467999996,837.3759510999998,837.3759510999998,837.3759510999998,837.3759510999998,,old_stationery_15.png,251,1.0,1.7027420000003985,,033,00,2025-01-07_16h23.39.205,Surprise recog test,2023.1.3,59.958257061393375,
251,0,251,0,,,,,,,,,,,,,,,,,,,,,,,,,,,,,,,,,,841.0382062999997,842.0470095999999,840.0943467999996,840.0943467999996,840.0943467999996,840.0943467999996,,old_stationery_28.png,252,1.0,0.9377719000003708,,033,00,2025-01-07_16h23.39.205,Surprise recog test,2023.1.3,59.958257061393375,
252,0,252,0,,,,,,,,,,,,,,,,,,,,,,,,,,,,,,,,,,845.3827407999997,846.4149346000004,842.0470095999999,842.0470095999999,842.0470095999999,842.0470095999999,,old_sceneOut_26.png,253,2.0,3.3301689999998416,,033,00,2025-01-07_16h23.39.205,Surprise recog test,2023.1.3,59.958257061393375,
253,0,253,0,,,,,,,,,,,,,,,,,,,,,,,,,,,,,,,,,,847.9073662000001,848.9323058999998,846.4149346000004,846.4149346000004,846.4149346000004,846.4149346000004,,new_fruit_26.png,254,4.0,1.494581300000391,,033,00,2025-01-07_16h23.39.205,Surprise recog test,2023.1.3,59.958257061393375,
254,0,254,0,,,,,,,,,,,,,,,,,,,,,,,,,,,,,,,,,,850.6400236,851.6548485000003,848.9323058999998,848.9323058999998,848.9323058999998,848.9323058999998,,old_sceneOut_9.png,255,3.0,1.7101821000005657,,033,00,2025-01-07_16h23.39.205,Surprise recog test,2023.1.3,59.958257061393375,
255,0,255,0,,,,,,,,,,,,,,,,,,,,,,,,,,,,,,,,,,854.3415174000002,855.3727453000001,851.6548485000003,851.6548485000003,851.6548485000003,851.6548485000003,,new_sceneIn_7.png,256,3.0,2.6819758000001457,,033,00,2025-01-07_16h23.39.205,Surprise recog test,2023.1.3,59.958257061393375,
256,0,256,0,,,,,,,,,,,,,,,,,,,,,,,,,,,,,,,,,,858.0188496999999,859.0386638,855.3727453000001,855.3727453000001,855.3727453000001,855.3727453000001,,new_sceneOut_17.png,257,2.0,2.6499142000002394,,033,00,2025-01-07_16h23.39.205,Surprise recog test,2023.1.3,59.958257061393375,
257,0,257,0,,,,,,,,,,,,,,,,,,,,,,,,,,,,,,,,,,861.1716791999997,862.1920000999999,859.0386638,859.0386638,859.0386638,859.0386638,,new_sceneIn_39.png,258,3.0,2.131913700000041,,033,00,2025-01-07_16h23.39.205,Surprise recog test,2023.1.3,59.958257061393375,
258,0,258,0,,,,,,,,,,,,,,,,,,,,,,,,,,,,,,,,,,864.7040944,865.7271268000004,862.1920000999999,862.1920000999999,862.1920000999999,862.1920000999999,,new_sceneIn_14.png,259,4.0,2.514260099999774,,033,00,2025-01-07_16h23.39.205,Surprise recog test,2023.1.3,59.958257061393375,
259,0,259,0,,,,,,,,,,,,,,,,,,,,,,,,,,,,,,,,,,867.4032465,868.4328231,865.7271268000004,865.7271268000004,865.7271268000004,865.7271268000004,,old_stationery_18.png,260,1.0,1.6775440000001254,,033,00,2025-01-07_16h23.39.205,Surprise recog test,2023.1.3,59.958257061393375,
260,0,260,0,,,,,,,,,,,,,,,,,,,,,,,,,,,,,,,,,,870.3343597000003,871.3538179999996,868.4328231,868.4328231,868.4328231,868.4328231,,new_stationery_24.png,261,2.0,1.9034978999998202,,033,00,2025-01-07_16h23.39.205,Surprise recog test,2023.1.3,59.958257061393375,
261,0,261,0,,,,,,,,,,,,,,,,,,,,,,,,,,,,,,,,,,873.3752967,874.4037011,871.3538179999996,871.3538179999996,871.3538179999996,871.3538179999996,,new_sceneIn_42.png,262,4.0,2.016529499999706,,033,00,2025-01-07_16h23.39.205,Surprise recog test,2023.1.3,59.958257061393375,
262,0,262,0,,,,,,,,,,,,,,,,,,,,,,,,,,,,,,,,,,876.5034472999996,,874.4037011,874.4037011,874.4037011,874.4037011,,old_sceneIn_47.png,263,1.0,2.1025031999997736,,033,00,2025-01-07_16h23.39.205,Surprise recog test,2023.1.3,59.958257061393375,
263,0,263,0,,,,,,,,,,,,,,,,,,,,,,,,,,,,,,,,,,879.5371861000003,880.5552555000004,877.5250765999999,877.5250765999999,877.5250765999999,877.5250765999999,,old_fruit_25.png,264,4.0,2.0051604999998744,,033,00,2025-01-07_16h23.39.205,Surprise recog test,2023.1.3,59.958257061393375,
264,0,264,0,,,,,,,,,,,,,,,,,,,,,,,,,,,,,,,,,,882.7109828000002,,880.5552555000004,880.5552555000004,880.5552555000004,880.5552555000004,,old_fruit_30.png,265,5.0,2.15230690000044,,033,00,2025-01-07_16h23.39.205,Surprise recog test,2023.1.3,59.958257061393375,
265,0,265,0,,,,,,,,,,,,,,,,,,,,,,,,,,,,,,,,,,885.5840724999998,886.6127218000001,883.7396415000003,883.7396415000003,883.7396415000003,883.7396415000003,,new_fruit_31.png,266,2.0,1.8433389000001625,,033,00,2025-01-07_16h23.39.205,Surprise recog test,2023.1.3,59.958257061393375,
266,0,266,0,,,,,,,,,,,,,,,,,,,,,,,,,,,,,,,,,,888.0627327000002,,886.6127218000001,886.6127218000001,886.6127218000001,886.6127218000001,,new_fruit_43.png,267,4.0,1.4503737999993973,,033,00,2025-01-07_16h23.39.205,Surprise recog test,2023.1.3,59.958257061393375,
267,0,267,0,,,,,,,,,,,,,,,,,,,,,,,,,,,,,,,,,,890.6628664,891.6823861000003,889.0977469,889.0977469,889.0977469,889.0977469,,old_stationery_33.png,268,2.0,1.5664213000000018,,033,00,2025-01-07_16h23.39.205,Surprise recog test,2023.1.3,59.958257061393375,
268,0,268,0,,,,,,,,,,,,,,,,,,,,,,,,,,,,,,,,,,894.8343920999996,895.8405511999999,891.6823861000003,891.6823861000003,891.6823861000003,891.6823861000003,,new_fruit_30.png,269,3.0,3.15347759999986,,033,00,2025-01-07_16h23.39.205,Surprise recog test,2023.1.3,59.958257061393375,
269,0,269,0,,,,,,,,,,,,,,,,,,,,,,,,,,,,,,,,,,898.0692713999997,899.0783898,895.8405511999999,895.8405511999999,895.8405511999999,895.8405511999999,,new_fruit_39.png,270,2.0,2.2249109000003955,,033,00,2025-01-07_16h23.39.205,Surprise recog test,2023.1.3,59.958257061393375,
270,0,270,0,,,,,,,,,,,,,,,,,,,,,,,,,,,,,,,,,,900.6760737000004,901.7074892999999,899.0783898,899.0783898,899.0783898,899.0783898,,old_stationery_13.png,271,1.0,1.5936636999995244,,033,00,2025-01-07_16h23.39.205,Surprise recog test,2023.1.3,59.958257061393375,
271,0,271,0,,,,,,,,,,,,,,,,,,,,,,,,,,,,,,,,,,904.1459338000004,905.1790800999997,901.7074892999999,901.7074892999999,901.7074892999999,901.7074892999999,,new_sceneIn_16.png,272,2.0,2.44011860000046,,033,00,2025-01-07_16h23.39.205,Surprise recog test,2023.1.3,59.958257061393375,
272,0,272,0,,,,,,,,,,,,,,,,,,,,,,,,,,,,,,,,,,906.8375311999998,907.8614757000005,905.1790800999997,905.1790800999997,905.1790800999997,905.1790800999997,,old_stationery_41.png,273,1.0,1.6612568000000465,,033,00,2025-01-07_16h23.39.205,Surprise recog test,2023.1.3,59.958257061393375,
273,0,273,0,,,,,,,,,,,,,,,,,,,,,,,,,,,,,,,,,,909.6871861,910.7173214000004,907.8614757000005,907.8614757000005,907.8614757000005,907.8614757000005,,old_fruit_32.png,274,4.0,1.8271337999995012,,033,00,2025-01-07_16h23.39.205,Surprise recog test,2023.1.3,59.958257061393375,
274,0,274,0,,,,,,,,,,,,,,,,,,,,,,,,,,,,,,,,,,913.2157589999997,914.2334139000004,910.7173214000004,910.7173214000004,910.7173214000004,910.7173214000004,,old_sceneOut_2.png,275,3.0,2.4996172000001025,,033,00,2025-01-07_16h23.39.205,Surprise recog test,2023.1.3,59.958257061393375,
275,0,275,0,,,,,,,,,,,,,,,,,,,,,,,,,,,,,,,,,,916.6677958,917.6878120000001,914.2334139000004,914.2334139000004,914.2334139000004,914.2334139000004,,new_fruit_42.png,276,4.0,2.4335316999995484,,033,00,2025-01-07_16h23.39.205,Surprise recog test,2023.1.3,59.958257061393375,
276,0,276,0,,,,,,,,,,,,,,,,,,,,,,,,,,,,,,,,,,920.7379947,921.7613481999997,917.6878120000001,917.6878120000001,917.6878120000001,917.6878120000001,,new_stationery_43.png,277,5.0,3.048012700000072,,033,00,2025-01-07_16h23.39.205,Surprise recog test,2023.1.3,59.958257061393375,
277,0,277,0,,,,,,,,,,,,,,,,,,,,,,,,,,,,,,,,,,924.6325059999999,925.6619296999997,921.7613481999997,921.7613481999997,921.7613481999997,921.7613481999997,,new_sceneIn_23.png,278,4.0,2.8747428999995464,,033,00,2025-01-07_16h23.39.205,Surprise recog test,2023.1.3,59.958257061393375,
278,0,278,0,,,,,,,,,,,,,,,,,,,,,,,,,,,,,,,,,,927.6691824,928.6838316000003,925.6619296999997,925.6619296999997,925.6619296999997,925.6619296999997,,old_sceneOut_31.png,279,3.0,2.0096941000001607,,033,00,2025-01-07_16h23.39.205,Surprise recog test,2023.1.3,59.958257061393375,
279,0,279,0,,,,,,,,,,,,,,,,,,,,,,,,,,,,,,,,,,930.6624965000001,931.6831891000002,928.6838316000003,928.6838316000003,928.6838316000003,928.6838316000003,,old_sceneIn_46.png,280,5.0,1.9735241999997015,,033,00,2025-01-07_16h23.39.205,Surprise recog test,2023.1.3,59.958257061393375,
280,0,280,0,,,,,,,,,,,,,,,,,,,,,,,,,,,,,,,,,,934.6940642999998,935.7265226,931.6831891000002,931.6831891000002,931.6831891000002,931.6831891000002,,old_sceneOut_33.png,281,3.0,3.0120921000007,,033,00,2025-01-07_16h23.39.205,Surprise recog test,2023.1.3,59.958257061393375,
281,0,281,0,,,,,,,,,,,,,,,,,,,,,,,,,,,,,,,,,,937.9638703999999,938.9788389000005,935.7265226,935.7265226,935.7265226,935.7265226,,new_sceneOut_45.png,282,4.0,2.240854299999228,,033,00,2025-01-07_16h23.39.205,Surprise recog test,2023.1.3,59.958257061393375,
282,0,282,0,,,,,,,,,,,,,,,,,,,,,,,,,,,,,,,,,,941.2298229999997,942.2565839999997,938.9788389000005,938.9788389000005,938.9788389000005,938.9788389000005,,new_sceneOut_34.png,283,3.0,2.247030700000323,,033,00,2025-01-07_16h23.39.205,Surprise recog test,2023.1.3,59.958257061393375,
283,0,283,0,,,,,,,,,,,,,,,,,,,,,,,,,,,,,,,,,,944.6578165999999,945.6752810999997,942.2565839999997,942.2565839999997,942.2565839999997,942.2565839999997,,old_stationery_24.png,284,2.0,2.4002520999993067,,033,00,2025-01-07_16h23.39.205,Surprise recog test,2023.1.3,59.958257061393375,
284,0,284,0,,,,,,,,,,,,,,,,,,,,,,,,,,,,,,,,,,947.4479504999999,,945.6752810999997,945.6752810999997,945.6752810999997,945.6752810999997,,new_stationery_13.png,285,5.0,1.7725415000004432,,033,00,2025-01-07_16h23.39.205,Surprise recog test,2023.1.3,59.958257061393375,
285,0,285,0,,,,,,,,,,,,,,,,,,,,,,,,,,,,,,,,,,950.9232287000004,951.9365791,948.4777525,948.4777525,948.4777525,948.4777525,,old_fruit_50.png,286,4.0,2.4433569000002535,,033,00,2025-01-07_16h23.39.205,Surprise recog test,2023.1.3,59.958257061393375,
286,0,286,0,,,,,,,,,,,,,,,,,,,,,,,,,,,,,,,,,,953.5839354,,951.9365791,951.9365791,951.9365791,951.9365791,,new_stationery_32.png,287,4.0,1.6420939999998154,,033,00,2025-01-07_16h23.39.205,Surprise recog test,2023.1.3,59.958257061393375,
287,0,287,0,,,,,,,,,,,,,,,,,,,,,,,,,,,,,,,,,,957.0393713000003,958.0765380000003,954.6172293999998,954.6172293999998,954.6172293999998,954.6172293999998,,new_fruit_14.png,288,3.0,2.421707399999832,,033,00,2025-01-07_16h23.39.205,Surprise recog test,2023.1.3,59.958257061393375,
288,0,288,0,,,,,,,,,,,,,,,,,,,,,,,,,,,,,,,,,,960.0264115999998,961.0414381,958.0765380000003,958.0765380000003,958.0765380000003,958.0765380000003,,new_stationery_33.png,289,4.0,1.9526036999995995,,033,00,2025-01-07_16h23.39.205,Surprise recog test,2023.1.3,59.958257061393375,
289,0,289,0,,,,,,,,,,,,,,,,,,,,,,,,,,,,,,,,,,963.1071884000003,964.1286120000004,961.0414381,961.0414381,961.0414381,961.0414381,,new_fruit_45.png,290,4.0,2.0589955999994345,,033,00,2025-01-07_16h23.39.205,Surprise recog test,2023.1.3,59.958257061393375,
290,0,290,0,,,,,,,,,,,,,,,,,,,,,,,,,,,,,,,,,,965.9881273000001,967.0117491999999,964.1286120000004,964.1286120000004,964.1286120000004,964.1286120000004,,old_fruit_43.png,291,1.0,1.861033199999838,,033,00,2025-01-07_16h23.39.205,Surprise recog test,2023.1.3,59.958257061393375,
291,0,291,0,,,,,,,,,,,,,,,,,,,,,,,,,,,,,,,,,,969.3135824000001,970.3331982999998,967.0117491999999,967.0117491999999,967.0117491999999,967.0117491999999,,old_sceneIn_33.png,292,1.0,2.3019925999997213,,033,00,2025-01-07_16h23.39.205,Surprise recog test,2023.1.3,59.958257061393375,
292,0,292,0,,,,,,,,,,,,,,,,,,,,,,,,,,,,,,,,,,972.1652236,973.1811694999997,970.3331982999998,970.3331982999998,970.3331982999998,970.3331982999998,,new_stationery_47.png,293,2.0,1.8321026000003258,,033,00,2025-01-07_16h23.39.205,Surprise recog test,2023.1.3,59.958257061393375,
293,0,293,0,,,,,,,,,,,,,,,,,,,,,,,,,,,,,,,,,,975.0429132999998,976.0581771999996,973.1811694999997,973.1811694999997,973.1811694999997,973.1811694999997,,old_sceneIn_16.png,294,1.0,1.8601271999996243,,033,00,2025-01-07_16h23.39.205,Surprise recog test,2023.1.3,59.958257061393375,
294,0,294,0,,,,,,,,,,,,,,,,,,,,,,,,,,,,,,,,,,977.6839608,978.7058451000003,976.0581771999996,976.0581771999996,976.0581771999996,976.0581771999996,,new_fruit_25.png,295,3.0,1.621092100000169,,033,00,2025-01-07_16h23.39.205,Surprise recog test,2023.1.3,59.958257061393375,
295,0,295,0,,,,,,,,,,,,,,,,,,,,,,,,,,,,,,,,,,980.0778553,981.0953448999999,978.7058451000003,978.7058451000003,978.7058451000003,978.7058451000003,,new_stationery_28.png,296,2.0,1.3745401000005586,,033,00,2025-01-07_16h23.39.205,Surprise recog test,2023.1.3,59.958257061393375,
296,0,296,0,,,,,,,,,,,,,,,,,,,,,,,,,,,,,,,,,,983.3443379999999,,981.0953448999999,981.0953448999999,981.0953448999999,981.0953448999999,,new_fruit_8.png,297,2.0,2.2431289000005563,,033,00,2025-01-07_16h23.39.205,Surprise recog test,2023.1.3,59.958257061393375,
297,0,297,0,,,,,,,,,,,,,,,,,,,,,,,,,,,,,,,,,,985.9237966999999,986.9332510000004,984.3638307000001,984.3638307000001,984.3638307000001,984.3638307000001,,old_stationery_21.png,298,1.0,1.55549770000016,,033,00,2025-01-07_16h23.39.205,Surprise recog test,2023.1.3,59.958257061393375,
298,0,298,0,,,,,,,,,,,,,,,,,,,,,,,,,,,,,,,,,,989.3325040999998,,986.9332510000004,986.9332510000004,986.9332510000004,986.9332510000004,,new_sceneIn_32.png,299,1.0,2.3924393999996028,,033,00,2025-01-07_16h23.39.205,Surprise recog test,2023.1.3,59.958257061393375,
299,0,299,0,,,,,,,,,,,,,,,,,,,,,,,,,,,,,,,,,,992.9959984999996,994.0179389000004,990.3631212999999,990.3631212999999,990.3631212999999,990.3631212999999,,old_sceneIn_23.png,300,2.0,2.6371343999999226,,033,00,2025-01-07_16h23.39.205,Surprise recog test,2023.1.3,59.958257061393375,
300,0,300,0,,,,,,,,,,,,,,,,,,,,,,,,,,,,,,,,,,996.1340326,997.1525836000001,994.0179389000004,994.0179389000004,994.0179389000004,994.0179389000004,,old_fruit_9.png,301,3.0,2.1144819000001007,,033,00,2025-01-07_16h23.39.205,Surprise recog test,2023.1.3,59.958257061393375,
301,0,301,0,,,,,,,,,,,,,,,,,,,,,,,,,,,,,,,,,,998.9429515000002,999.9627102000004,997.1525836000001,997.1525836000001,997.1525836000001,997.1525836000001,,old_fruit_45.png,302,2.0,1.790763799999695,,033,00,2025-01-07_16h23.39.205,Surprise recog test,2023.1.3,59.958257061393375,
302,0,302,0,,,,,,,,,,,,,,,,,,,,,,,,,,,,,,,,,,1002.2875984000002,1003.2988467000005,999.9627102000004,999.9627102000004,999.9627102000004,999.9627102000004,,old_stationery_6.png,303,4.0,2.3199807000000874,,033,00,2025-01-07_16h23.39.205,Surprise recog test,2023.1.3,59.958257061393375,
303,0,303,0,,,,,,,,,,,,,,,,,,,,,,,,,,,,,,,,,,1005.2972906000005,1006.3132750000004,1003.2988467000005,1003.2988467000005,1003.2988467000005,1003.2988467000005,,new_stationery_41.png,304,2.0,1.994118399999934,,033,00,2025-01-07_16h23.39.205,Surprise recog test,2023.1.3,59.958257061393375,
304,0,304,0,,,,,,,,,,,,,,,,,,,,,,,,,,,,,,,,,,1009.0838842000003,1010.1145466999997,1006.3132750000004,1006.3132750000004,1006.3132750000004,1006.3132750000004,,old_stationery_49.png,305,4.0,2.7653533000002426,,033,00,2025-01-07_16h23.39.205,Surprise recog test,2023.1.3,59.958257061393375,
305,0,305,0,,,,,,,,,,,,,,,,,,,,,,,,,,,,,,,,,,1011.5029272000002,1012.5338852000004,1010.1145466999997,1010.1145466999997,1010.1145466999997,1010.1145466999997,,new_fruit_23.png,306,3.0,1.390125199999602,,033,00,2025-01-07_16h23.39.205,Surprise recog test,2023.1.3,59.958257061393375,
306,0,306,0,,,,,,,,,,,,,,,,,,,,,,,,,,,,,,,,,,1014.7314538,1015.7379727999996,1012.5338852000004,1012.5338852000004,1012.5338852000004,1012.5338852000004,,old_sceneOut_34.png,307,3.0,2.1992156000005707,,033,00,2025-01-07_16h23.39.205,Surprise recog test,2023.1.3,59.958257061393375,
307,0,307,0,,,,,,,,,,,,,,,,,,,,,,,,,,,,,,,,,,1018.0101481000002,1019.0280230999997,1015.7379727999996,1015.7379727999996,1015.7379727999996,1015.7379727999996,,old_sceneOut_29.png,308,4.0,2.2693669000000227,,033,00,2025-01-07_16h23.39.205,Surprise recog test,2023.1.3,59.958257061393375,
308,0,308,0,,,,,,,,,,,,,,,,,,,,,,,,,,,,,,,,,,1020.6049224999997,1021.6118772,1019.0280230999997,1019.0280230999997,1019.0280230999997,1019.0280230999997,,new_stationery_30.png,309,2.0,1.5729859000002762,,033,00,2025-01-07_16h23.39.205,Surprise recog test,2023.1.3,59.958257061393375,
309,0,309,0,,,,,,,,,,,,,,,,,,,,,,,,,,,,,,,,,,1023.6070540999999,1024.6155525000004,1021.6118772,1021.6118772,1021.6118772,1021.6118772,,new_stationery_26.png,310,5.0,1.9837322000003041,,033,00,2025-01-07_16h23.39.205,Surprise recog test,2023.1.3,59.958257061393375,
310,0,310,0,,,,,,,,,,,,,,,,,,,,,,,,,,,,,,,,,,1027.123853,1028.1347108999998,1024.6155525000004,1024.6155525000004,1024.6155525000004,1024.6155525000004,,new_sceneIn_30.png,311,4.0,2.506298700000116,,033,00,2025-01-07_16h23.39.205,Surprise recog test,2023.1.3,59.958257061393375,
311,0,311,0,,,,,,,,,,,,,,,,,,,,,,,,,,,,,,,,,,1029.9365586000004,1030.9576028000001,1028.1347108999998,1028.1347108999998,1028.1347108999998,1028.1347108999998,,new_sceneOut_29.png,312,3.0,1.7975786000006337,,033,00,2025-01-07_16h23.39.205,Surprise recog test,2023.1.3,59.958257061393375,
312,0,312,0,,,,,,,,,,,,,,,,,,,,,,,,,,,,,,,,,,1032.3808764000005,1033.398991,1030.9576028000001,1030.9576028000001,1030.9576028000001,1030.9576028000001,,new_stationery_44.png,313,4.0,1.414227100000062,,033,00,2025-01-07_16h23.39.205,Surprise recog test,2023.1.3,59.958257061393375,
313,0,313,0,,,,,,,,,,,,,,,,,,,,,,,,,,,,,,,,,,1035.2005371000005,1036.2204861999999,1033.398991,1033.398991,1033.398991,1033.398991,,new_stationery_22.png,314,5.0,1.8030895000001692,,033,00,2025-01-07_16h23.39.205,Surprise recog test,2023.1.3,59.958257061393375,
314,0,314,0,,,,,,,,,,,,,,,,,,,,,,,,,,,,,,,,,,1037.7206303000003,1038.7473360000004,1036.2204861999999,1036.2204861999999,1036.2204861999999,1036.2204861999999,,old_sceneOut_3.png,315,3.0,1.5007337999995798,,033,00,2025-01-07_16h23.39.205,Surprise recog test,2023.1.3,59.958257061393375,
315,0,315,0,,,,,,,,,,,,,,,,,,,,,,,,,,,,,,,,,,1040.2134237,1041.2292539,1038.7473360000004,1038.7473360000004,1038.7473360000004,1038.7473360000004,,old_sceneIn_4.png,316,2.0,1.4710349000006318,,033,00,2025-01-07_16h23.39.205,Surprise recog test,2023.1.3,59.958257061393375,
316,0,316,0,,,,,,,,,,,,,,,,,,,,,,,,,,,,,,,,,,1043.5108348000003,,1041.2292539,1041.2292539,1041.2292539,1041.2292539,,new_sceneIn_27.png,317,3.0,2.2779291000006197,,033,00,2025-01-07_16h23.39.205,Surprise recog test,2023.1.3,59.958257061393375,
317,0,317,0,,,,,,,,,,,,,,,,,,,,,,,,,,,,,,,,,,1046.1755095999997,1047.1957283000002,1044.5414486,1044.5414486,1044.5414486,1044.5414486,,old_fruit_44.png,318,3.0,1.6340112999996563,,033,00,2025-01-07_16h23.39.205,Surprise recog test,2023.1.3,59.958257061393375,
318,0,318,0,,,,,,,,,,,,,,,,,,,,,,,,,,,,,,,,,,1049.1581449000005,1050.1704470000004,1047.1957283000002,1047.1957283000002,1047.1957283000002,1047.1957283000002,,old_sceneOut_4.png,319,2.0,1.9644185999995898,,033,00,2025-01-07_16h23.39.205,Surprise recog test,2023.1.3,59.958257061393375,
319,0,319,0,,,,,,,,,,,,,,,,,,,,,,,,,,,,,,,,,,1051.7475548000002,1052.7701729,1050.1704470000004,1050.1704470000004,1050.1704470000004,1050.1704470000004,,old_fruit_2.png,320,1.0,1.5706637000002956,,033,00,2025-01-07_16h23.39.205,Surprise recog test,2023.1.3,59.958257061393375,
320,0,320,0,,,,,,,,,,,,,,,,,,,,,,,,,,,,,,,,,,1054.6859430000004,,1052.7701729,1052.7701729,1052.7701729,1052.7701729,,new_fruit_37.png,321,1.0,1.9196202999992238,,033,00,2025-01-07_16h23.39.205,Surprise recog test,2023.1.3,59.958257061393375,
321,0,321,0,,,,,,,,,,,,,,,,,,,,,,,,,,,,,,,,,,1057.0467172999997,1058.0751725,1055.7084231,1055.7084231,1055.7084231,1055.7084231,,old_stationery_9.png,322,1.0,1.3357776999991984,,033,00,2025-01-07_16h23.39.205,Surprise recog test,2023.1.3,59.958257061393375,
322,0,322,0,,,,,,,,,,,,,,,,,,,,,,,,,,,,,,,,,,1059.6765444000002,1060.7088108999997,1058.0751725,1058.0751725,1058.0751725,1058.0751725,,new_stationery_34.png,323,2.0,1.605228299999908,,033,00,2025-01-07_16h23.39.205,Surprise recog test,2023.1.3,59.958257061393375,
323,0,323,0,,,,,,,,,,,,,,,,,,,,,,,,,,,,,,,,,,1062.1556174999996,1063.1735361,1060.7088108999997,1060.7088108999997,1060.7088108999997,1060.7088108999997,,new_fruit_17.png,324,1.0,1.4478023000001485,,033,00,2025-01-07_16h23.39.205,Surprise recog test,2023.1.3,59.958257061393375,
324,0,324,0,,,,,,,,,,,,,,,,,,,,,,,,,,,,,,,,,,1065.5128394000003,,1063.1735361,1063.1735361,1063.1735361,1063.1735361,,new_sceneOut_9.png,325,4.0,2.337859799999933,,033,00,2025-01-07_16h23.39.205,Surprise recog test,2023.1.3,59.958257061393375,
325,0,325,0,,,,,,,,,,,,,,,,,,,,,,,,,,,,,,,,,,1068.4442085,1069.4684616000004,1066.5322121,1066.5322121,1066.5322121,1066.5322121,,new_sceneIn_46.png,326,5.0,1.900551099999575,,033,00,2025-01-07_16h23.39.205,Surprise recog test,2023.1.3,59.958257061393375,
326,0,326,0,,,,,,,,,,,,,,,,,,,,,,,,,,,,,,,,,,1071.2998684000004,,1069.4684616000004,1069.4684616000004,1069.4684616000004,1069.4684616000004,,old_sceneIn_40.png,327,1.0,1.8351505000000543,,033,00,2025-01-07_16h23.39.205,Surprise recog test,2023.1.3,59.958257061393375,
327,0,327,0,,,,,,,,,,,,,,,,,,,,,,,,,,,,,,,,,,1073.7901460000003,1074.8181449000003,1072.3325187,1072.3325187,1072.3325187,1072.3325187,,old_sceneIn_34.png,328,2.0,1.4601644000003944,,033,00,2025-01-07_16h23.39.205,Surprise recog test,2023.1.3,59.958257061393375,
328,0,328,0,,,,,,,,,,,,,,,,,,,,,,,,,,,,,,,,,,1076.6665598,1077.6899033,1074.8181449000003,1074.8181449000003,1074.8181449000003,1074.8181449000003,,new_sceneIn_20.png,329,4.0,1.8494260999996186,,033,00,2025-01-07_16h23.39.205,Surprise recog test,2023.1.3,59.958257061393375,
329,0,329,0,,,,,,,,,,,,,,,,,,,,,,,,,,,,,,,,,,1079.4449234000003,1080.4678426,1077.6899033,1077.6899033,1077.6899033,1077.6899033,,new_sceneIn_38.png,330,3.0,1.7577848999999333,,033,00,2025-01-07_16h23.39.205,Surprise recog test,2023.1.3,59.958257061393375,
330,0,330,0,,,,,,,,,,,,,,,,,,,,,,,,,,,,,,,,,,1081.9226711000001,1082.9306747,1080.4678426,1080.4678426,1080.4678426,1080.4678426,,new_stationery_31.png,331,4.0,1.456427000000076,,033,00,2025-01-07_16h23.39.205,Surprise recog test,2023.1.3,59.958257061393375,
331,0,331,0,,,,,,,,,,,,,,,,,,,,,,,,,,,,,,,,,,1084.3101334000003,,1082.9306747,1082.9306747,1082.9306747,1082.9306747,,old_sceneOut_16.png,332,4.0,1.375730300000214,,033,00,2025-01-07_16h23.39.205,Surprise recog test,2023.1.3,59.958257061393375,
332,0,332,0,,,,,,,,,,,,,,,,,,,,,,,,,,,,,,,,,,1086.9972331999998,,1085.3447396000001,1085.3447396000001,1085.3447396000001,1085.3447396000001,,old_stationery_1.png,333,2.0,1.6537238000000798,,033,00,2025-01-07_16h23.39.205,Surprise recog test,2023.1.3,59.958257061393375,
333,0,333,0,,,,,,,,,,,,,,,,,,,,,,,,,,,,,,,,,,1090.0080103,1091.0331214999997,1088.0354261000002,1088.0354261000002,1088.0354261000002,1088.0354261000002,,old_sceneOut_7.png,334,2.0,1.9748619000001781,,033,00,2025-01-07_16h23.39.205,Surprise recog test,2023.1.3,59.958257061393375,
334,0,334,0,,,,,,,,,,,,,,,,,,,,,,,,,,,,,,,,,,1092.9743964,1093.9982997999996,1091.0331214999997,1091.0331214999997,1091.0331214999997,1091.0331214999997,,new_fruit_16.png,335,5.0,1.936558000000332,,033,00,2025-01-07_16h23.39.205,Surprise recog test,2023.1.3,59.958257061393375,
335,0,335,0,,,,,,,,,,,,,,,,,,,,,,,,,,,,,,,,,,1095.8458168999996,1096.8662838,1093.9982997999996,1093.9982997999996,1093.9982997999996,1093.9982997999996,,old_sceneIn_50.png,336,2.0,1.8435859000001074,,033,00,2025-01-07_16h23.39.205,Surprise recog test,2023.1.3,59.958257061393375,
336,0,336,0,,,,,,,,,,,,,,,,,,,,,,,,,,,,,,,,,,1098.4814016,1099.5047004999997,1096.8662838,1096.8662838,1096.8662838,1096.8662838,,old_sceneOut_30.png,337,4.0,1.6160934999998062,,033,00,2025-01-07_16h23.39.205,Surprise recog test,2023.1.3,59.958257061393375,
337,0,337,0,,,,,,,,,,,,,,,,,,,,,,,,,,,,,,,,,,1101.538388,1102.5599677,1099.5047004999997,1099.5047004999997,1099.5047004999997,1099.5047004999997,,old_sceneIn_32.png,338,4.0,2.032481100000041,,033,00,2025-01-07_16h23.39.205,Surprise recog test,2023.1.3,59.958257061393375,
338,0,338,0,,,,,,,,,,,,,,,,,,,,,,,,,,,,,,,,,,1104.0905463999998,1105.1003719999999,1102.5599677,1102.5599677,1102.5599677,1102.5599677,,old_sceneOut_28.png,339,3.0,1.527892499999325,,033,00,2025-01-07_16h23.39.205,Surprise recog test,2023.1.3,59.958257061393375,
339,0,339,0,,,,,,,,,,,,,,,,,,,,,,,,,,,,,,,,,,1106.7833074,1107.8136230999999,1105.1003719999999,1105.1003719999999,1105.1003719999999,1105.1003719999999,,new_stationery_42.png,340,4.0,1.678908699999738,,033,00,2025-01-07_16h23.39.205,Surprise recog test,2023.1.3,59.958257061393375,
340,0,340,0,,,,,,,,,,,,,,,,,,,,,,,,,,,,,,,,,,1109.1162135000004,1110.1495433999999,1107.8136230999999,1107.8136230999999,1107.8136230999999,1107.8136230999999,,old_sceneOut_15.png,341,4.0,1.3045418000001519,,033,00,2025-01-07_16h23.39.205,Surprise recog test,2023.1.3,59.958257061393375,
341,0,341,0,,,,,,,,,,,,,,,,,,,,,,,,,,,,,,,,,,1112.0689402999997,1113.1003773000002,1110.1495433999999,1110.1495433999999,1110.1495433999999,1110.1495433999999,,old_stationery_19.png,342,1.0,1.9216638000007151,,033,00,2025-01-07_16h23.39.205,Surprise recog test,2023.1.3,59.958257061393375,
342,0,342,0,,,,,,,,,,,,,,,,,,,,,,,,,,,,,,,,,,1116.2023774999998,1117.2246028,1113.1003773000002,1113.1003773000002,1113.1003773000002,1113.1003773000002,,new_fruit_44.png,343,4.0,3.1008928000001106,,033,00,2025-01-07_16h23.39.205,Surprise recog test,2023.1.3,59.958257061393375,
343,0,343,0,,,,,,,,,,,,,,,,,,,,,,,,,,,,,,,,,,1119.3361711999996,1120.3548140000003,1117.2246028,1117.2246028,1117.2246028,1117.2246028,,old_sceneIn_48.png,344,4.0,2.115478499999881,,033,00,2025-01-07_16h23.39.205,Surprise recog test,2023.1.3,59.958257061393375,
344,0,344,0,,,,,,,,,,,,,,,,,,,,,,,,,,,,,,,,,,1122.1126857999998,1123.1451169000002,1120.3548140000003,1120.3548140000003,1120.3548140000003,1120.3548140000003,,old_sceneIn_37.png,345,1.0,1.7592673999997714,,033,00,2025-01-07_16h23.39.205,Surprise recog test,2023.1.3,59.958257061393375,
345,0,345,0,,,,,,,,,,,,,,,,,,,,,,,,,,,,,,,,,,1124.7808393000005,1125.8067958000001,1123.1451169000002,1123.1451169000002,1123.1451169000002,1123.1451169000002,,new_sceneOut_43.png,346,3.0,1.6383939999996073,,033,00,2025-01-07_16h23.39.205,Surprise recog test,2023.1.3,59.958257061393375,
346,0,346,0,,,,,,,,,,,,,,,,,,,,,,,,,,,,,,,,,,1127.3480863000004,,1125.8067958000001,1125.8067958000001,1125.8067958000001,1125.8067958000001,,new_sceneOut_26.png,347,4.0,1.5354098999996495,,033,00,2025-01-07_16h23.39.205,Surprise recog test,2023.1.3,59.958257061393375,
347,0,347,0,,,,,,,,,,,,,,,,,,,,,,,,,,,,,,,,,,1130.1551698000003,1131.1706737000004,1128.3674581000005,1128.3674581000005,1128.3674581000005,1128.3674581000005,,old_fruit_48.png,348,3.0,1.7832703000003676,,033,00,2025-01-07_16h23.39.205,Surprise recog test,2023.1.3,59.958257061393375,
348,0,348,0,,,,,,,,,,,,,,,,,,,,,,,,,,,,,,,,,,1132.8067492,1133.8358558999998,1131.1706737000004,1131.1706737000004,1131.1706737000004,1131.1706737000004,,new_sceneOut_35.png,349,2.0,1.631547199999659,,033,00,2025-01-07_16h23.39.205,Surprise recog test,2023.1.3,59.958257061393375,
349,0,349,0,,,,,,,,,,,,,,,,,,,,,,,,,,,,,,,,,,1136.3555530000003,1137.3796720999999,1133.8358558999998,1133.8358558999998,1133.8358558999998,1133.8358558999998,,new_sceneIn_44.png,350,1.0,2.5221003999995446,,033,00,2025-01-07_16h23.39.205,Surprise recog test,2023.1.3,59.958257061393375,
350,0,350,0,,,,,,,,,,,,,,,,,,,,,,,,,,,,,,,,,,1138.9385652,,1137.3796720999999,1137.3796720999999,1137.3796720999999,1137.3796720999999,,old_sceneOut_12.png,351,2.0,1.5549919999994017,,033,00,2025-01-07_16h23.39.205,Surprise recog test,2023.1.3,59.958257061393375,
351,0,351,0,,,,,,,,,,,,,,,,,,,,,,,,,,,,,,,,,,1142.2725308999998,1143.2810734000004,1139.9604864000003,1139.9604864000003,1139.9604864000003,1139.9604864000003,,old_sceneIn_42.png,352,3.0,2.3080315999995946,,033,00,2025-01-07_16h23.39.205,Surprise recog test,2023.1.3,59.958257061393375,
352,0,352,0,,,,,,,,,,,,,,,,,,,,,,,,,,,,,,,,,,1147.1617724999996,1148.1798033000005,1143.2810734000004,1143.2810734000004,1143.2810734000004,1143.2810734000004,,new_sceneOut_25.png,353,4.0,3.876228099999935,,033,00,2025-01-07_16h23.39.205,Surprise recog test,2023.1.3,59.958257061393375,
353,0,353,0,,,,,,,,,,,,,,,,,,,,,,,,,,,,,,,,,,1150.8291348000002,1151.850023,1148.1798033000005,1148.1798033000005,1148.1798033000005,1148.1798033000005,,new_sceneOut_32.png,354,4.0,2.6512934000002133,,033,00,2025-01-07_16h23.39.205,Surprise recog test,2023.1.3,59.958257061393375,
354,0,354,0,,,,,,,,,,,,,,,,,,,,,,,,,,,,,,,,,,1153.3609474000004,1154.3854492,1151.850023,1151.850023,1151.850023,1151.850023,,new_sceneOut_6.png,355,2.0,1.5134200000002238,,033,00,2025-01-07_16h23.39.205,Surprise recog test,2023.1.3,59.958257061393375,
355,0,355,0,,,,,,,,,,,,,,,,,,,,,,,,,,,,,,,,,,1155.7961465999997,1156.8251412,1154.3854492,1154.3854492,1154.3854492,1154.3854492,,old_stationery_26.png,356,1.0,1.411870999999337,,033,00,2025-01-07_16h23.39.205,Surprise recog test,2023.1.3,59.958257061393375,
356,0,356,0,,,,,,,,,,,,,,,,,,,,,,,,,,,,,,,,,,1158.5611534999998,1159.5910458999997,1156.8251412,1156.8251412,1156.8251412,1156.8251412,,old_sceneIn_20.png,357,1.0,1.7417029999996885,,033,00,2025-01-07_16h23.39.205,Surprise recog test,2023.1.3,59.958257061393375,
