trial_loop.thisRepN,trial_loop.thisTrialN,trial_loop.thisN,trial_loop.thisIndex,VAS_slider.started,VAS_text.started,VAS_notstressed_text.started,VAS_stressed_text.started,continue_input.started,continue_text.started,label0.started,label10.started,label20.started,label30.started,label40.started,label50.started,label60.started,label70.started,label80.started,label90.started,label100.started,VAS_slider.response,VAS_slider.rt,VAS_slider.history,Answer_VAS,continue_input.keys,instruction_text.started,continue_text_2.started,continue_input_2.started,continue_input_2.keys,continue_input_2.rt,continue_input_2.duration,example_text.started,example_slider_2.started,example_image.started,example_slider_2.response,example_slider_2.rt,fixcross.started,fixcross.stopped,front_square.started,stim_images.started,trial_inst_images.started,slider_images.started,thisImg,trial_count,slider_images.response,slider_images.rt,slider_images.stopped,outro.started,participant,condition,date,expName,psychopyVersion,frameRate,
,,,,23.308876800118014,23.308876800118014,23.308876800118014,23.308876800118014,23.308876800118014,23.308876800118014,23.308876800118014,23.308876800118014,23.308876800118014,23.308876800118014,23.308876800118014,23.308876800118014,23.308876800118014,23.308876800118014,23.308876800118014,23.308876800118014,23.308876800118014,3.1499999999999995,10.235643800115213,"[(3.1499999999999995, 10.235643800115213)]",3.1499999999999995,None,,,,,,,,,,,,,,,,,,,,,,,,034,01,2024-12-17_16h39.47.951,Surprise recog test,2023.1.3,60.01907402529893,
,,,,,,,,,,,,,,,,,,,,,,,,,,33.6252202000469,33.6252202000469,33.6252202000469,space,17.79053909983486,None,,,,,,,,,,,,,,,,,,034,01,2024-12-17_16h39.47.951,Surprise recog test,2023.1.3,60.01907402529893,
0,0,0,0,,,,,,,,,,,,,,,,,,,,,,,,,,,,,51.5402439001482,51.5402439001482,51.5402439001482,5.0,13.151813900098205,68.7480570001062,65.64601610018872,65.64601610018872,65.64601610018872,65.64601610018872,65.64601610018872,new_stationery_47.png,1,5.0,3.104958900017664,,,034,01,2024-12-17_16h39.47.951,Surprise recog test,2023.1.3,60.01907402529893,
1,0,1,0,,,,,,,,,,,,,,,,,,,,,,,,,,,,,,,,,,71.63092020014301,72.63622800004669,69.76960750017315,69.76960750017315,69.76960750017315,69.76960750017315,old_stationery_15.png,2,5.0,1.8574816999025643,,,034,01,2024-12-17_16h39.47.951,Surprise recog test,2023.1.3,60.01907402529893,
2,0,2,0,,,,,,,,,,,,,,,,,,,,,,,,,,,,,,,,,,76.90367320016958,77.92253200011328,72.63622800004669,72.63622800004669,72.63622800004669,72.63622800004669,new_sceneOut_39.png,3,2.0,4.260940299835056,,,034,01,2024-12-17_16h39.47.951,Surprise recog test,2023.1.3,60.01907402529893,
3,0,3,0,,,,,,,,,,,,,,,,,,,,,,,,,,,,,,,,,,82.23951530014165,83.25890710018575,77.92253200011328,77.92253200011328,77.92253200011328,77.92253200011328,new_sceneIn_17.png,4,4.0,4.314884599996731,,,034,01,2024-12-17_16h39.47.951,Surprise recog test,2023.1.3,60.01907402529893,
4,0,4,0,,,,,,,,,,,,,,,,,,,,,,,,,,,,,,,,,,88.24433080013841,89.26277859997936,83.25890710018575,83.25890710018575,83.25890710018575,83.25890710018575,old_fruit_48.png,5,None,None,88.23563430015929,,034,01,2024-12-17_16h39.47.951,Surprise recog test,2023.1.3,60.01907402529893,
5,0,5,0,,,,,,,,,,,,,,,,,,,,,,,,,,,,,,,,,,92.26242540008388,93.28736410010606,89.26277859997936,89.26277859997936,89.26277859997936,89.26277859997936,new_sceneOut_35.png,6,3.0,2.9978698999620974,,,034,01,2024-12-17_16h39.47.951,Surprise recog test,2023.1.3,60.01907402529893,
6,0,6,0,,,,,,,,,,,,,,,,,,,,,,,,,,,,,,,,,,95.7400254001841,96.7653428001795,93.28736410010606,93.28736410010606,93.28736410010606,93.28736410010606,new_stationery_7.png,7,5.0,2.454105000011623,,,034,01,2024-12-17_16h39.47.951,Surprise recog test,2023.1.3,60.01907402529893,
7,0,7,0,,,,,,,,,,,,,,,,,,,,,,,,,,,,,,,,,,100.23027080018073,101.24669599998742,96.7653428001795,96.7653428001795,96.7653428001795,96.7653428001795,new_fruit_12.png,8,4.0,3.4606723999604583,,,034,01,2024-12-17_16h39.47.951,Surprise recog test,2023.1.3,60.01907402529893,
8,0,8,0,,,,,,,,,,,,,,,,,,,,,,,,,,,,,,,,,,104.62308140005916,105.64359250012785,101.24669599998742,101.24669599998742,101.24669599998742,101.24669599998742,old_fruit_26.png,9,3.0,3.371503100031987,,,034,01,2024-12-17_16h39.47.951,Surprise recog test,2023.1.3,60.01907402529893,
9,0,9,0,,,,,,,,,,,,,,,,,,,,,,,,,,,,,,,,,,108.264423500048,,105.64359250012785,105.64359250012785,105.64359250012785,105.64359250012785,old_sceneOut_15.png,10,2.0,2.6190957999788225,,,034,01,2024-12-17_16h39.47.951,Surprise recog test,2023.1.3,60.01907402529893,
10,0,10,0,,,,,,,,,,,,,,,,,,,,,,,,,,,,,,,,,,112.12885980005376,113.14349130005576,109.30273800017312,109.30273800017312,109.30273800017312,109.30273800017312,new_stationery_42.png,11,5.0,2.8307019998319447,,,034,01,2024-12-17_16h39.47.951,Surprise recog test,2023.1.3,60.01907402529893,
11,0,11,0,,,,,,,,,,,,,,,,,,,,,,,,,,,,,,,,,,115.49847990018316,116.52162890019827,113.14349130005576,113.14349130005576,113.14349130005576,113.14349130005576,new_fruit_1.png,12,5.0,2.3527873000130057,,,034,01,2024-12-17_16h39.47.951,Surprise recog test,2023.1.3,60.01907402529893,
12,0,12,0,,,,,,,,,,,,,,,,,,,,,,,,,,,,,,,,,,118.55014960002154,119.55744500015862,116.52162890019827,116.52162890019827,116.52162890019827,116.52162890019827,new_sceneIn_21.png,13,4.0,2.029679800150916,,,034,01,2024-12-17_16h39.47.951,Surprise recog test,2023.1.3,60.01907402529893,
13,0,13,0,,,,,,,,,,,,,,,,,,,,,,,,,,,,,,,,,,121.55701080011204,122.56449020002037,119.55744500015862,119.55744500015862,119.55744500015862,119.55744500015862,new_fruit_31.png,14,4.0,1.9954810000490397,,,034,01,2024-12-17_16h39.47.951,Surprise recog test,2023.1.3,60.01907402529893,
14,0,14,0,,,,,,,,,,,,,,,,,,,,,,,,,,,,,,,,,,125.06889560003765,126.09076600009575,122.56449020002037,122.56449020002037,122.56449020002037,122.56449020002037,old_sceneOut_43.png,15,3.0,2.498055199859664,,,034,01,2024-12-17_16h39.47.951,Surprise recog test,2023.1.3,60.01907402529893,
15,0,15,0,,,,,,,,,,,,,,,,,,,,,,,,,,,,,,,,,,128.14410320017487,129.1629973000381,126.09076600009575,126.09076600009575,126.09076600009575,126.09076600009575,new_sceneIn_12.png,16,5.0,2.054756699828431,,,034,01,2024-12-17_16h39.47.951,Surprise recog test,2023.1.3,60.01907402529893,
16,0,16,0,,,,,,,,,,,,,,,,,,,,,,,,,,,,,,,,,,131.95479260012507,132.98751460015774,129.1629973000381,129.1629973000381,129.1629973000381,129.1629973000381,old_sceneOut_11.png,17,1.0,2.790891399839893,,,034,01,2024-12-17_16h39.47.951,Surprise recog test,2023.1.3,60.01907402529893,
17,0,17,0,,,,,,,,,,,,,,,,,,,,,,,,,,,,,,,,,,134.98329310002737,135.9879413000308,132.98751460015774,132.98751460015774,132.98751460015774,132.98751460015774,new_sceneOut_36.png,18,5.0,1.9929827998857945,,,034,01,2024-12-17_16h39.47.951,Surprise recog test,2023.1.3,60.01907402529893,
18,0,18,0,,,,,,,,,,,,,,,,,,,,,,,,,,,,,,,,,,138.1888798000291,,135.9879413000308,135.9879413000308,135.9879413000308,135.9879413000308,old_sceneIn_9.png,19,5.0,2.194417400052771,,,034,01,2024-12-17_16h39.47.951,Surprise recog test,2023.1.3,60.01907402529893,
19,0,19,0,,,,,,,,,,,,,,,,,,,,,,,,,,,,,,,,,,142.60508760018274,143.6251418001484,139.21069910004735,139.21069910004735,139.21069910004735,139.21069910004735,old_stationery_33.png,20,1.0,3.3900535001885146,,,034,01,2024-12-17_16h39.47.951,Surprise recog test,2023.1.3,60.01907402529893,
20,0,20,0,,,,,,,,,,,,,,,,,,,,,,,,,,,,,,,,,,146.49893540004268,147.51948150014505,143.6251418001484,143.6251418001484,143.6251418001484,143.6251418001484,old_sceneOut_9.png,21,3.0,2.874733000062406,,,034,01,2024-12-17_16h39.47.951,Surprise recog test,2023.1.3,60.01907402529893,
21,0,21,0,,,,,,,,,,,,,,,,,,,,,,,,,,,,,,,,,,149.22150300000794,150.23602239997126,147.51948150014505,147.51948150014505,147.51948150014505,147.51948150014505,old_sceneIn_39.png,22,1.0,1.698155399877578,,,034,01,2024-12-17_16h39.47.951,Surprise recog test,2023.1.3,60.01907402529893,
22,0,22,0,,,,,,,,,,,,,,,,,,,,,,,,,,,,,,,,,,152.79796390002593,153.81222459999844,150.23602239997126,150.23602239997126,150.23602239997126,150.23602239997126,old_stationery_37.png,23,5.0,2.5531689999625087,,,034,01,2024-12-17_16h39.47.951,Surprise recog test,2023.1.3,60.01907402529893,
23,0,23,0,,,,,,,,,,,,,,,,,,,,,,,,,,,,,,,,,,155.31294610002078,156.32367170020007,153.81222459999844,153.81222459999844,153.81222459999844,153.81222459999844,old_stationery_44.png,24,1.0,1.4996210997924209,,,034,01,2024-12-17_16h39.47.951,Surprise recog test,2023.1.3,60.01907402529893,
24,0,24,0,,,,,,,,,,,,,,,,,,,,,,,,,,,,,,,,,,159.23705630004406,160.260289600119,156.32367170020007,156.32367170020007,156.32367170020007,156.32367170020007,old_sceneIn_17.png,25,4.0,2.9081278000958264,,,034,01,2024-12-17_16h39.47.951,Surprise recog test,2023.1.3,60.01907402529893,
25,0,25,0,,,,,,,,,,,,,,,,,,,,,,,,,,,,,,,,,,162.44315410009585,,160.260289600119,160.260289600119,160.260289600119,160.260289600119,new_sceneOut_11.png,26,2.0,2.18156799999997,,,034,01,2024-12-17_16h39.47.951,Surprise recog test,2023.1.3,60.01907402529893,
26,0,26,0,,,,,,,,,,,,,,,,,,,,,,,,,,,,,,,,,,165.05133100016974,166.0785342999734,163.4638469000347,163.4638469000347,163.4638469000347,163.4638469000347,old_sceneIn_4.png,27,4.0,1.5786345999222249,,,034,01,2024-12-17_16h39.47.951,Surprise recog test,2023.1.3,60.01907402529893,
27,0,27,0,,,,,,,,,,,,,,,,,,,,,,,,,,,,,,,,,,168.55035939998925,169.56634710007347,166.0785342999734,166.0785342999734,166.0785342999734,166.0785342999734,new_stationery_25.png,28,5.0,2.472334399819374,,,034,01,2024-12-17_16h39.47.951,Surprise recog test,2023.1.3,60.01907402529893,
28,0,28,0,,,,,,,,,,,,,,,,,,,,,,,,,,,,,,,,,,171.35242490004748,172.36911700014025,169.56634710007347,169.56634710007347,169.56634710007347,169.56634710007347,new_fruit_19.png,29,5.0,1.7833849999587983,,,034,01,2024-12-17_16h39.47.951,Surprise recog test,2023.1.3,60.01907402529893,
29,0,29,0,,,,,,,,,,,,,,,,,,,,,,,,,,,,,,,,,,174.4437754000537,175.4580659000203,172.36911700014025,172.36911700014025,172.36911700014025,172.36911700014025,new_fruit_7.png,30,5.0,2.070997899863869,,,034,01,2024-12-17_16h39.47.951,Surprise recog test,2023.1.3,60.01907402529893,
30,0,30,0,,,,,,,,,,,,,,,,,,,,,,,,,,,,,,,,,,177.21709890011698,178.24286630004644,175.4580659000203,175.4580659000203,175.4580659000203,175.4580659000203,old_fruit_7.png,31,5.0,1.754214100074023,,,034,01,2024-12-17_16h39.47.951,Surprise recog test,2023.1.3,60.01907402529893,
31,0,31,0,,,,,,,,,,,,,,,,,,,,,,,,,,,,,,,,,,179.96499420003965,180.97903869999573,178.24286630004644,178.24286630004644,178.24286630004644,178.24286630004644,new_sceneOut_2.png,32,2.0,1.7273476000409573,,,034,01,2024-12-17_16h39.47.951,Surprise recog test,2023.1.3,60.01907402529893,
32,0,32,0,,,,,,,,,,,,,,,,,,,,,,,,,,,,,,,,,,183.40273070009425,184.41556040011346,180.97903869999573,180.97903869999573,180.97903869999573,180.97903869999573,new_sceneIn_44.png,33,4.0,2.4197096000425518,,,034,01,2024-12-17_16h39.47.951,Surprise recog test,2023.1.3,60.01907402529893,
33,0,33,0,,,,,,,,,,,,,,,,,,,,,,,,,,,,,,,,,,186.52675379998982,187.5474921001587,184.41556040011346,184.41556040011346,184.41556040011346,184.41556040011346,new_sceneOut_8.png,34,3.0,2.107083300128579,,,034,01,2024-12-17_16h39.47.951,Surprise recog test,2023.1.3,60.01907402529893,
34,0,34,0,,,,,,,,,,,,,,,,,,,,,,,,,,,,,,,,,,189.05468140006997,190.07824260019697,187.5474921001587,187.5474921001587,187.5474921001587,187.5474921001587,old_stationery_40.png,35,1.0,1.5074099998455495,,,034,01,2024-12-17_16h39.47.951,Surprise recog test,2023.1.3,60.01907402529893,
35,0,35,0,,,,,,,,,,,,,,,,,,,,,,,,,,,,,,,,,,192.67681470001116,193.70196760003455,190.07824260019697,190.07824260019697,190.07824260019697,190.07824260019697,old_sceneIn_20.png,36,4.0,2.600415699882433,,,034,01,2024-12-17_16h39.47.951,Surprise recog test,2023.1.3,60.01907402529893,
36,0,36,0,,,,,,,,,,,,,,,,,,,,,,,,,,,,,,,,,,195.97978590009734,196.9991315000225,193.70196760003455,193.70196760003455,193.70196760003455,193.70196760003455,new_fruit_26.png,37,2.0,2.2784985001198947,,,034,01,2024-12-17_16h39.47.951,Surprise recog test,2023.1.3,60.01907402529893,
37,0,37,0,,,,,,,,,,,,,,,,,,,,,,,,,,,,,,,,,,198.2518608001992,199.27393210004084,196.9991315000225,196.9991315000225,196.9991315000225,196.9991315000225,old_stationery_35.png,38,1.0,1.2547772999387234,,,034,01,2024-12-17_16h39.47.951,Surprise recog test,2023.1.3,60.01907402529893,
38,0,38,0,,,,,,,,,,,,,,,,,,,,,,,,,,,,,,,,,,201.8024182000663,202.82583930017427,199.27393210004084,199.27393210004084,199.27393210004084,199.27393210004084,new_stationery_44.png,39,5.0,2.530405499972403,,,034,01,2024-12-17_16h39.47.951,Surprise recog test,2023.1.3,60.01907402529893,
39,0,39,0,,,,,,,,,,,,,,,,,,,,,,,,,,,,,,,,,,205.93438280001283,206.96348370006308,202.82583930017427,202.82583930017427,202.82583930017427,202.82583930017427,old_sceneOut_7.png,40,3.0,3.109469800023362,,,034,01,2024-12-17_16h39.47.951,Surprise recog test,2023.1.3,60.01907402529893,
40,0,40,0,,,,,,,,,,,,,,,,,,,,,,,,,,,,,,,,,,208.79607370006852,209.81311099999584,206.96348370006308,206.96348370006308,206.96348370006308,206.96348370006308,new_stationery_38.png,41,1.0,1.8344703998882324,,,034,01,2024-12-17_16h39.47.951,Surprise recog test,2023.1.3,60.01907402529893,
41,0,41,0,,,,,,,,,,,,,,,,,,,,,,,,,,,,,,,,,,211.3980018000584,212.40414800005965,209.81311099999584,209.81311099999584,209.81311099999584,209.81311099999584,old_fruit_38.png,42,5.0,1.5842844999860972,,,034,01,2024-12-17_16h39.47.951,Surprise recog test,2023.1.3,60.01907402529893,
42,0,42,0,,,,,,,,,,,,,,,,,,,,,,,,,,,,,,,,,,213.9947828000877,215.01652990002185,212.40414800005965,212.40414800005965,212.40414800005965,212.40414800005965,new_fruit_11.png,43,1.0,1.5844984999857843,,,034,01,2024-12-17_16h39.47.951,Surprise recog test,2023.1.3,60.01907402529893,
43,0,43,0,,,,,,,,,,,,,,,,,,,,,,,,,,,,,,,,,,216.81342310016043,217.8417796001304,215.01652990002185,215.01652990002185,215.01652990002185,215.01652990002185,new_sceneIn_45.png,44,5.0,1.7933707998599857,,,034,01,2024-12-17_16h39.47.951,Surprise recog test,2023.1.3,60.01907402529893,
44,0,44,0,,,,,,,,,,,,,,,,,,,,,,,,,,,,,,,,,,219.79241710016504,220.82641550013795,217.8417796001304,217.8417796001304,217.8417796001304,217.8417796001304,new_fruit_27.png,45,4.0,1.9548613000661135,,,034,01,2024-12-17_16h39.47.951,Surprise recog test,2023.1.3,60.01907402529893,
45,0,45,0,,,,,,,,,,,,,,,,,,,,,,,,,,,,,,,,,,223.0197737000417,224.04557650000788,220.82641550013795,220.82641550013795,220.82641550013795,220.82641550013795,old_fruit_15.png,46,4.0,2.197783799842,,,034,01,2024-12-17_16h39.47.951,Surprise recog test,2023.1.3,60.01907402529893,
46,0,46,0,,,,,,,,,,,,,,,,,,,,,,,,,,,,,,,,,,226.50896240002476,227.52939689997584,224.04557650000788,224.04557650000788,224.04557650000788,224.04557650000788,old_sceneOut_16.png,47,4.0,2.4655687999911606,,,034,01,2024-12-17_16h39.47.951,Surprise recog test,2023.1.3,60.01907402529893,
47,0,47,0,,,,,,,,,,,,,,,,,,,,,,,,,,,,,,,,,,229.47839730000123,230.48620490008034,227.52939689997584,227.52939689997584,227.52939689997584,227.52939689997584,new_stationery_50.png,48,5.0,1.950498100137338,,,034,01,2024-12-17_16h39.47.951,Surprise recog test,2023.1.3,60.01907402529893,
48,0,48,0,,,,,,,,,,,,,,,,,,,,,,,,,,,,,,,,,,233.67715650005266,234.70424100011587,230.48620490008034,230.48620490008034,230.48620490008034,230.48620490008034,new_stationery_5.png,49,5.0,3.18721569981426,,,034,01,2024-12-17_16h39.47.951,Surprise recog test,2023.1.3,60.01907402529893,
49,0,49,0,,,,,,,,,,,,,,,,,,,,,,,,,,,,,,,,,,236.605866700178,237.6346893000882,234.70424100011587,234.70424100011587,234.70424100011587,234.70424100011587,old_sceneOut_41.png,50,4.0,1.9031440999824554,,,034,01,2024-12-17_16h39.47.951,Surprise recog test,2023.1.3,60.01907402529893,
50,0,50,0,,,,,,,,,,,,,,,,,,,,,,,,,,,,,,,,,,239.3083524000831,240.34239590005018,237.6346893000882,237.6346893000882,237.6346893000882,237.6346893000882,old_fruit_49.png,51,4.0,1.6746199000626802,,,034,01,2024-12-17_16h39.47.951,Surprise recog test,2023.1.3,60.01907402529893,
51,0,51,0,,,,,,,,,,,,,,,,,,,,,,,,,,,,,,,,,,243.86406950000674,244.89383030007593,240.34239590005018,240.34239590005018,240.34239590005018,240.34239590005018,old_fruit_17.png,52,2.0,3.5229978000279516,,,034,01,2024-12-17_16h39.47.951,Surprise recog test,2023.1.3,60.01907402529893,
52,0,52,0,,,,,,,,,,,,,,,,,,,,,,,,,,,,,,,,,,246.54401509999298,247.5630289001856,244.89383030007593,244.89383030007593,244.89383030007593,244.89383030007593,new_sceneOut_1.png,53,2.0,1.6519894001539797,,,034,01,2024-12-17_16h39.47.951,Surprise recog test,2023.1.3,60.01907402529893,
53,0,53,0,,,,,,,,,,,,,,,,,,,,,,,,,,,,,,,,,,249.15689470013604,250.18370900000446,247.5630289001856,247.5630289001856,247.5630289001856,247.5630289001856,old_fruit_45.png,54,5.0,1.5962222998496145,,,034,01,2024-12-17_16h39.47.951,Surprise recog test,2023.1.3,60.01907402529893,
54,0,54,0,,,,,,,,,,,,,,,,,,,,,,,,,,,,,,,,,,252.80220420006663,253.83548520016484,250.18370900000446,250.18370900000446,250.18370900000446,250.18370900000446,old_sceneIn_11.png,55,5.0,2.620613500010222,,,034,01,2024-12-17_16h39.47.951,Surprise recog test,2023.1.3,60.01907402529893,
55,0,55,0,,,,,,,,,,,,,,,,,,,,,,,,,,,,,,,,,,256.52941550011747,257.53932600002736,253.83548520016484,253.83548520016484,253.83548520016484,253.83548520016484,old_fruit_31.png,56,5.0,2.6950425999239087,,,034,01,2024-12-17_16h39.47.951,Surprise recog test,2023.1.3,60.01907402529893,
56,0,56,0,,,,,,,,,,,,,,,,,,,,,,,,,,,,,,,,,,258.6522941000294,259.6819273000583,257.53932600002736,257.53932600002736,257.53932600002736,257.53932600002736,new_stationery_21.png,57,5.0,1.1097361999563873,,,034,01,2024-12-17_16h39.47.951,Surprise recog test,2023.1.3,60.01907402529893,
57,0,57,0,,,,,,,,,,,,,,,,,,,,,,,,,,,,,,,,,,261.89619090012275,262.9257358000614,259.6819273000583,259.6819273000583,259.6819273000583,259.6819273000583,new_sceneIn_6.png,58,5.0,2.2175453999079764,,,034,01,2024-12-17_16h39.47.951,Surprise recog test,2023.1.3,60.01907402529893,
58,0,58,0,,,,,,,,,,,,,,,,,,,,,,,,,,,,,,,,,,266.31524730008096,267.3318207000848,262.9257358000614,262.9257358000614,262.9257358000614,262.9257358000614,old_sceneOut_40.png,59,4.0,3.3922683999408036,,,034,01,2024-12-17_16h39.47.951,Surprise recog test,2023.1.3,60.01907402529893,
59,0,59,0,,,,,,,,,,,,,,,,,,,,,,,,,,,,,,,,,,268.6360934001859,269.657277100021,267.3318207000848,267.3318207000848,267.3318207000848,267.3318207000848,old_stationery_43.png,60,1.0,1.3011139000300318,,,034,01,2024-12-17_16h39.47.951,Surprise recog test,2023.1.3,60.01907402529893,
60,0,60,0,,,,,,,,,,,,,,,,,,,,,,,,,,,,,,,,,,272.54824360017665,273.5533390000928,269.657277100021,269.657277100021,269.657277100021,269.657277100021,old_fruit_13.png,61,2.0,2.8917376999743283,,,034,01,2024-12-17_16h39.47.951,Surprise recog test,2023.1.3,60.01907402529893,
61,0,61,0,,,,,,,,,,,,,,,,,,,,,,,,,,,,,,,,,,274.9657407000195,275.9849921001587,273.5533390000928,273.5533390000928,273.5533390000928,273.5533390000928,new_sceneIn_20.png,62,4.0,1.4097639999818057,,,034,01,2024-12-17_16h39.47.951,Surprise recog test,2023.1.3,60.01907402529893,
62,0,62,0,,,,,,,,,,,,,,,,,,,,,,,,,,,,,,,,,,277.3875708000269,,275.9849921001587,275.9849921001587,275.9849921001587,275.9849921001587,old_sceneOut_31.png,63,3.0,1.403193200007081,,,034,01,2024-12-17_16h39.47.951,Surprise recog test,2023.1.3,60.01907402529893,
63,0,63,0,,,,,,,,,,,,,,,,,,,,,,,,,,,,,,,,,,281.1881540999748,282.19778920011595,278.4082466000691,278.4082466000691,278.4082466000691,278.4082466000691,old_sceneOut_34.png,64,3.0,2.7692525000311434,,,034,01,2024-12-17_16h39.47.951,Surprise recog test,2023.1.3,60.01907402529893,
64,0,64,0,,,,,,,,,,,,,,,,,,,,,,,,,,,,,,,,,,283.37781480001286,284.39444790012203,282.19778920011595,282.19778920011595,282.19778920011595,282.19778920011595,new_stationery_28.png,65,1.0,1.1770441001281142,,,034,01,2024-12-17_16h39.47.951,Surprise recog test,2023.1.3,60.01907402529893,
65,0,65,0,,,,,,,,,,,,,,,,,,,,,,,,,,,,,,,,,,287.38877600012347,288.4135774001479,284.39444790012203,284.39444790012203,284.39444790012203,284.39444790012203,new_sceneIn_22.png,66,4.0,2.990155200008303,,,034,01,2024-12-17_16h39.47.951,Surprise recog test,2023.1.3,60.01907402529893,
66,0,66,0,,,,,,,,,,,,,,,,,,,,,,,,,,,,,,,,,,289.67630070005544,290.6983740001451,288.4135774001479,288.4135774001479,288.4135774001479,288.4135774001479,old_sceneIn_26.png,67,4.0,1.2639391000848264,,,034,01,2024-12-17_16h39.47.951,Surprise recog test,2023.1.3,60.01907402529893,
67,0,67,0,,,,,,,,,,,,,,,,,,,,,,,,,,,,,,,,,,291.6022130001802,292.63728710007854,290.6983740001451,290.6983740001451,290.6983740001451,290.6983740001451,new_sceneIn_15.png,68,4.0,0.9061958999373019,,,034,01,2024-12-17_16h39.47.951,Surprise recog test,2023.1.3,60.01907402529893,
68,0,68,0,,,,,,,,,,,,,,,,,,,,,,,,,,,,,,,,,,294.564732800005,295.5728742000647,292.63728710007854,292.63728710007854,292.63728710007854,292.63728710007854,new_sceneIn_24.png,69,4.0,1.9299084001686424,,,034,01,2024-12-17_16h39.47.951,Surprise recog test,2023.1.3,60.01907402529893,
69,0,69,0,,,,,,,,,,,,,,,,,,,,,,,,,,,,,,,,,,298.07818519999273,299.10979830008,295.5728742000647,295.5728742000647,295.5728742000647,295.5728742000647,old_sceneIn_37.png,70,1.0,2.4986004000529647,,,034,01,2024-12-17_16h39.47.951,Surprise recog test,2023.1.3,60.01907402529893,
70,0,70,0,,,,,,,,,,,,,,,,,,,,,,,,,,,,,,,,,,300.75194660015404,301.7758915000595,299.10979830008,299.10979830008,299.10979830008,299.10979830008,new_sceneIn_4.png,71,5.0,1.6475209998898208,,,034,01,2024-12-17_16h39.47.951,Surprise recog test,2023.1.3,60.01907402529893,
71,0,71,0,,,,,,,,,,,,,,,,,,,,,,,,,,,,,,,,,,305.43390669999644,306.45843740017153,301.7758915000595,301.7758915000595,301.7758915000595,301.7758915000595,old_sceneIn_45.png,72,3.0,3.6611566999927163,,,034,01,2024-12-17_16h39.47.951,Surprise recog test,2023.1.3,60.01907402529893,
72,0,72,0,,,,,,,,,,,,,,,,,,,,,,,,,,,,,,,,,,308.64873730018735,309.6688031000085,306.45843740017153,306.45843740017153,306.45843740017153,306.45843740017153,new_sceneIn_27.png,73,4.0,2.1864461998920888,,,034,01,2024-12-17_16h39.47.951,Surprise recog test,2023.1.3,60.01907402529893,
73,0,73,0,,,,,,,,,,,,,,,,,,,,,,,,,,,,,,,,,,312.802913099993,313.8225053001661,309.6688031000085,309.6688031000085,309.6688031000085,309.6688031000085,old_sceneOut_49.png,74,2.0,3.133109899936244,,,034,01,2024-12-17_16h39.47.951,Surprise recog test,2023.1.3,60.01907402529893,
74,0,74,0,,,,,,,,,,,,,,,,,,,,,,,,,,,,,,,,,,316.8674794000108,317.8881736001931,313.8225053001661,313.8225053001661,313.8225053001661,313.8225053001661,new_fruit_35.png,75,2.0,3.0342614001128823,,,034,01,2024-12-17_16h39.47.951,Surprise recog test,2023.1.3,60.01907402529893,
75,0,75,0,,,,,,,,,,,,,,,,,,,,,,,,,,,,,,,,,,319.55610960000195,,317.8881736001931,317.8881736001931,317.8881736001931,317.8881736001931,new_sceneIn_18.png,76,4.0,1.668385799974203,,,034,01,2024-12-17_16h39.47.951,Surprise recog test,2023.1.3,60.01907402529893,
76,0,76,0,,,,,,,,,,,,,,,,,,,,,,,,,,,,,,,,,,322.6740745001007,323.6952284001745,320.59030829998665,320.59030829998665,320.59030829998665,320.59030829998665,new_fruit_28.png,77,4.0,2.0837183000985533,,,034,01,2024-12-17_16h39.47.951,Surprise recog test,2023.1.3,60.01907402529893,
77,0,77,0,,,,,,,,,,,,,,,,,,,,,,,,,,,,,,,,,,326.3836231001187,327.4137040001806,323.6952284001745,323.6952284001745,323.6952284001745,323.6952284001745,old_stationery_32.png,78,1.0,2.6895661000162363,,,034,01,2024-12-17_16h39.47.951,Surprise recog test,2023.1.3,60.01907402529893,
78,0,78,0,,,,,,,,,,,,,,,,,,,,,,,,,,,,,,,,,,330.13460039999336,331.1531684000511,327.4137040001806,327.4137040001806,327.4137040001806,327.4137040001806,new_sceneIn_19.png,79,2.0,2.723655000096187,,,034,01,2024-12-17_16h39.47.951,Surprise recog test,2023.1.3,60.01907402529893,
79,0,79,0,,,,,,,,,,,,,,,,,,,,,,,,,,,,,,,,,,332.3950744001195,333.4121942999773,331.1531684000511,331.1531684000511,331.1531684000511,331.1531684000511,old_stationery_12.png,80,1.0,1.2358228000812232,,,034,01,2024-12-17_16h39.47.951,Surprise recog test,2023.1.3,60.01907402529893,
80,0,80,0,,,,,,,,,,,,,,,,,,,,,,,,,,,,,,,,,,336.77643550001085,337.79397020000033,333.4121942999773,333.4121942999773,333.4121942999773,333.4121942999773,old_sceneIn_13.png,81,4.0,3.3607938000932336,,,034,01,2024-12-17_16h39.47.951,Surprise recog test,2023.1.3,60.01907402529893,
81,0,81,0,,,,,,,,,,,,,,,,,,,,,,,,,,,,,,,,,,339.1908826001454,340.2091645000037,337.79397020000033,337.79397020000033,337.79397020000033,337.79397020000033,old_stationery_23.png,82,1.0,1.3921538998838514,,,034,01,2024-12-17_16h39.47.951,Surprise recog test,2023.1.3,60.01907402529893,
82,0,82,0,,,,,,,,,,,,,,,,,,,,,,,,,,,,,,,,,,341.25887790019624,,340.2091645000037,340.2091645000037,340.2091645000037,340.2091645000037,old_fruit_37.png,83,1.0,1.043321899836883,,,034,01,2024-12-17_16h39.47.951,Surprise recog test,2023.1.3,60.01907402529893,
83,0,83,0,,,,,,,,,,,,,,,,,,,,,,,,,,,,,,,,,,343.9319403001573,344.9602522000205,342.2931761001237,342.2931761001237,342.2931761001237,342.2931761001237,old_fruit_43.png,84,5.0,1.6395994999911636,,,034,01,2024-12-17_16h39.47.951,Surprise recog test,2023.1.3,60.01907402529893,
84,0,84,0,,,,,,,,,,,,,,,,,,,,,,,,,,,,,,,,,,346.3535578001756,347.3788465000689,344.9602522000205,344.9602522000205,344.9602522000205,344.9602522000205,new_stationery_11.png,85,5.0,1.3967882997822016,,,034,01,2024-12-17_16h39.47.951,Surprise recog test,2023.1.3,60.01907402529893,
85,0,85,0,,,,,,,,,,,,,,,,,,,,,,,,,,,,,,,,,,349.596532399999,,347.3788465000689,347.3788465000689,347.3788465000689,347.3788465000689,old_sceneIn_36.png,86,5.0,2.2194621001835912,,,034,01,2024-12-17_16h39.47.951,Surprise recog test,2023.1.3,60.01907402529893,
86,0,86,0,,,,,,,,,,,,,,,,,,,,,,,,,,,,,,,,,,352.4376695000101,353.4757406001445,350.6329061000142,350.6329061000142,350.6329061000142,350.6329061000142,old_stationery_22.png,87,1.0,1.8072797998320311,,,034,01,2024-12-17_16h39.47.951,Surprise recog test,2023.1.3,60.01907402529893,
87,0,87,0,,,,,,,,,,,,,,,,,,,,,,,,,,,,,,,,,,355.10691329999827,356.1415130000096,353.4757406001445,353.4757406001445,353.4757406001445,353.4757406001445,old_sceneIn_27.png,88,5.0,1.6334621999412775,,,034,01,2024-12-17_16h39.47.951,Surprise recog test,2023.1.3,60.01907402529893,
88,0,88,0,,,,,,,,,,,,,,,,,,,,,,,,,,,,,,,,,,357.6569893001579,358.6889898001682,356.1415130000096,356.1415130000096,356.1415130000096,356.1415130000096,new_sceneOut_23.png,89,5.0,1.5180037999525666,,,034,01,2024-12-17_16h39.47.951,Surprise recog test,2023.1.3,60.01907402529893,
89,0,89,0,,,,,,,,,,,,,,,,,,,,,,,,,,,,,,,,,,361.271050499985,362.2906327000819,358.6889898001682,358.6889898001682,358.6889898001682,358.6889898001682,new_stationery_14.png,90,4.0,2.5844858000054955,,,034,01,2024-12-17_16h39.47.951,Surprise recog test,2023.1.3,60.01907402529893,
90,0,90,0,,,,,,,,,,,,,,,,,,,,,,,,,,,,,,,,,,364.42549010016955,,362.2906327000819,362.2906327000819,362.2906327000819,362.2906327000819,new_sceneIn_9.png,91,4.0,2.13717840006575,,,034,01,2024-12-17_16h39.47.951,Surprise recog test,2023.1.3,60.01907402529893,
91,0,91,0,,,,,,,,,,,,,,,,,,,,,,,,,,,,,,,,,,367.2186714001,368.2530494001694,365.45997390011325,365.45997390011325,365.45997390011325,365.45997390011325,new_sceneIn_16.png,92,4.0,1.759455299936235,,,034,01,2024-12-17_16h39.47.951,Surprise recog test,2023.1.3,60.01907402529893,
92,0,92,0,,,,,,,,,,,,,,,,,,,,,,,,,,,,,,,,,,369.30403100000694,370.33154190005735,368.2530494001694,368.2530494001694,368.2530494001694,368.2530494001694,old_stationery_1.png,93,1.0,1.0561577000189573,,,034,01,2024-12-17_16h39.47.951,Surprise recog test,2023.1.3,60.01907402529893,
93,0,93,0,,,,,,,,,,,,,,,,,,,,,,,,,,,,,,,,,,372.2597155000549,373.2789227999747,370.33154190005735,370.33154190005735,370.33154190005735,370.33154190005735,new_sceneOut_41.png,94,3.0,1.9300404998939484,,,034,01,2024-12-17_16h39.47.951,Surprise recog test,2023.1.3,60.01907402529893,
94,0,94,0,,,,,,,,,,,,,,,,,,,,,,,,,,,,,,,,,,375.8338206000626,376.8582175001502,373.2789227999747,373.2789227999747,373.2789227999747,373.2789227999747,new_stationery_45.png,95,5.0,2.5540080999489874,,,034,01,2024-12-17_16h39.47.951,Surprise recog test,2023.1.3,60.01907402529893,
95,0,95,0,,,,,,,,,,,,,,,,,,,,,,,,,,,,,,,,,,379.5333946000319,380.5540526001714,376.8582175001502,376.8582175001502,376.8582175001502,376.8582175001502,new_sceneOut_43.png,96,1.0,2.675795800052583,,,034,01,2024-12-17_16h39.47.951,Surprise recog test,2023.1.3,60.01907402529893,
96,0,96,0,,,,,,,,,,,,,,,,,,,,,,,,,,,,,,,,,,382.1886736000888,383.19321470009163,380.5540526001714,380.5540526001714,380.5540526001714,380.5540526001714,old_sceneOut_17.png,97,5.0,1.6378261998761445,,,034,01,2024-12-17_16h39.47.951,Surprise recog test,2023.1.3,60.01907402529893,
97,0,97,0,,,,,,,,,,,,,,,,,,,,,,,,,,,,,,,,,,385.7633729001973,386.78376989997923,383.19321470009163,383.19321470009163,383.19321470009163,383.19321470009163,old_sceneIn_8.png,98,5.0,2.564195000100881,,,034,01,2024-12-17_16h39.47.951,Surprise recog test,2023.1.3,60.01907402529893,
98,0,98,0,,,,,,,,,,,,,,,,,,,,,,,,,,,,,,,,,,391.0390092001762,392.0663189999759,386.78376989997923,386.78376989997923,386.78376989997923,386.78376989997923,new_sceneIn_37.png,99,4.0,4.250792299862951,,,034,01,2024-12-17_16h39.47.951,Surprise recog test,2023.1.3,60.01907402529893,
99,0,99,0,,,,,,,,,,,,,,,,,,,,,,,,,,,,,,,,,,394.1484772001859,395.1564277000725,392.0663189999759,392.0663189999759,392.0663189999759,392.0663189999759,old_sceneIn_46.png,100,5.0,2.081948700128123,,,034,01,2024-12-17_16h39.47.951,Surprise recog test,2023.1.3,60.01907402529893,
100,0,100,0,,,,,,,,,,,,,,,,,,,,,,,,,,,,,,,,,,396.8268228000961,397.84305929997936,395.1564277000725,395.1564277000725,395.1564277000725,395.1564277000725,old_sceneIn_34.png,101,5.0,1.6664980000350624,,,034,01,2024-12-17_16h39.47.951,Surprise recog test,2023.1.3,60.01907402529893,
101,0,101,0,,,,,,,,,,,,,,,,,,,,,,,,,,,,,,,,,,401.1222302999813,402.1289800000377,397.84305929997936,397.84305929997936,397.84305929997936,397.84305929997936,old_fruit_4.png,102,5.0,3.276401200098917,,,034,01,2024-12-17_16h39.47.951,Surprise recog test,2023.1.3,60.01907402529893,
102,0,102,0,,,,,,,,,,,,,,,,,,,,,,,,,,,,,,,,,,403.97770570009016,,402.1289800000377,402.1289800000377,402.1289800000377,402.1289800000377,old_stationery_38.png,103,5.0,1.8424121998250484,,,034,01,2024-12-17_16h39.47.951,Surprise recog test,2023.1.3,60.01907402529893,
103,0,103,0,,,,,,,,,,,,,,,,,,,,,,,,,,,,,,,,,,406.0086539001204,407.03223300003447,405.0081033001188,405.0081033001188,405.0081033001188,405.0081033001188,old_sceneIn_33.png,104,5.0,0.9986586000304669,,,034,01,2024-12-17_16h39.47.951,Surprise recog test,2023.1.3,60.01907402529893,
104,0,104,0,,,,,,,,,,,,,,,,,,,,,,,,,,,,,,,,,,409.2468601001892,,407.03223300003447,407.03223300003447,407.03223300003447,407.03223300003447,old_sceneIn_1.png,105,4.0,2.2167764001060277,,,034,01,2024-12-17_16h39.47.951,Surprise recog test,2023.1.3,60.01907402529893,
105,0,105,0,,,,,,,,,,,,,,,,,,,,,,,,,,,,,,,,,,411.97139089996926,412.9849142001476,410.28478900017217,410.28478900017217,410.28478900017217,410.28478900017217,new_sceneIn_40.png,106,4.0,1.6896669999696314,,,034,01,2024-12-17_16h39.47.951,Surprise recog test,2023.1.3,60.01907402529893,
106,0,106,0,,,,,,,,,,,,,,,,,,,,,,,,,,,,,,,,,,415.04897290002555,416.06880920007825,412.9849142001476,412.9849142001476,412.9849142001476,412.9849142001476,new_sceneOut_19.png,107,3.0,2.05814790003933,,,034,01,2024-12-17_16h39.47.951,Surprise recog test,2023.1.3,60.01907402529893,
107,0,107,0,,,,,,,,,,,,,,,,,,,,,,,,,,,,,,,,,,418.3099885000847,419.33447870006785,416.06880920007825,416.06880920007825,416.06880920007825,416.06880920007825,new_sceneIn_47.png,108,5.0,2.2433004998601973,,,034,01,2024-12-17_16h39.47.951,Surprise recog test,2023.1.3,60.01907402529893,
108,0,108,0,,,,,,,,,,,,,,,,,,,,,,,,,,,,,,,,,,421.42991760000587,422.4460854001809,419.33447870006785,419.33447870006785,419.33447870006785,419.33447870006785,new_stationery_18.png,109,1.0,2.096563700120896,,,034,01,2024-12-17_16h39.47.951,Surprise recog test,2023.1.3,60.01907402529893,
109,0,109,0,,,,,,,,,,,,,,,,,,,,,,,,,,,,,,,,,,424.4901416001376,425.5115643001627,422.4460854001809,422.4460854001809,422.4460854001809,422.4460854001809,old_sceneOut_42.png,110,4.0,2.039856200106442,,,034,01,2024-12-17_16h39.47.951,Surprise recog test,2023.1.3,60.01907402529893,
110,0,110,0,,,,,,,,,,,,,,,,,,,,,,,,,,,,,,,,,,426.8984301001765,427.91737510007806,425.5115643001627,425.5115643001627,425.5115643001627,425.5115643001627,old_stationery_27.png,111,1.0,1.3895372000988573,,,034,01,2024-12-17_16h39.47.951,Surprise recog test,2023.1.3,60.01907402529893,
111,0,111,0,,,,,,,,,,,,,,,,,,,,,,,,,,,,,,,,,,429.5615893001668,430.5805009000469,427.91737510007806,427.91737510007806,427.91737510007806,427.91737510007806,old_sceneIn_6.png,112,5.0,1.638642700156197,,,034,01,2024-12-17_16h39.47.951,Surprise recog test,2023.1.3,60.01907402529893,
112,0,112,0,,,,,,,,,,,,,,,,,,,,,,,,,,,,,,,,,,433.0141122001223,434.03286919998936,430.5805009000469,430.5805009000469,430.5805009000469,430.5805009000469,old_sceneOut_33.png,113,4.0,2.4302090001292527,,,034,01,2024-12-17_16h39.47.951,Surprise recog test,2023.1.3,60.01907402529893,
113,0,113,0,,,,,,,,,,,,,,,,,,,,,,,,,,,,,,,,,,437.38497460004874,438.4010731000453,434.03286919998936,434.03286919998936,434.03286919998936,434.03286919998936,new_fruit_48.png,114,3.0,3.3531346002127975,,,034,01,2024-12-17_16h39.47.951,Surprise recog test,2023.1.3,60.01907402529893,
114,0,114,0,,,,,,,,,,,,,,,,,,,,,,,,,,,,,,,,,,440.19287570007145,441.22221490019,438.4010731000453,438.4010731000453,438.4010731000453,438.4010731000453,new_fruit_38.png,115,3.0,1.7949579001870006,,,034,01,2024-12-17_16h39.47.951,Surprise recog test,2023.1.3,60.01907402529893,
115,0,115,0,,,,,,,,,,,,,,,,,,,,,,,,,,,,,,,,,,442.85690120002255,443.87308230018243,441.22221490019,441.22221490019,441.22221490019,441.22221490019,new_stationery_8.png,116,5.0,1.6360816999804229,,,034,01,2024-12-17_16h39.47.951,Surprise recog test,2023.1.3,60.01907402529893,
116,0,116,0,,,,,,,,,,,,,,,,,,,,,,,,,,,,,,,,,,445.21452799998224,446.2383320000954,443.87308230018243,443.87308230018243,443.87308230018243,443.87308230018243,old_sceneOut_23.png,117,4.0,1.339990000007674,,,034,01,2024-12-17_16h39.47.951,Surprise recog test,2023.1.3,60.01907402529893,
117,0,117,0,,,,,,,,,,,,,,,,,,,,,,,,,,,,,,,,,,448.3619550000876,,446.2383320000954,446.2383320000954,446.2383320000954,446.2383320000954,old_sceneOut_4.png,118,4.0,2.119153799954802,,,034,01,2024-12-17_16h39.47.951,Surprise recog test,2023.1.3,60.01907402529893,
118,0,118,0,,,,,,,,,,,,,,,,,,,,,,,,,,,,,,,,,,450.61177509999834,451.63637690013275,449.39103549998254,449.39103549998254,449.39103549998254,449.39103549998254,new_fruit_39.png,119,4.0,1.2172074001282454,,,034,01,2024-12-17_16h39.47.951,Surprise recog test,2023.1.3,60.01907402529893,
119,0,119,0,,,,,,,,,,,,,,,,,,,,,,,,,,,,,,,,,,453.71706330007873,,451.63637690013275,451.63637690013275,451.63637690013275,451.63637690013275,new_sceneOut_47.png,120,4.0,2.0841990001499653,,,034,01,2024-12-17_16h39.47.951,Surprise recog test,2023.1.3,60.01907402529893,
120,0,120,0,,,,,,,,,,,,,,,,,,,,,,,,,,,,,,,,,,457.06563440011814,458.08609210001305,454.75022760010324,454.75022760010324,454.75022760010324,454.75022760010324,new_stationery_9.png,121,5.0,2.3161755001638085,,,034,01,2024-12-17_16h39.47.951,Surprise recog test,2023.1.3,60.01907402529893,
121,0,121,0,,,,,,,,,,,,,,,,,,,,,,,,,,,,,,,,,,460.4289869000204,461.4415119001642,458.08609210001305,458.08609210001305,458.08609210001305,458.08609210001305,new_sceneOut_38.png,122,4.0,2.3427246999926865,,,034,01,2024-12-17_16h39.47.951,Surprise recog test,2023.1.3,60.01907402529893,
122,0,122,0,,,,,,,,,,,,,,,,,,,,,,,,,,,,,,,,,,463.27960290014744,464.3041602000594,461.4415119001642,461.4415119001642,461.4415119001642,461.4415119001642,new_stationery_36.png,123,5.0,1.8330659000203013,,,034,01,2024-12-17_16h39.47.951,Surprise recog test,2023.1.3,60.01907402529893,
123,0,123,0,,,,,,,,,,,,,,,,,,,,,,,,,,,,,,,,,,467.16959920013323,468.19700870011,464.3041602000594,464.3041602000594,464.3041602000594,464.3041602000594,old_fruit_25.png,124,2.0,2.8663162000011653,,,034,01,2024-12-17_16h39.47.951,Surprise recog test,2023.1.3,60.01907402529893,
124,0,124,0,,,,,,,,,,,,,,,,,,,,,,,,,,,,,,,,,,469.5652573001571,,468.19700870011,468.19700870011,468.19700870011,468.19700870011,new_sceneIn_13.png,125,5.0,1.3688107999041677,,,034,01,2024-12-17_16h39.47.951,Surprise recog test,2023.1.3,60.01907402529893,
125,0,125,0,,,,,,,,,,,,,,,,,,,,,,,,,,,,,,,,,,472.097489700187,473.11978990002535,470.59859820012935,470.59859820012935,470.59859820012935,470.59859820012935,old_sceneIn_14.png,126,1.0,1.4995925000403076,,,034,01,2024-12-17_16h39.47.951,Surprise recog test,2023.1.3,60.01907402529893,
126,0,126,0,,,,,,,,,,,,,,,,,,,,,,,,,,,,,,,,,,475.5091369000729,476.5242049000226,473.11978990002535,473.11978990002535,473.11978990002535,473.11978990002535,new_fruit_25.png,127,4.0,2.3926790000405163,,,034,01,2024-12-17_16h39.47.951,Surprise recog test,2023.1.3,60.01907402529893,
127,0,127,0,,,,,,,,,,,,,,,,,,,,,,,,,,,,,,,,,,477.75091970013455,478.7606063000858,476.5242049000226,476.5242049000226,476.5242049000226,476.5242049000226,old_stationery_13.png,128,1.0,1.2223133000079542,,,034,01,2024-12-17_16h39.47.951,Surprise recog test,2023.1.3,60.01907402529893,
128,0,128,0,,,,,,,,,,,,,,,,,,,,,,,,,,,,,,,,,,480.76538090012036,481.77963860007003,478.7606063000858,478.7606063000858,478.7606063000858,478.7606063000858,old_sceneIn_3.png,129,4.0,2.001286100130528,,,034,01,2024-12-17_16h39.47.951,Surprise recog test,2023.1.3,60.01907402529893,
129,0,129,0,,,,,,,,,,,,,,,,,,,,,,,,,,,,,,,,,,484.30992450006306,,481.77963860007003,481.77963860007003,481.77963860007003,481.77963860007003,old_sceneIn_38.png,130,1.0,2.526659999974072,,,034,01,2024-12-17_16h39.47.951,Surprise recog test,2023.1.3,60.01907402529893,
130,0,130,0,,,,,,,,,,,,,,,,,,,,,,,,,,,,,,,,,,486.54957450018264,487.5624232001137,485.3298969999887,485.3298969999887,485.3298969999887,485.3298969999887,old_fruit_29.png,131,4.0,1.2124914999585599,,,034,01,2024-12-17_16h39.47.951,Surprise recog test,2023.1.3,60.01907402529893,
131,0,131,0,,,,,,,,,,,,,,,,,,,,,,,,,,,,,,,,,,488.86920260009356,489.8810706001241,487.5624232001137,487.5624232001137,487.5624232001137,487.5624232001137,old_sceneOut_44.png,132,4.0,1.3025756999850273,,,034,01,2024-12-17_16h39.47.951,Surprise recog test,2023.1.3,60.01907402529893,
132,0,132,0,,,,,,,,,,,,,,,,,,,,,,,,,,,,,,,,,,491.71572019997984,,489.8810706001241,489.8810706001241,489.8810706001241,489.8810706001241,old_sceneIn_44.png,133,4.0,1.8309777001850307,,,034,01,2024-12-17_16h39.47.951,Surprise recog test,2023.1.3,60.01907402529893,
133,0,133,0,,,,,,,,,,,,,,,,,,,,,,,,,,,,,,,,,,494.041483100038,495.0698361999821,492.7486730001401,492.7486730001401,492.7486730001401,492.7486730001401,old_stationery_5.png,134,1.0,1.2932959999889135,,,034,01,2024-12-17_16h39.47.951,Surprise recog test,2023.1.3,60.01907402529893,
134,0,134,0,,,,,,,,,,,,,,,,,,,,,,,,,,,,,,,,,,495.9962630001828,497.0054589000065,495.0698361999821,495.0698361999821,495.0698361999821,495.0698361999821,new_stationery_2.png,135,1.0,0.9255625999066979,,,034,01,2024-12-17_16h39.47.951,Surprise recog test,2023.1.3,60.01907402529893,
135,0,135,0,,,,,,,,,,,,,,,,,,,,,,,,,,,,,,,,,,499.5664176000282,500.5883936001919,497.0054589000065,497.0054589000065,497.0054589000065,497.0054589000065,new_stationery_32.png,136,5.0,2.556322199990973,,,034,01,2024-12-17_16h39.47.951,Surprise recog test,2023.1.3,60.01907402529893,
136,0,136,0,,,,,,,,,,,,,,,,,,,,,,,,,,,,,,,,,,502.5048711001873,503.5131793001201,500.5883936001919,500.5883936001919,500.5883936001919,500.5883936001919,old_sceneOut_10.png,137,5.0,1.9150688000954688,,,034,01,2024-12-17_16h39.47.951,Surprise recog test,2023.1.3,60.01907402529893,
137,0,137,0,,,,,,,,,,,,,,,,,,,,,,,,,,,,,,,,,,504.941216400126,505.9634221000597,503.5131793001201,503.5131793001201,503.5131793001201,503.5131793001201,new_fruit_40.png,138,5.0,1.421569800004363,,,034,01,2024-12-17_16h39.47.951,Surprise recog test,2023.1.3,60.01907402529893,
138,0,138,0,,,,,,,,,,,,,,,,,,,,,,,,,,,,,,,,,,508.82951820013113,,505.9634221000597,505.9634221000597,505.9634221000597,505.9634221000597,old_sceneOut_32.png,139,5.0,2.865552900126204,,,034,01,2024-12-17_16h39.47.951,Surprise recog test,2023.1.3,60.01907402529893,
139,0,139,0,,,,,,,,,,,,,,,,,,,,,,,,,,,,,,,,,,511.4827482001856,,509.8667741001118,509.8667741001118,509.8667741001118,509.8667741001118,old_fruit_8.png,140,2.0,1.6195459000300616,,,034,01,2024-12-17_16h39.47.951,Surprise recog test,2023.1.3,60.01907402529893,
140,0,140,0,,,,,,,,,,,,,,,,,,,,,,,,,,,,,,,,,,514.6574784000404,515.6865154001862,512.5092698000371,512.5092698000371,512.5092698000371,512.5092698000371,new_sceneOut_25.png,141,5.0,2.1485766998957843,,,034,01,2024-12-17_16h39.47.951,Surprise recog test,2023.1.3,60.01907402529893,
141,0,141,0,,,,,,,,,,,,,,,,,,,,,,,,,,,,,,,,,,518.9806633000262,520.002991600195,515.6865154001862,515.6865154001862,515.6865154001862,515.6865154001862,new_fruit_46.png,142,4.0,3.2973229000344872,,,034,01,2024-12-17_16h39.47.951,Surprise recog test,2023.1.3,60.01907402529893,
142,0,142,0,,,,,,,,,,,,,,,,,,,,,,,,,,,,,,,,,,521.2328631000128,522.2468611001968,520.002991600195,520.002991600195,520.002991600195,520.002991600195,old_sceneIn_50.png,143,5.0,1.2305791999679059,,,034,01,2024-12-17_16h39.47.951,Surprise recog test,2023.1.3,60.01907402529893,
143,0,143,0,,,,,,,,,,,,,,,,,,,,,,,,,,,,,,,,,,523.7956929001957,524.8258241000585,522.2468611001968,522.2468611001968,522.2468611001968,522.2468611001968,old_sceneOut_21.png,144,5.0,1.5446234000846744,,,034,01,2024-12-17_16h39.47.951,Surprise recog test,2023.1.3,60.01907402529893,
144,0,144,0,,,,,,,,,,,,,,,,,,,,,,,,,,,,,,,,,,527.8338524000719,528.8633125000633,524.8258241000585,524.8258241000585,524.8258241000585,524.8258241000585,old_fruit_27.png,145,5.0,3.0086068001110107,,,034,01,2024-12-17_16h39.47.951,Surprise recog test,2023.1.3,60.01907402529893,
145,0,145,0,,,,,,,,,,,,,,,,,,,,,,,,,,,,,,,,,,530.543565900065,531.5636050000321,528.8633125000633,528.8633125000633,528.8633125000633,528.8633125000633,new_sceneOut_37.png,146,4.0,1.6822796000633389,,,034,01,2024-12-17_16h39.47.951,Surprise recog test,2023.1.3,60.01907402529893,
146,0,146,0,,,,,,,,,,,,,,,,,,,,,,,,,,,,,,,,,,533.6368627001066,534.6569593001623,531.5636050000321,531.5636050000321,531.5636050000321,531.5636050000321,new_fruit_9.png,147,5.0,2.0750408000312746,,,034,01,2024-12-17_16h39.47.951,Surprise recog test,2023.1.3,60.01907402529893,
147,0,147,0,,,,,,,,,,,,,,,,,,,,,,,,,,,,,,,,,,538.4694058001041,539.4745044000447,534.6569593001623,534.6569593001623,534.6569593001623,534.6569593001623,old_fruit_41.png,148,4.0,3.808540199883282,,,034,01,2024-12-17_16h39.47.951,Surprise recog test,2023.1.3,60.01907402529893,
148,0,148,0,,,,,,,,,,,,,,,,,,,,,,,,,,,,,,,,,,543.2594528000336,,539.4745044000447,539.4745044000447,539.4745044000447,539.4745044000447,old_sceneIn_22.png,149,5.0,3.780904500046745,,,034,01,2024-12-17_16h39.47.951,Surprise recog test,2023.1.3,60.01907402529893,
149,0,149,0,,,,,,,,,,,,,,,,,,,,,,,,,,,,,,,,,,546.3605061001144,,544.2805660001468,544.2805660001468,544.2805660001468,544.2805660001468,new_sceneIn_28.png,150,5.0,2.0754044000059366,,,034,01,2024-12-17_16h39.47.951,Surprise recog test,2023.1.3,60.01907402529893,
150,0,150,0,,,,,,,,,,,,,,,,,,,,,,,,,,,,,,,,,,549.1144756001886,,547.3974073000718,547.3974073000718,547.3974073000718,547.3974073000718,old_sceneIn_15.png,151,5.0,1.7214899000246078,,,034,01,2024-12-17_16h39.47.951,Surprise recog test,2023.1.3,60.01907402529893,
151,0,151,0,,,,,,,,,,,,,,,,,,,,,,,,,,,,,,,,,,551.3175552000757,552.3339653001167,550.145422300091,550.145422300091,550.145422300091,550.145422300091,new_fruit_24.png,152,5.0,1.1746203999500722,,,034,01,2024-12-17_16h39.47.951,Surprise recog test,2023.1.3,60.01907402529893,
152,0,152,0,,,,,,,,,,,,,,,,,,,,,,,,,,,,,,,,,,557.3336547000799,,552.3339653001167,552.3339653001167,552.3339653001167,552.3339653001167,old_sceneIn_30.png,153,None,None,557.3203569999896,,034,01,2024-12-17_16h39.47.951,Surprise recog test,2023.1.3,60.01907402529893,
153,0,153,0,,,,,,,,,,,,,,,,,,,,,,,,,,,,,,,,,,559.8002202000935,560.8218835999724,558.3563176000025,558.3563176000025,558.3563176000025,558.3563176000025,old_stationery_8.png,154,1.0,1.446387599920854,,,034,01,2024-12-17_16h39.47.951,Surprise recog test,2023.1.3,60.01907402529893,
154,0,154,0,,,,,,,,,,,,,,,,,,,,,,,,,,,,,,,,,,562.8177118999884,563.8302990000229,560.8218835999724,560.8218835999724,560.8218835999724,560.8218835999724,old_sceneIn_32.png,155,4.0,1.9950633000116795,,,034,01,2024-12-17_16h39.47.951,Surprise recog test,2023.1.3,60.01907402529893,
155,0,155,0,,,,,,,,,,,,,,,,,,,,,,,,,,,,,,,,,,565.0778618999757,,563.8302990000229,563.8302990000229,563.8302990000229,563.8302990000229,old_sceneIn_28.png,156,5.0,1.2420008999761194,,,034,01,2024-12-17_16h39.47.951,Surprise recog test,2023.1.3,60.01907402529893,
156,0,156,0,,,,,,,,,,,,,,,,,,,,,,,,,,,,,,,,,,567.5210975999944,568.5459400999825,566.1094917000737,566.1094917000737,566.1094917000737,566.1094917000737,old_stationery_39.png,157,1.0,1.413774099899456,,,034,01,2024-12-17_16h39.47.951,Surprise recog test,2023.1.3,60.01907402529893,
157,0,157,0,,,,,,,,,,,,,,,,,,,,,,,,,,,,,,,,,,570.1350784001406,571.1519641000777,568.5459400999825,568.5459400999825,568.5459400999825,568.5459400999825,new_sceneOut_49.png,158,2.0,1.5912740000057966,,,034,01,2024-12-17_16h39.47.951,Surprise recog test,2023.1.3,60.01907402529893,
158,0,158,0,,,,,,,,,,,,,,,,,,,,,,,,,,,,,,,,,,573.2234062000643,574.240024200175,571.1519641000777,571.1519641000777,571.1519641000777,571.1519641000777,new_sceneIn_25.png,159,4.0,2.0673548001796007,,,034,01,2024-12-17_16h39.47.951,Surprise recog test,2023.1.3,60.01907402529893,
159,0,159,0,,,,,,,,,,,,,,,,,,,,,,,,,,,,,,,,,,575.5886777001433,576.6117883000989,574.240024200175,574.240024200175,574.240024200175,574.240024200175,new_sceneOut_14.png,160,4.0,1.3461492999922484,,,034,01,2024-12-17_16h39.47.951,Surprise recog test,2023.1.3,60.01907402529893,
160,0,160,0,,,,,,,,,,,,,,,,,,,,,,,,,,,,,,,,,,578.1510127000511,579.1583869000897,576.6117883000989,576.6117883000989,576.6117883000989,576.6117883000989,new_fruit_22.png,161,4.0,1.537818299839273,,,034,01,2024-12-17_16h39.47.951,Surprise recog test,2023.1.3,60.01907402529893,
161,0,161,0,,,,,,,,,,,,,,,,,,,,,,,,,,,,,,,,,,581.1498747000005,582.1741564001422,579.1583869000897,579.1583869000897,579.1583869000897,579.1583869000897,new_fruit_5.png,162,2.0,1.9871719998773187,,,034,01,2024-12-17_16h39.47.951,Surprise recog test,2023.1.3,60.01907402529893,
162,0,162,0,,,,,,,,,,,,,,,,,,,,,,,,,,,,,,,,,,583.8231164000463,584.8424246001523,582.1741564001422,582.1741564001422,582.1741564001422,582.1741564001422,old_sceneOut_24.png,163,4.0,1.6495059002190828,,,034,01,2024-12-17_16h39.47.951,Surprise recog test,2023.1.3,60.01907402529893,
163,0,163,0,,,,,,,,,,,,,,,,,,,,,,,,,,,,,,,,,,586.5489944000728,587.5803061001934,584.8424246001523,584.8424246001523,584.8424246001523,584.8424246001523,old_sceneIn_41.png,164,4.0,1.7057059998624027,,,034,01,2024-12-17_16h39.47.951,Surprise recog test,2023.1.3,60.01907402529893,
164,0,164,0,,,,,,,,,,,,,,,,,,,,,,,,,,,,,,,,,,589.3602335001342,590.3777760001831,587.5803061001934,587.5803061001934,587.5803061001934,587.5803061001934,old_fruit_16.png,165,2.0,1.7783015000168234,,,034,01,2024-12-17_16h39.47.951,Surprise recog test,2023.1.3,60.01907402529893,
165,0,165,0,,,,,,,,,,,,,,,,,,,,,,,,,,,,,,,,,,591.7674679001793,592.7871212000027,590.3777760001831,590.3777760001831,590.3777760001831,590.3777760001831,new_stationery_16.png,166,1.0,1.3871985001023859,,,034,01,2024-12-17_16h39.47.951,Surprise recog test,2023.1.3,60.01907402529893,
166,0,166,0,,,,,,,,,,,,,,,,,,,,,,,,,,,,,,,,,,594.6398734999821,595.6680358001031,592.7871212000027,592.7871212000027,592.7871212000027,592.7871212000027,new_fruit_18.png,167,3.0,1.8490283000282943,,,034,01,2024-12-17_16h39.47.951,Surprise recog test,2023.1.3,60.01907402529893,
167,0,167,0,,,,,,,,,,,,,,,,,,,,,,,,,,,,,,,,,,596.7420671000145,597.7576219001785,595.6680358001031,595.6680358001031,595.6680358001031,595.6680358001031,old_stationery_50.png,168,1.0,1.075719399843365,,,034,01,2024-12-17_16h39.47.951,Surprise recog test,2023.1.3,60.01907402529893,
168,0,168,0,,,,,,,,,,,,,,,,,,,,,,,,,,,,,,,,,,598.7070344001986,599.734936500201,597.7576219001785,597.7576219001785,597.7576219001785,597.7576219001785,old_stationery_29.png,169,1.0,0.9437291999347508,,,034,01,2024-12-17_16h39.47.951,Surprise recog test,2023.1.3,60.01907402529893,
169,0,169,0,,,,,,,,,,,,,,,,,,,,,,,,,,,,,,,,,,600.7813032001723,601.8090215001721,599.734936500201,599.734936500201,599.734936500201,599.734936500201,old_fruit_33.png,170,1.0,1.0472809998318553,,,034,01,2024-12-17_16h39.47.951,Surprise recog test,2023.1.3,60.01907402529893,
170,0,170,0,,,,,,,,,,,,,,,,,,,,,,,,,,,,,,,,,,603.1550873001106,604.1749383001588,601.8090215001721,601.8090215001721,601.8090215001721,601.8090215001721,new_sceneIn_39.png,171,4.0,1.3424078000243753,,,034,01,2024-12-17_16h39.47.951,Surprise recog test,2023.1.3,60.01907402529893,
171,0,171,0,,,,,,,,,,,,,,,,,,,,,,,,,,,,,,,,,,605.134382000193,606.1511629000306,604.1749383001588,604.1749383001588,604.1749383001588,604.1749383001588,new_sceneOut_10.png,172,4.0,0.9612420001067221,,,034,01,2024-12-17_16h39.47.951,Surprise recog test,2023.1.3,60.01907402529893,
172,0,172,0,,,,,,,,,,,,,,,,,,,,,,,,,,,,,,,,,,607.5920777001884,608.6131855000276,606.1511629000306,606.1511629000306,606.1511629000306,606.1511629000306,old_sceneOut_39.png,173,4.0,1.4378448000643402,,,034,01,2024-12-17_16h39.47.951,Surprise recog test,2023.1.3,60.01907402529893,
173,0,173,0,,,,,,,,,,,,,,,,,,,,,,,,,,,,,,,,,,611.3188934000209,612.3406027001329,608.6131855000276,608.6131855000276,608.6131855000276,608.6131855000276,old_fruit_19.png,174,3.0,2.7080849001649767,,,034,01,2024-12-17_16h39.47.951,Surprise recog test,2023.1.3,60.01907402529893,
174,0,174,0,,,,,,,,,,,,,,,,,,,,,,,,,,,,,,,,,,614.3604490000289,615.3861746999901,612.3406027001329,612.3406027001329,612.3406027001329,612.3406027001329,old_sceneIn_5.png,175,5.0,2.0147875000257045,,,034,01,2024-12-17_16h39.47.951,Surprise recog test,2023.1.3,60.01907402529893,
175,0,175,0,,,,,,,,,,,,,,,,,,,,,,,,,,,,,,,,,,616.6830027000979,617.7029540999793,615.3861746999901,615.3861746999901,615.3861746999901,615.3861746999901,new_sceneIn_14.png,176,5.0,1.292372499825433,,,034,01,2024-12-17_16h39.47.951,Surprise recog test,2023.1.3,60.01907402529893,
176,0,176,0,,,,,,,,,,,,,,,,,,,,,,,,,,,,,,,,,,618.550692200195,619.5589525001124,617.7029540999793,617.7029540999793,617.7029540999793,617.7029540999793,old_sceneOut_12.png,177,5.0,0.8493503998033702,,,034,01,2024-12-17_16h39.47.951,Surprise recog test,2023.1.3,60.01907402529893,
177,0,177,0,,,,,,,,,,,,,,,,,,,,,,,,,,,,,,,,,,621.7915858000051,,619.5589525001124,619.5589525001124,619.5589525001124,619.5589525001124,old_fruit_9.png,178,3.0,2.226190499961376,,,034,01,2024-12-17_16h39.47.951,Surprise recog test,2023.1.3,60.01907402529893,
178,0,178,0,,,,,,,,,,,,,,,,,,,,,,,,,,,,,,,,,,624.947553700069,625.975711800158,622.8112445001025,622.8112445001025,622.8112445001025,622.8112445001025,new_stationery_31.png,179,5.0,2.13016360020265,,,034,01,2024-12-17_16h39.47.951,Surprise recog test,2023.1.3,60.01907402529893,
179,0,179,0,,,,,,,,,,,,,,,,,,,,,,,,,,,,,,,,,,627.6787475000601,,625.975711800158,625.975711800158,625.975711800158,625.975711800158,new_sceneOut_46.png,180,5.0,1.70427650003694,,,034,01,2024-12-17_16h39.47.951,Surprise recog test,2023.1.3,60.01907402529893,
180,0,180,0,,,,,,,,,,,,,,,,,,,,,,,,,,,,,,,,,,630.201864000177,631.2298202000093,628.7130786001217,628.7130786001217,628.7130786001217,628.7130786001217,new_stationery_3.png,181,5.0,1.4916675998829305,,,034,01,2024-12-17_16h39.47.951,Surprise recog test,2023.1.3,60.01907402529893,
181,0,181,0,,,,,,,,,,,,,,,,,,,,,,,,,,,,,,,,,,632.8867626001593,633.9014000000898,631.2298202000093,631.2298202000093,631.2298202000093,631.2298202000093,new_stationery_24.png,182,5.0,1.6589146999176592,,,034,01,2024-12-17_16h39.47.951,Surprise recog test,2023.1.3,60.01907402529893,
182,0,182,0,,,,,,,,,,,,,,,,,,,,,,,,,,,,,,,,,,636.1143589001149,637.1253794999793,633.9014000000898,633.9014000000898,633.9014000000898,633.9014000000898,new_fruit_29.png,183,5.0,2.2088029000442475,,,034,01,2024-12-17_16h39.47.951,Surprise recog test,2023.1.3,60.01907402529893,
183,0,183,0,,,,,,,,,,,,,,,,,,,,,,,,,,,,,,,,,,638.249472200172,639.2591107001062,637.1253794999793,637.1253794999793,637.1253794999793,637.1253794999793,old_fruit_20.png,184,5.0,1.1204061000607908,,,034,01,2024-12-17_16h39.47.951,Surprise recog test,2023.1.3,60.01907402529893,
184,0,184,0,,,,,,,,,,,,,,,,,,,,,,,,,,,,,,,,,,640.982629199978,642.0041334000416,639.2591107001062,639.2591107001062,639.2591107001062,639.2591107001062,new_sceneOut_45.png,185,5.0,1.7197560998611152,,,034,01,2024-12-17_16h39.47.951,Surprise recog test,2023.1.3,60.01907402529893,
185,0,185,0,,,,,,,,,,,,,,,,,,,,,,,,,,,,,,,,,,643.6476517000701,644.6702183000743,642.0041334000416,642.0041334000416,642.0041334000416,642.0041334000416,old_sceneIn_47.png,186,1.0,1.643394700018689,,,034,01,2024-12-17_16h39.47.951,Surprise recog test,2023.1.3,60.01907402529893,
186,0,186,0,,,,,,,,,,,,,,,,,,,,,,,,,,,,,,,,,,647.0413876001257,648.0626038999762,644.6702183000743,644.6702183000743,644.6702183000743,644.6702183000743,new_sceneIn_32.png,187,5.0,2.367075700080022,,,034,01,2024-12-17_16h39.47.951,Surprise recog test,2023.1.3,60.01907402529893,
187,0,187,0,,,,,,,,,,,,,,,,,,,,,,,,,,,,,,,,,,649.7893664001022,650.8183270001318,648.0626038999762,648.0626038999762,648.0626038999762,648.0626038999762,old_sceneIn_12.png,188,3.0,1.7303404998965561,,,034,01,2024-12-17_16h39.47.951,Surprise recog test,2023.1.3,60.01907402529893,
188,0,188,0,,,,,,,,,,,,,,,,,,,,,,,,,,,,,,,,,,652.2818005001172,,650.8183270001318,650.8183270001318,650.8183270001318,650.8183270001318,new_fruit_2.png,189,2.0,1.4684574999846518,,,034,01,2024-12-17_16h39.47.951,Surprise recog test,2023.1.3,60.01907402529893,
189,0,189,0,,,,,,,,,,,,,,,,,,,,,,,,,,,,,,,,,,656.8343950000126,657.8486731001176,653.3139504999854,653.3139504999854,653.3139504999854,653.3139504999854,old_fruit_23.png,190,2.0,3.5223864999134094,,,034,01,2024-12-17_16h39.47.951,Surprise recog test,2023.1.3,60.01907402529893,
190,0,190,0,,,,,,,,,,,,,,,,,,,,,,,,,,,,,,,,,,658.9867387001868,,657.8486731001176,657.8486731001176,657.8486731001176,657.8486731001176,new_stationery_35.png,191,1.0,1.1395372999832034,,,034,01,2024-12-17_16h39.47.951,Surprise recog test,2023.1.3,60.01907402529893,
191,0,191,0,,,,,,,,,,,,,,,,,,,,,,,,,,,,,,,,,,661.0051369001158,,660.0179976001382,660.0179976001382,660.0179976001382,660.0179976001382,old_stationery_47.png,192,1.0,0.9888083999976516,,,034,01,2024-12-17_16h39.47.951,Surprise recog test,2023.1.3,60.01907402529893,
192,0,192,0,,,,,,,,,,,,,,,,,,,,,,,,,,,,,,,,,,663.3562669001985,664.3695102001075,662.0431771001313,662.0431771001313,662.0431771001313,662.0431771001313,old_sceneIn_10.png,193,1.0,1.3133503999561071,,,034,01,2024-12-17_16h39.47.951,Surprise recog test,2023.1.3,60.01907402529893,
193,0,193,0,,,,,,,,,,,,,,,,,,,,,,,,,,,,,,,,,,665.3043651001062,666.3283729001414,664.3695102001075,664.3695102001075,664.3695102001075,664.3695102001075,old_stationery_10.png,194,1.0,0.9362825998105109,,,034,01,2024-12-17_16h39.47.951,Surprise recog test,2023.1.3,60.01907402529893,
194,0,194,0,,,,,,,,,,,,,,,,,,,,,,,,,,,,,,,,,,668.2481517000124,669.2866601999849,666.3283729001414,666.3283729001414,666.3283729001414,666.3283729001414,new_sceneOut_40.png,195,2.0,1.9222432000096887,,,034,01,2024-12-17_16h39.47.951,Surprise recog test,2023.1.3,60.01907402529893,
195,0,195,0,,,,,,,,,,,,,,,,,,,,,,,,,,,,,,,,,,670.6233552000485,671.636166700162,669.2866601999849,669.2866601999849,669.2866601999849,669.2866601999849,old_sceneOut_45.png,196,4.0,1.3397592001128942,,,034,01,2024-12-17_16h39.47.951,Surprise recog test,2023.1.3,60.01907402529893,
196,0,196,0,,,,,,,,,,,,,,,,,,,,,,,,,,,,,,,,,,672.8478558000643,673.8668133001775,671.636166700162,671.636166700162,671.636166700162,671.636166700162,old_fruit_22.png,197,2.0,1.2058304999954998,,,034,01,2024-12-17_16h39.47.951,Surprise recog test,2023.1.3,60.01907402529893,
197,0,197,0,,,,,,,,,,,,,,,,,,,,,,,,,,,,,,,,,,675.2208535000682,676.2530916000251,673.8668133001775,673.8668133001775,673.8668133001775,673.8668133001775,old_sceneIn_23.png,198,5.0,1.3580693998374045,,,034,01,2024-12-17_16h39.47.951,Surprise recog test,2023.1.3,60.01907402529893,
198,0,198,0,,,,,,,,,,,,,,,,,,,,,,,,,,,,,,,,,,677.9072690000758,678.9387911001686,676.2530916000251,676.2530916000251,676.2530916000251,676.2530916000251,new_fruit_16.png,199,5.0,1.6566389999352396,,,034,01,2024-12-17_16h39.47.951,Surprise recog test,2023.1.3,60.01907402529893,
199,0,199,0,,,,,,,,,,,,,,,,,,,,,,,,,,,,,,,,,,681.1944240999874,682.213741700165,678.9387911001686,678.9387911001686,678.9387911001686,678.9387911001686,new_sceneOut_24.png,200,4.0,2.2583506000228226,,,034,01,2024-12-17_16h39.47.951,Surprise recog test,2023.1.3,60.01907402529893,
200,0,200,0,,,,,,,,,,,,,,,,,,,,,,,,,,,,,,,,,,684.7254957000259,,682.213741700165,682.213741700165,682.213741700165,682.213741700165,old_sceneOut_27.png,201,4.0,2.5110138000454754,,,034,01,2024-12-17_16h39.47.951,Surprise recog test,2023.1.3,60.01907402529893,
201,0,201,0,,,,,,,,,,,,,,,,,,,,,,,,,,,,,,,,,,686.8916023001075,687.9123800999951,685.7587141999975,685.7587141999975,685.7587141999975,685.7587141999975,new_stationery_23.png,202,1.0,1.1345329999458045,,,034,01,2024-12-17_16h39.47.951,Surprise recog test,2023.1.3,60.01907402529893,
202,0,202,0,,,,,,,,,,,,,,,,,,,,,,,,,,,,,,,,,,690.9417485999875,691.9699354001787,687.9123800999951,687.9123800999951,687.9123800999951,687.9123800999951,old_sceneIn_7.png,203,5.0,3.032447800040245,,,034,01,2024-12-17_16h39.47.951,Surprise recog test,2023.1.3,60.01907402529893,
203,0,203,0,,,,,,,,,,,,,,,,,,,,,,,,,,,,,,,,,,694.8149330001324,695.8347362000495,691.9699354001787,691.9699354001787,691.9699354001787,691.9699354001787,new_fruit_44.png,204,4.0,2.8479204999748617,,,034,01,2024-12-17_16h39.47.951,Surprise recog test,2023.1.3,60.01907402529893,
204,0,204,0,,,,,,,,,,,,,,,,,,,,,,,,,,,,,,,,,,696.6659278001171,697.6874272001442,695.8347362000495,695.8347362000495,695.8347362000495,695.8347362000495,new_sceneOut_27.png,205,4.0,0.8317217999137938,,,034,01,2024-12-17_16h39.47.951,Surprise recog test,2023.1.3,60.01907402529893,
205,0,205,0,,,,,,,,,,,,,,,,,,,,,,,,,,,,,,,,,,699.1040104001295,,697.6874272001442,697.6874272001442,697.6874272001442,697.6874272001442,new_sceneIn_7.png,206,4.0,1.4158117999322712,,,034,01,2024-12-17_16h39.47.951,Surprise recog test,2023.1.3,60.01907402529893,
206,0,206,0,,,,,,,,,,,,,,,,,,,,,,,,,,,,,,,,,,701.3866996001452,702.3931247000583,700.1375587000512,700.1375587000512,700.1375587000512,700.1375587000512,old_stationery_42.png,207,1.0,1.2450764998793602,,,034,01,2024-12-17_16h39.47.951,Surprise recog test,2023.1.3,60.01907402529893,
207,0,207,0,,,,,,,,,,,,,,,,,,,,,,,,,,,,,,,,,,704.1602409000043,705.1930317999795,702.3931247000583,702.3931247000583,702.3931247000583,702.3931247000583,old_sceneOut_13.png,208,5.0,1.7621347999665886,,,034,01,2024-12-17_16h39.47.951,Surprise recog test,2023.1.3,60.01907402529893,
208,0,208,0,,,,,,,,,,,,,,,,,,,,,,,,,,,,,,,,,,707.4393870001659,708.4632828000467,705.1930317999795,705.1930317999795,705.1930317999795,705.1930317999795,new_fruit_34.png,209,2.0,2.2471320000477135,,,034,01,2024-12-17_16h39.47.951,Surprise recog test,2023.1.3,60.01907402529893,
209,0,209,0,,,,,,,,,,,,,,,,,,,,,,,,,,,,,,,,,,709.6601367001422,710.6831643001642,708.4632828000467,708.4632828000467,708.4632828000467,708.4632828000467,old_sceneOut_28.png,210,4.0,1.2004323999863118,,,034,01,2024-12-17_16h39.47.951,Surprise recog test,2023.1.3,60.01907402529893,
210,0,210,0,,,,,,,,,,,,,,,,,,,,,,,,,,,,,,,,,,713.2797436001711,714.2993710001465,710.6831643001642,710.6831643001642,710.6831643001642,710.6831643001642,new_sceneOut_22.png,211,4.0,2.596665699966252,,,034,01,2024-12-17_16h39.47.951,Surprise recog test,2023.1.3,60.01907402529893,
211,0,211,0,,,,,,,,,,,,,,,,,,,,,,,,,,,,,,,,,,715.528016500175,716.5398454000242,714.2993710001465,714.2993710001465,714.2993710001465,714.2993710001465,new_stationery_6.png,212,4.0,1.2280126998666674,,,034,01,2024-12-17_16h39.47.951,Surprise recog test,2023.1.3,60.01907402529893,
212,0,212,0,,,,,,,,,,,,,,,,,,,,,,,,,,,,,,,,,,717.7866539000534,,716.5398454000242,716.5398454000242,716.5398454000242,716.5398454000242,old_stationery_3.png,213,1.0,1.2421979000791907,,,034,01,2024-12-17_16h39.47.951,Surprise recog test,2023.1.3,60.01907402529893,
213,0,213,0,,,,,,,,,,,,,,,,,,,,,,,,,,,,,,,,,,720.2951393001713,721.3221353001427,718.8124392000027,718.8124392000027,718.8124392000027,718.8124392000027,new_sceneOut_32.png,214,5.0,1.479508199961856,,,034,01,2024-12-17_16h39.47.951,Surprise recog test,2023.1.3,60.01907402529893,
214,0,214,0,,,,,,,,,,,,,,,,,,,,,,,,,,,,,,,,,,722.2606421001256,723.2897044001147,721.3221353001427,721.3221353001427,721.3221353001427,721.3221353001427,old_sceneOut_30.png,215,4.0,0.9398900999221951,,,034,01,2024-12-17_16h39.47.951,Surprise recog test,2023.1.3,60.01907402529893,
215,0,215,0,,,,,,,,,,,,,,,,,,,,,,,,,,,,,,,,,,724.9894781999756,725.9981468999758,723.2897044001147,723.2897044001147,723.2897044001147,723.2897044001147,new_sceneIn_38.png,216,4.0,1.6996899000369012,,,034,01,2024-12-17_16h39.47.951,Surprise recog test,2023.1.3,60.01907402529893,
216,0,216,0,,,,,,,,,,,,,,,,,,,,,,,,,,,,,,,,,,727.2651866001543,728.281152300071,725.9981468999758,725.9981468999758,725.9981468999758,725.9981468999758,old_fruit_39.png,217,1.0,1.2635998998302966,,,034,01,2024-12-17_16h39.47.951,Surprise recog test,2023.1.3,60.01907402529893,
217,0,217,0,,,,,,,,,,,,,,,,,,,,,,,,,,,,,,,,,,729.8668446000665,730.8960177002009,728.281152300071,728.281152300071,728.281152300071,728.281152300071,old_sceneOut_37.png,218,3.0,1.5829695998691022,,,034,01,2024-12-17_16h39.47.951,Surprise recog test,2023.1.3,60.01907402529893,
218,0,218,0,,,,,,,,,,,,,,,,,,,,,,,,,,,,,,,,,,732.3860159001779,733.4164065001532,730.8960177002009,730.8960177002009,730.8960177002009,730.8960177002009,new_stationery_20.png,219,5.0,1.49214329989627,,,034,01,2024-12-17_16h39.47.951,Surprise recog test,2023.1.3,60.01907402529893,
219,0,219,0,,,,,,,,,,,,,,,,,,,,,,,,,,,,,,,,,,734.7799832001328,735.7902765001636,733.4164065001532,733.4164065001532,733.4164065001532,733.4164065001532,new_fruit_3.png,220,1.0,1.3662020000629127,,,034,01,2024-12-17_16h39.47.951,Surprise recog test,2023.1.3,60.01907402529893,
220,0,220,0,,,,,,,,,,,,,,,,,,,,,,,,,,,,,,,,,,736.8991719000041,737.9146909001283,735.7902765001636,735.7902765001636,735.7902765001636,735.7902765001636,old_sceneOut_50.png,221,4.0,1.1026264999527484,,,034,01,2024-12-17_16h39.47.951,Surprise recog test,2023.1.3,60.01907402529893,
221,0,221,0,,,,,,,,,,,,,,,,,,,,,,,,,,,,,,,,,,738.9169216000009,739.9401188001502,737.9146909001283,737.9146909001283,737.9146909001283,737.9146909001283,new_sceneOut_30.png,222,4.0,1.0018922998569906,,,034,01,2024-12-17_16h39.47.951,Surprise recog test,2023.1.3,60.01907402529893,
222,0,222,0,,,,,,,,,,,,,,,,,,,,,,,,,,,,,,,,,,741.1905659001786,,739.9401188001502,739.9401188001502,739.9401188001502,739.9401188001502,old_stationery_4.png,223,1.0,1.2528673000633717,,,034,01,2024-12-17_16h39.47.951,Surprise recog test,2023.1.3,60.01907402529893,
223,0,223,0,,,,,,,,,,,,,,,,,,,,,,,,,,,,,,,,,,743.8220778000541,744.8312995000742,742.2137961001135,742.2137961001135,742.2137961001135,742.2137961001135,new_sceneOut_13.png,224,5.0,1.6076929999981076,,,034,01,2024-12-17_16h39.47.951,Surprise recog test,2023.1.3,60.01907402529893,
224,0,224,0,,,,,,,,,,,,,,,,,,,,,,,,,,,,,,,,,,746.5640935001429,747.6020510001108,744.8312995000742,744.8312995000742,744.8312995000742,744.8312995000742,new_stationery_48.png,225,5.0,1.7287577998358756,,,034,01,2024-12-17_16h39.47.951,Surprise recog test,2023.1.3,60.01907402529893,
225,0,225,0,,,,,,,,,,,,,,,,,,,,,,,,,,,,,,,,,,748.9538201000541,749.9805073000025,747.6020510001108,747.6020510001108,747.6020510001108,747.6020510001108,old_fruit_30.png,226,1.0,1.3562456001527607,,,034,01,2024-12-17_16h39.47.951,Surprise recog test,2023.1.3,60.01907402529893,
226,0,226,0,,,,,,,,,,,,,,,,,,,,,,,,,,,,,,,,,,750.9518705999944,751.9744769001845,749.9805073000025,749.9805073000025,749.9805073000025,749.9805073000025,old_stationery_48.png,227,1.0,0.9740740999113768,,,034,01,2024-12-17_16h39.47.951,Surprise recog test,2023.1.3,60.01907402529893,
227,0,227,0,,,,,,,,,,,,,,,,,,,,,,,,,,,,,,,,,,753.8956739001442,754.9165426001418,751.9744769001845,751.9744769001845,751.9744769001845,751.9744769001845,old_sceneIn_19.png,228,2.0,1.9175061001442373,,,034,01,2024-12-17_16h39.47.951,Surprise recog test,2023.1.3,60.01907402529893,
228,0,228,0,,,,,,,,,,,,,,,,,,,,,,,,,,,,,,,,,,757.1647913001943,758.1758956999984,754.9165426001418,754.9165426001418,754.9165426001418,754.9165426001418,old_stationery_7.png,229,1.0,2.2497579001355916,,,034,01,2024-12-17_16h39.47.951,Surprise recog test,2023.1.3,60.01907402529893,
229,0,229,0,,,,,,,,,,,,,,,,,,,,,,,,,,,,,,,,,,758.9860977001954,759.9995754000265,758.1758956999984,758.1758956999984,758.1758956999984,758.1758956999984,old_stationery_49.png,230,1.0,0.8034265998285264,,,034,01,2024-12-17_16h39.47.951,Surprise recog test,2023.1.3,60.01907402529893,
230,0,230,0,,,,,,,,,,,,,,,,,,,,,,,,,,,,,,,,,,761.3456611000001,762.3576485000085,759.9995754000265,759.9995754000265,759.9995754000265,759.9995754000265,old_fruit_50.png,231,2.0,1.3412536999676377,,,034,01,2024-12-17_16h39.47.951,Surprise recog test,2023.1.3,60.01907402529893,
231,0,231,0,,,,,,,,,,,,,,,,,,,,,,,,,,,,,,,,,,764.0172878999729,765.0468970001675,762.3576485000085,762.3576485000085,762.3576485000085,762.3576485000085,new_sceneOut_26.png,232,2.0,1.6537742000073195,,,034,01,2024-12-17_16h39.47.951,Surprise recog test,2023.1.3,60.01907402529893,
232,0,232,0,,,,,,,,,,,,,,,,,,,,,,,,,,,,,,,,,,767.3587629999965,768.3792438001838,765.0468970001675,765.0468970001675,765.0468970001675,765.0468970001675,old_stationery_2.png,233,1.0,2.3169338000006974,,,034,01,2024-12-17_16h39.47.951,Surprise recog test,2023.1.3,60.01907402529893,
233,0,233,0,,,,,,,,,,,,,,,,,,,,,,,,,,,,,,,,,,769.5824093001429,770.6124315999914,768.3792438001838,768.3792438001838,768.3792438001838,768.3792438001838,old_sceneOut_18.png,234,4.0,1.2057655998505652,,,034,01,2024-12-17_16h39.47.951,Surprise recog test,2023.1.3,60.01907402529893,
234,0,234,0,,,,,,,,,,,,,,,,,,,,,,,,,,,,,,,,,,772.9690646000672,773.9979067000095,770.6124315999914,770.6124315999914,770.6124315999914,770.6124315999914,new_sceneIn_29.png,235,5.0,2.3579251000192016,,,034,01,2024-12-17_16h39.47.951,Surprise recog test,2023.1.3,60.01907402529893,
235,0,235,0,,,,,,,,,,,,,,,,,,,,,,,,,,,,,,,,,,776.0097272000276,777.0336581000593,773.9979067000095,773.9979067000095,773.9979067000095,773.9979067000095,new_fruit_30.png,236,5.0,2.0115940999239683,,,034,01,2024-12-17_16h39.47.951,Surprise recog test,2023.1.3,60.01907402529893,
236,0,236,0,,,,,,,,,,,,,,,,,,,,,,,,,,,,,,,,,,778.6491180001758,779.6593413001392,777.0336581000593,777.0336581000593,777.0336581000593,777.0336581000593,old_stationery_45.png,237,1.0,1.613337299786508,,,034,01,2024-12-17_16h39.47.951,Surprise recog test,2023.1.3,60.01907402529893,
237,0,237,0,,,,,,,,,,,,,,,,,,,,,,,,,,,,,,,,,,781.2861917000264,782.2952550000045,779.6593413001392,779.6593413001392,779.6593413001392,779.6593413001392,new_stationery_4.png,238,1.0,1.618205799954012,,,034,01,2024-12-17_16h39.47.951,Surprise recog test,2023.1.3,60.01907402529893,
238,0,238,0,,,,,,,,,,,,,,,,,,,,,,,,,,,,,,,,,,783.7020837001037,784.7254504000302,782.2952550000045,782.2952550000045,782.2952550000045,782.2952550000045,old_sceneOut_2.png,239,4.0,1.40279549988918,,,034,01,2024-12-17_16h39.47.951,Surprise recog test,2023.1.3,60.01907402529893,
239,0,239,0,,,,,,,,,,,,,,,,,,,,,,,,,,,,,,,,,,786.0903734001331,787.1142343999818,784.7254504000302,784.7254504000302,784.7254504000302,784.7254504000302,new_stationery_34.png,240,5.0,1.3670807001180947,,,034,01,2024-12-17_16h39.47.951,Surprise recog test,2023.1.3,60.01907402529893,
240,0,240,0,,,,,,,,,,,,,,,,,,,,,,,,,,,,,,,,,,788.749936999986,789.7774614000227,787.1142343999818,787.1142343999818,787.1142343999818,787.1142343999818,old_stationery_16.png,241,1.0,1.6391449000220746,,,034,01,2024-12-17_16h39.47.951,Surprise recog test,2023.1.3,60.01907402529893,
241,0,241,0,,,,,,,,,,,,,,,,,,,,,,,,,,,,,,,,,,791.1520653001498,792.1805077001918,789.7774614000227,789.7774614000227,789.7774614000227,789.7774614000227,new_sceneIn_10.png,242,1.0,1.3733200998976827,,,034,01,2024-12-17_16h39.47.951,Surprise recog test,2023.1.3,60.01907402529893,
242,0,242,0,,,,,,,,,,,,,,,,,,,,,,,,,,,,,,,,,,793.7208905001171,794.745050100144,792.1805077001918,792.1805077001918,792.1805077001918,792.1805077001918,new_sceneOut_42.png,243,5.0,1.5396443998906761,,,034,01,2024-12-17_16h39.47.951,Surprise recog test,2023.1.3,60.01907402529893,
243,0,243,0,,,,,,,,,,,,,,,,,,,,,,,,,,,,,,,,,,796.4388960001525,797.4582589000929,794.745050100144,794.745050100144,794.745050100144,794.745050100144,new_fruit_17.png,244,1.0,1.6941688999067992,,,034,01,2024-12-17_16h39.47.951,Surprise recog test,2023.1.3,60.01907402529893,
244,0,244,0,,,,,,,,,,,,,,,,,,,,,,,,,,,,,,,,,,799.8920641001314,800.9253618000075,797.4582589000929,797.4582589000929,797.4582589000929,797.4582589000929,new_sceneOut_29.png,245,3.0,2.4284461000934243,,,034,01,2024-12-17_16h39.47.951,Surprise recog test,2023.1.3,60.01907402529893,
245,0,245,0,,,,,,,,,,,,,,,,,,,,,,,,,,,,,,,,,,802.5843579000793,803.6078227001708,800.9253618000075,800.9253618000075,800.9253618000075,800.9253618000075,new_sceneOut_48.png,246,5.0,1.6629685999359936,,,034,01,2024-12-17_16h39.47.951,Surprise recog test,2023.1.3,60.01907402529893,
246,0,246,0,,,,,,,,,,,,,,,,,,,,,,,,,,,,,,,,,,806.3906998999882,807.410631300183,803.6078227001708,803.6078227001708,803.6078227001708,803.6078227001708,old_sceneOut_26.png,247,2.0,2.78108620014973,,,034,01,2024-12-17_16h39.47.951,Surprise recog test,2023.1.3,60.01907402529893,
247,0,247,0,,,,,,,,,,,,,,,,,,,,,,,,,,,,,,,,,,809.683722200105,810.7121533001773,807.410631300183,807.410631300183,807.410631300183,807.410631300183,new_stationery_49.png,248,5.0,2.274902599863708,,,034,01,2024-12-17_16h39.47.951,Surprise recog test,2023.1.3,60.01907402529893,
248,0,248,0,,,,,,,,,,,,,,,,,,,,,,,,,,,,,,,,,,813.3627415001392,814.3773849001154,810.7121533001773,810.7121533001773,810.7121533001773,810.7121533001773,new_fruit_43.png,249,4.0,2.6471317000687122,,,034,01,2024-12-17_16h39.47.951,Surprise recog test,2023.1.3,60.01907402529893,
249,0,249,0,,,,,,,,,,,,,,,,,,,,,,,,,,,,,,,,,,816.3361905000638,,814.3773849001154,814.3773849001154,814.3773849001154,814.3773849001154,old_fruit_2.png,250,2.0,1.9603956998325884,,,034,01,2024-12-17_16h39.47.951,Surprise recog test,2023.1.3,60.01907402529893,
250,0,250,0,,,,,,,,,,,,,,,,,,,,,,,,,,,,,,,,,,818.987586800009,,817.3566982001066,817.3566982001066,817.3566982001066,817.3566982001066,old_fruit_42.png,251,4.0,1.6258447000291198,,,034,01,2024-12-17_16h39.47.951,Surprise recog test,2023.1.3,60.01907402529893,
251,0,251,0,,,,,,,,,,,,,,,,,,,,,,,,,,,,,,,,,,821.2928079999983,822.3220820999704,820.007994600106,820.007994600106,820.007994600106,820.007994600106,old_stationery_24.png,252,1.0,1.279560999944806,,,034,01,2024-12-17_16h39.47.951,Surprise recog test,2023.1.3,60.01907402529893,
252,0,252,0,,,,,,,,,,,,,,,,,,,,,,,,,,,,,,,,,,824.4467325001024,825.4756209000479,822.3220820999704,822.3220820999704,822.3220820999704,822.3220820999704,new_stationery_41.png,253,1.0,2.125634500058368,,,034,01,2024-12-17_16h39.47.951,Surprise recog test,2023.1.3,60.01907402529893,
253,0,253,0,,,,,,,,,,,,,,,,,,,,,,,,,,,,,,,,,,826.9072377001867,827.9250759000424,825.4756209000479,825.4756209000479,825.4756209000479,825.4756209000479,old_fruit_32.png,254,4.0,1.4286125998478383,,,034,01,2024-12-17_16h39.47.951,Surprise recog test,2023.1.3,60.01907402529893,
254,0,254,0,,,,,,,,,,,,,,,,,,,,,,,,,,,,,,,,,,829.1861956000794,830.201594500104,827.9250759000424,827.9250759000424,827.9250759000424,827.9250759000424,old_sceneIn_29.png,255,5.0,1.2625583000481129,,,034,01,2024-12-17_16h39.47.951,Surprise recog test,2023.1.3,60.01907402529893,
255,0,255,0,,,,,,,,,,,,,,,,,,,,,,,,,,,,,,,,,,831.5181028000079,832.5366196001414,830.201594500104,830.201594500104,830.201594500104,830.201594500104,new_fruit_14.png,256,5.0,1.3122904000338167,,,034,01,2024-12-17_16h39.47.951,Surprise recog test,2023.1.3,60.01907402529893,
256,0,256,0,,,,,,,,,,,,,,,,,,,,,,,,,,,,,,,,,,835.4372955001891,836.4699437001254,832.5366196001414,832.5366196001414,832.5366196001414,832.5366196001414,old_sceneOut_5.png,257,4.0,2.8968176001217216,,,034,01,2024-12-17_16h39.47.951,Surprise recog test,2023.1.3,60.01907402529893,
257,0,257,0,,,,,,,,,,,,,,,,,,,,,,,,,,,,,,,,,,838.5932660000399,839.6199176001828,836.4699437001254,836.4699437001254,836.4699437001254,836.4699437001254,old_sceneOut_6.png,258,4.0,2.125961699988693,,,034,01,2024-12-17_16h39.47.951,Surprise recog test,2023.1.3,60.01907402529893,
258,0,258,0,,,,,,,,,,,,,,,,,,,,,,,,,,,,,,,,,,840.4708004000131,,839.6199176001828,839.6199176001828,839.6199176001828,839.6199176001828,new_sceneOut_16.png,259,4.0,0.8523978998418897,,,034,01,2024-12-17_16h39.47.951,Surprise recog test,2023.1.3,60.01907402529893,
259,0,259,0,,,,,,,,,,,,,,,,,,,,,,,,,,,,,,,,,,843.4044874000829,844.4142150999978,841.4934090001043,841.4934090001043,841.4934090001043,841.4934090001043,new_sceneIn_42.png,260,5.0,1.9007015998940915,,,034,01,2024-12-17_16h39.47.951,Surprise recog test,2023.1.3,60.01907402529893,
260,0,260,0,,,,,,,,,,,,,,,,,,,,,,,,,,,,,,,,,,845.6092688001227,,844.4142150999978,844.4142150999978,844.4142150999978,844.4142150999978,old_sceneOut_25.png,261,4.0,1.19227150012739,,,034,01,2024-12-17_16h39.47.951,Surprise recog test,2023.1.3,60.01907402529893,
261,0,261,0,,,,,,,,,,,,,,,,,,,,,,,,,,,,,,,,,,848.7614235000219,,846.6404168000445,846.6404168000445,846.6404168000445,846.6404168000445,old_fruit_47.png,262,1.0,2.120472300099209,,,034,01,2024-12-17_16h39.47.951,Surprise recog test,2023.1.3,60.01907402529893,
262,0,262,0,,,,,,,,,,,,,,,,,,,,,,,,,,,,,,,,,,851.5788600000087,852.6007487999741,849.7832435001619,849.7832435001619,849.7832435001619,849.7832435001619,new_stationery_40.png,263,5.0,1.789399999892339,,,034,01,2024-12-17_16h39.47.951,Surprise recog test,2023.1.3,60.01907402529893,
263,0,263,0,,,,,,,,,,,,,,,,,,,,,,,,,,,,,,,,,,853.8945283000357,854.9184967000037,852.6007487999741,852.6007487999741,852.6007487999741,852.6007487999741,old_stationery_28.png,264,1.0,1.2957002001348883,,,034,01,2024-12-17_16h39.47.951,Surprise recog test,2023.1.3,60.01907402529893,
264,0,264,0,,,,,,,,,,,,,,,,,,,,,,,,,,,,,,,,,,856.401002400089,,854.9184967000037,854.9184967000037,854.9184967000037,854.9184967000037,new_fruit_49.png,265,4.0,1.4843201998155564,,,034,01,2024-12-17_16h39.47.951,Surprise recog test,2023.1.3,60.01907402529893,
265,0,265,0,,,,,,,,,,,,,,,,,,,,,,,,,,,,,,,,,,858.5847275000997,859.6096826000139,857.4353548001964,857.4353548001964,857.4353548001964,857.4353548001964,old_fruit_35.png,266,2.0,1.152187499916181,,,034,01,2024-12-17_16h39.47.951,Surprise recog test,2023.1.3,60.01907402529893,
266,0,266,0,,,,,,,,,,,,,,,,,,,,,,,,,,,,,,,,,,861.900827200152,862.9224821000826,859.6096826000139,859.6096826000139,859.6096826000139,859.6096826000139,new_sceneOut_44.png,267,4.0,2.294729500077665,,,034,01,2024-12-17_16h39.47.951,Surprise recog test,2023.1.3,60.01907402529893,
267,0,267,0,,,,,,,,,,,,,,,,,,,,,,,,,,,,,,,,,,864.5412997000385,,862.9224821000826,862.9224821000826,862.9224821000826,862.9224821000826,new_stationery_37.png,268,5.0,1.6216843998990953,,,034,01,2024-12-17_16h39.47.951,Surprise recog test,2023.1.3,60.01907402529893,
268,0,268,0,,,,,,,,,,,,,,,,,,,,,,,,,,,,,,,,,,866.769972300157,867.7831437999848,865.5626761000603,865.5626761000603,865.5626761000603,865.5626761000603,old_sceneOut_20.png,269,4.0,1.202649800106883,,,034,01,2024-12-17_16h39.47.951,Surprise recog test,2023.1.3,60.01907402529893,
269,0,269,0,,,,,,,,,,,,,,,,,,,,,,,,,,,,,,,,,,869.8262432999909,870.8441513001453,867.7831437999848,867.7831437999848,867.7831437999848,867.7831437999848,new_sceneIn_50.png,270,4.0,2.0379080998245627,,,034,01,2024-12-17_16h39.47.951,Surprise recog test,2023.1.3,60.01907402529893,
270,0,270,0,,,,,,,,,,,,,,,,,,,,,,,,,,,,,,,,,,872.1315026001539,,870.8441513001453,870.8441513001453,870.8441513001453,870.8441513001453,new_sceneIn_1.png,271,5.0,1.2896751000080258,,,034,01,2024-12-17_16h39.47.951,Surprise recog test,2023.1.3,60.01907402529893,
271,0,271,0,,,,,,,,,,,,,,,,,,,,,,,,,,,,,,,,,,874.8158811000176,,873.1519321000669,873.1519321000669,873.1519321000669,873.1519321000669,old_sceneOut_14.png,272,4.0,1.6585762000177056,,,034,01,2024-12-17_16h39.47.951,Surprise recog test,2023.1.3,60.01907402529893,
272,0,272,0,,,,,,,,,,,,,,,,,,,,,,,,,,,,,,,,,,878.7183922000695,879.7369509001728,875.84670990007,875.84670990007,875.84670990007,875.84670990007,new_stationery_43.png,273,5.0,2.8716579999309033,,,034,01,2024-12-17_16h39.47.951,Surprise recog test,2023.1.3,60.01907402529893,
273,0,273,0,,,,,,,,,,,,,,,,,,,,,,,,,,,,,,,,,,880.8521418001037,881.8732051001862,879.7369509001728,879.7369509001728,879.7369509001728,879.7369509001728,new_fruit_45.png,274,4.0,1.1163600999861956,,,034,01,2024-12-17_16h39.47.951,Surprise recog test,2023.1.3,60.01907402529893,
274,0,274,0,,,,,,,,,,,,,,,,,,,,,,,,,,,,,,,,,,883.1209237000439,884.1456586001441,881.8732051001862,881.8732051001862,881.8732051001862,881.8732051001862,old_fruit_3.png,275,4.0,1.2493378000799567,,,034,01,2024-12-17_16h39.47.951,Surprise recog test,2023.1.3,60.01907402529893,
275,0,275,0,,,,,,,,,,,,,,,,,,,,,,,,,,,,,,,,,,885.3447563000955,886.3748543001711,884.1456586001441,884.1456586001441,884.1456586001441,884.1456586001441,new_sceneIn_31.png,276,4.0,1.2020854000002146,,,034,01,2024-12-17_16h39.47.951,Surprise recog test,2023.1.3,60.01907402529893,
276,0,276,0,,,,,,,,,,,,,,,,,,,,,,,,,,,,,,,,,,887.786455700174,888.811515300069,886.3748543001711,886.3748543001711,886.3748543001711,886.3748543001711,new_stationery_13.png,277,5.0,1.4128427999094129,,,034,01,2024-12-17_16h39.47.951,Surprise recog test,2023.1.3,60.01907402529893,
277,0,277,0,,,,,,,,,,,,,,,,,,,,,,,,,,,,,,,,,,889.8461325000972,,888.811515300069,888.811515300069,888.811515300069,888.811515300069,old_sceneIn_24.png,278,5.0,1.037543100072071,,,034,01,2024-12-17_16h39.47.951,Surprise recog test,2023.1.3,60.01907402529893,
278,0,278,0,,,,,,,,,,,,,,,,,,,,,,,,,,,,,,,,,,892.270812000148,893.2882686001249,890.8673223999795,890.8673223999795,890.8673223999795,890.8673223999795,new_sceneOut_6.png,279,4.0,1.3991365998517722,,,034,01,2024-12-17_16h39.47.951,Surprise recog test,2023.1.3,60.01907402529893,
279,0,279,0,,,,,,,,,,,,,,,,,,,,,,,,,,,,,,,,,,894.0732538001612,895.1008242000826,893.2882686001249,893.2882686001249,893.2882686001249,893.2882686001249,old_sceneOut_38.png,280,4.0,0.7826570000033826,,,034,01,2024-12-17_16h39.47.951,Surprise recog test,2023.1.3,60.01907402529893,
280,0,280,0,,,,,,,,,,,,,,,,,,,,,,,,,,,,,,,,,,895.9594320000615,896.9734470001422,895.1008242000826,895.1008242000826,895.1008242000826,895.1008242000826,new_fruit_37.png,281,4.0,0.8607791000977159,,,034,01,2024-12-17_16h39.47.951,Surprise recog test,2023.1.3,60.01907402529893,
281,0,281,0,,,,,,,,,,,,,,,,,,,,,,,,,,,,,,,,,,897.8432328000199,898.857352200197,896.9734470001422,896.9734470001422,896.9734470001422,896.9734470001422,new_sceneOut_7.png,282,4.0,0.8653243000153452,,,034,01,2024-12-17_16h39.47.951,Surprise recog test,2023.1.3,60.01907402529893,
282,0,282,0,,,,,,,,,,,,,,,,,,,,,,,,,,,,,,,,,,900.0122630000114,901.0375781999901,898.857352200197,898.857352200197,898.857352200197,898.857352200197,new_stationery_22.png,283,1.0,1.1489168000407517,,,034,01,2024-12-17_16h39.47.951,Surprise recog test,2023.1.3,60.01907402529893,
283,0,283,0,,,,,,,,,,,,,,,,,,,,,,,,,,,,,,,,,,902.4983889001887,903.5210417001508,901.0375781999901,901.0375781999901,901.0375781999901,901.0375781999901,new_sceneIn_5.png,284,5.0,1.4623694000765681,,,034,01,2024-12-17_16h39.47.951,Surprise recog test,2023.1.3,60.01907402529893,
284,0,284,0,,,,,,,,,,,,,,,,,,,,,,,,,,,,,,,,,,905.202294100076,906.2130593999755,903.5210417001508,903.5210417001508,903.5210417001508,903.5210417001508,old_sceneIn_18.png,285,2.0,1.6832790998741984,,,034,01,2024-12-17_16h39.47.951,Surprise recog test,2023.1.3,60.01907402529893,
285,0,285,0,,,,,,,,,,,,,,,,,,,,,,,,,,,,,,,,,,907.1646310000215,908.196327400161,906.2130593999755,906.2130593999755,906.2130593999755,906.2130593999755,old_stationery_36.png,286,1.0,0.9475199999287724,,,034,01,2024-12-17_16h39.47.951,Surprise recog test,2023.1.3,60.01907402529893,
286,0,286,0,,,,,,,,,,,,,,,,,,,,,,,,,,,,,,,,,,909.8644493001048,910.8845414000098,908.196327400161,908.196327400161,908.196327400161,908.196327400161,new_fruit_20.png,287,4.0,1.6707248000893742,,,034,01,2024-12-17_16h39.47.951,Surprise recog test,2023.1.3,60.01907402529893,
287,0,287,0,,,,,,,,,,,,,,,,,,,,,,,,,,,,,,,,,,912.8487017001025,,910.8845414000098,910.8845414000098,910.8845414000098,910.8845414000098,new_sceneOut_21.png,288,3.0,1.9600135998334736,,,034,01,2024-12-17_16h39.47.951,Surprise recog test,2023.1.3,60.01907402529893,
288,0,288,0,,,,,,,,,,,,,,,,,,,,,,,,,,,,,,,,,,915.2535694001708,916.2722713002004,913.87277490017,913.87277490017,913.87277490017,913.87277490017,old_sceneIn_25.png,289,4.0,1.376054799882695,,,034,01,2024-12-17_16h39.47.951,Surprise recog test,2023.1.3,60.01907402529893,
289,0,289,0,,,,,,,,,,,,,,,,,,,,,,,,,,,,,,,,,,918.1658361000009,919.190054600127,916.2722713002004,916.2722713002004,916.2722713002004,916.2722713002004,new_sceneIn_2.png,290,5.0,1.8881244999356568,,,034,01,2024-12-17_16h39.47.951,Surprise recog test,2023.1.3,60.01907402529893,
290,0,290,0,,,,,,,,,,,,,,,,,,,,,,,,,,,,,,,,,,920.3863576999865,921.3937177001499,919.190054600127,919.190054600127,919.190054600127,919.190054600127,old_sceneOut_22.png,291,4.0,1.2004585999529809,,,034,01,2024-12-17_16h39.47.951,Surprise recog test,2023.1.3,60.01907402529893,
291,0,291,0,,,,,,,,,,,,,,,,,,,,,,,,,,,,,,,,,,922.6325892000459,923.6575998000335,921.3937177001499,921.3937177001499,921.3937177001499,921.3937177001499,old_sceneIn_42.png,292,4.0,1.2346544999163598,,,034,01,2024-12-17_16h39.47.951,Surprise recog test,2023.1.3,60.01907402529893,
292,0,292,0,,,,,,,,,,,,,,,,,,,,,,,,,,,,,,,,,,925.2899819000158,926.3106261000503,923.6575998000335,923.6575998000335,923.6575998000335,923.6575998000335,new_sceneIn_23.png,293,1.0,1.6348027000203729,,,034,01,2024-12-17_16h39.47.951,Surprise recog test,2023.1.3,60.01907402529893,
293,0,293,0,,,,,,,,,,,,,,,,,,,,,,,,,,,,,,,,,,927.5249277001712,928.5449000999797,926.3106261000503,926.3106261000503,926.3106261000503,926.3106261000503,new_fruit_36.png,294,4.0,1.2164515000768006,,,034,01,2024-12-17_16h39.47.951,Surprise recog test,2023.1.3,60.01907402529893,
294,0,294,0,,,,,,,,,,,,,,,,,,,,,,,,,,,,,,,,,,930.4494660000782,931.4809052001219,928.5449000999797,928.5449000999797,928.5449000999797,928.5449000999797,new_fruit_8.png,295,1.0,1.9070079999510199,,,034,01,2024-12-17_16h39.47.951,Surprise recog test,2023.1.3,60.01907402529893,
295,0,295,0,,,,,,,,,,,,,,,,,,,,,,,,,,,,,,,,,,933.0374802001752,934.0527415000834,931.4809052001219,931.4809052001219,931.4809052001219,931.4809052001219,old_fruit_28.png,296,2.0,1.5589540998917073,,,034,01,2024-12-17_16h39.47.951,Surprise recog test,2023.1.3,60.01907402529893,
296,0,296,0,,,,,,,,,,,,,,,,,,,,,,,,,,,,,,,,,,935.8810896000359,936.8988275001757,934.0527415000834,934.0527415000834,934.0527415000834,934.0527415000834,new_stationery_33.png,297,5.0,1.8181211000774056,,,034,01,2024-12-17_16h39.47.951,Surprise recog test,2023.1.3,60.01907402529893,
297,0,297,0,,,,,,,,,,,,,,,,,,,,,,,,,,,,,,,,,,938.6591045001987,939.6873000001069,936.8988275001757,936.8988275001757,936.8988275001757,936.8988275001757,new_sceneOut_17.png,298,3.0,1.760705600026995,,,034,01,2024-12-17_16h39.47.951,Surprise recog test,2023.1.3,60.01907402529893,
298,0,298,0,,,,,,,,,,,,,,,,,,,,,,,,,,,,,,,,,,940.7678208001889,941.7735769001301,939.6873000001069,939.6873000001069,939.6873000001069,939.6873000001069,new_fruit_4.png,299,4.0,1.0825943001545966,,,034,01,2024-12-17_16h39.47.951,Surprise recog test,2023.1.3,60.01907402529893,
299,0,299,0,,,,,,,,,,,,,,,,,,,,,,,,,,,,,,,,,,943.344449599972,944.3751811999828,941.7735769001301,941.7735769001301,941.7735769001301,941.7735769001301,new_sceneIn_46.png,300,4.0,1.5660689999349415,,,034,01,2024-12-17_16h39.47.951,Surprise recog test,2023.1.3,60.01907402529893,
300,0,300,0,,,,,,,,,,,,,,,,,,,,,,,,,,,,,,,,,,945.0736043001525,946.0919652001467,944.3751811999828,944.3751811999828,944.3751811999828,944.3751811999828,old_sceneOut_3.png,301,4.0,0.6985989001113921,,,034,01,2024-12-17_16h39.47.951,Surprise recog test,2023.1.3,60.01907402529893,
301,0,301,0,,,,,,,,,,,,,,,,,,,,,,,,,,,,,,,,,,947.6446312000044,,946.0919652001467,946.0919652001467,946.0919652001467,946.0919652001467,new_sceneIn_33.png,302,4.0,1.5548855001106858,,,034,01,2024-12-17_16h39.47.951,Surprise recog test,2023.1.3,60.01907402529893,
302,0,302,0,,,,,,,,,,,,,,,,,,,,,,,,,,,,,,,,,,949.5184571000282,950.534649200039,948.679204300046,948.679204300046,948.679204300046,948.679204300046,old_sceneOut_36.png,303,4.0,0.8419587998650968,,,034,01,2024-12-17_16h39.47.951,Surprise recog test,2023.1.3,60.01907402529893,
303,0,303,0,,,,,,,,,,,,,,,,,,,,,,,,,,,,,,,,,,951.670353300171,952.6977230000775,950.534649200039,950.534649200039,950.534649200039,950.534649200039,old_stationery_20.png,304,1.0,1.1313002998940647,,,034,01,2024-12-17_16h39.47.951,Surprise recog test,2023.1.3,60.01907402529893,
304,0,304,0,,,,,,,,,,,,,,,,,,,,,,,,,,,,,,,,,,954.1638278001919,955.1820981001947,952.6977230000775,952.6977230000775,952.6977230000775,952.6977230000775,old_sceneOut_46.png,305,4.0,1.4653551001101732,,,034,01,2024-12-17_16h39.47.951,Surprise recog test,2023.1.3,60.01907402529893,
305,0,305,0,,,,,,,,,,,,,,,,,,,,,,,,,,,,,,,,,,956.6019582001027,,955.1820981001947,955.1820981001947,955.1820981001947,955.1820981001947,old_fruit_1.png,306,2.0,1.4227488001342863,,,034,01,2024-12-17_16h39.47.951,Surprise recog test,2023.1.3,60.01907402529893,
306,0,306,0,,,,,,,,,,,,,,,,,,,,,,,,,,,,,,,,,,958.5477585000917,959.5717470000964,957.6362366001122,957.6362366001122,957.6362366001122,957.6362366001122,old_stationery_26.png,307,1.0,0.9145820999983698,,,034,01,2024-12-17_16h39.47.951,Surprise recog test,2023.1.3,60.01907402529893,
307,0,307,0,,,,,,,,,,,,,,,,,,,,,,,,,,,,,,,,,,960.5536667001434,,959.5717470000964,959.5717470000964,959.5717470000964,959.5717470000964,old_sceneOut_1.png,308,4.0,0.9820439999457449,,,034,01,2024-12-17_16h39.47.951,Surprise recog test,2023.1.3,60.01907402529893,
308,0,308,0,,,,,,,,,,,,,,,,,,,,,,,,,,,,,,,,,,962.8578091000672,,961.5883204999845,961.5883204999845,961.5883204999845,961.5883204999845,new_sceneOut_18.png,309,5.0,1.2719175999518484,,,034,01,2024-12-17_16h39.47.951,Surprise recog test,2023.1.3,60.01907402529893,
309,0,309,0,,,,,,,,,,,,,,,,,,,,,,,,,,,,,,,,,,965.0023137000389,966.0248883001041,963.8775429001544,963.8775429001544,963.8775429001544,963.8775429001544,old_stationery_21.png,310,1.0,1.1177470998372883,,,034,01,2024-12-17_16h39.47.951,Surprise recog test,2023.1.3,60.01907402529893,
310,0,310,0,,,,,,,,,,,,,,,,,,,,,,,,,,,,,,,,,,967.8137456001714,968.8323411000893,966.0248883001041,966.0248883001041,966.0248883001041,966.0248883001041,new_sceneIn_30.png,311,5.0,1.7866316998843104,,,034,01,2024-12-17_16h39.47.951,Surprise recog test,2023.1.3,60.01907402529893,
311,0,311,0,,,,,,,,,,,,,,,,,,,,,,,,,,,,,,,,,,970.0013417000882,971.0278233999852,968.8323411000893,968.8323411000893,968.8323411000893,968.8323411000893,old_sceneIn_2.png,312,4.0,1.1627443002071232,,,034,01,2024-12-17_16h39.47.951,Surprise recog test,2023.1.3,60.01907402529893,
312,0,312,0,,,,,,,,,,,,,,,,,,,,,,,,,,,,,,,,,,971.78079050011,,971.0278233999852,971.0278233999852,971.0278233999852,971.0278233999852,new_fruit_50.png,313,4.0,0.7527974001131952,,,034,01,2024-12-17_16h39.47.951,Surprise recog test,2023.1.3,60.01907402529893,
313,0,313,0,,,,,,,,,,,,,,,,,,,,,,,,,,,,,,,,,,974.4852528001647,975.5171533001121,972.8018831000663,972.8018831000663,972.8018831000663,972.8018831000663,new_stationery_19.png,314,5.0,1.6769501001108438,,,034,01,2024-12-17_16h39.47.951,Surprise recog test,2023.1.3,60.01907402529893,
314,0,314,0,,,,,,,,,,,,,,,,,,,,,,,,,,,,,,,,,,976.8841828000732,,975.5171533001121,975.5171533001121,975.5171533001121,975.5171533001121,old_fruit_14.png,315,2.0,1.3669189000502229,,,034,01,2024-12-17_16h39.47.951,Surprise recog test,2023.1.3,60.01907402529893,
315,0,315,0,,,,,,,,,,,,,,,,,,,,,,,,,,,,,,,,,,979.2363087001722,,977.9066329000052,977.9066329000052,977.9066329000052,977.9066329000052,old_sceneOut_47.png,316,5.0,1.325583399971947,,,034,01,2024-12-17_16h39.47.951,Surprise recog test,2023.1.3,60.01907402529893,
316,0,316,0,,,,,,,,,,,,,,,,,,,,,,,,,,,,,,,,,,981.4255961000454,982.4437992000021,980.2658406000119,980.2658406000119,980.2658406000119,980.2658406000119,new_stationery_27.png,317,5.0,1.158930700039491,,,034,01,2024-12-17_16h39.47.951,Surprise recog test,2023.1.3,60.01907402529893,
317,0,317,0,,,,,,,,,,,,,,,,,,,,,,,,,,,,,,,,,,983.7915703000035,,982.4437992000021,982.4437992000021,982.4437992000021,982.4437992000021,new_fruit_13.png,318,4.0,1.3434444998856634,,,034,01,2024-12-17_16h39.47.951,Surprise recog test,2023.1.3,60.01907402529893,
318,0,318,0,,,,,,,,,,,,,,,,,,,,,,,,,,,,,,,,,,985.9059906001203,986.9269477999769,984.8113957000896,984.8113957000896,984.8113957000896,984.8113957000896,old_sceneIn_48.png,319,5.0,1.087038799887523,,,034,01,2024-12-17_16h39.47.951,Surprise recog test,2023.1.3,60.01907402529893,
319,0,319,0,,,,,,,,,,,,,,,,,,,,,,,,,,,,,,,,,,988.4252663999796,989.4452844001353,986.9269477999769,986.9269477999769,986.9269477999769,986.9269477999769,new_sceneIn_26.png,320,5.0,1.5001154001802206,,,034,01,2024-12-17_16h39.47.951,Surprise recog test,2023.1.3,60.01907402529893,
320,0,320,0,,,,,,,,,,,,,,,,,,,,,,,,,,,,,,,,,,990.8762546000071,991.8990105001722,989.4452844001353,989.4452844001353,989.4452844001353,989.4452844001353,new_sceneOut_15.png,321,5.0,1.4328056001104414,,,034,01,2024-12-17_16h39.47.951,Surprise recog test,2023.1.3,60.01907402529893,
321,0,321,0,,,,,,,,,,,,,,,,,,,,,,,,,,,,,,,,,,993.1377893001772,994.1591917001642,991.8990105001722,991.8990105001722,991.8990105001722,991.8990105001722,old_stationery_18.png,322,1.0,1.23982540005818,,,034,01,2024-12-17_16h39.47.951,Surprise recog test,2023.1.3,60.01907402529893,
322,0,322,0,,,,,,,,,,,,,,,,,,,,,,,,,,,,,,,,,,994.9064499000087,995.9360064000357,994.1591917001642,994.1591917001642,994.1591917001642,994.1591917001642,old_stationery_14.png,323,1.0,0.7464385000057518,,,034,01,2024-12-17_16h39.47.951,Surprise recog test,2023.1.3,60.01907402529893,
323,0,323,0,,,,,,,,,,,,,,,,,,,,,,,,,,,,,,,,,,997.2152528001461,998.2317733999807,995.9360064000357,995.9360064000357,995.9360064000357,995.9360064000357,old_sceneIn_16.png,324,5.0,1.2786747999489307,,,034,01,2024-12-17_16h39.47.951,Surprise recog test,2023.1.3,60.01907402529893,
324,0,324,0,,,,,,,,,,,,,,,,,,,,,,,,,,,,,,,,,,999.700684600044,1000.7230534001719,998.2317733999807,998.2317733999807,998.2317733999807,998.2317733999807,new_sceneOut_31.png,325,5.0,1.4636677999515086,,,034,01,2024-12-17_16h39.47.951,Surprise recog test,2023.1.3,60.01907402529893,
325,0,325,0,,,,,,,,,,,,,,,,,,,,,,,,,,,,,,,,,,1001.9054980000947,,1000.7230534001719,1000.7230534001719,1000.7230534001719,1000.7230534001719,old_sceneOut_29.png,326,5.0,1.184085600078106,,,034,01,2024-12-17_16h39.47.951,Surprise recog test,2023.1.3,60.01907402529893,
326,0,326,0,,,,,,,,,,,,,,,,,,,,,,,,,,,,,,,,,,1004.7247812000569,,1002.9374282001518,1002.9374282001518,1002.9374282001518,1002.9374282001518,old_sceneIn_31.png,327,5.0,1.789260599995032,,,034,01,2024-12-17_16h39.47.951,Surprise recog test,2023.1.3,60.01907402529893,
327,0,327,0,,,,,,,,,,,,,,,,,,,,,,,,,,,,,,,,,,1007.3504191001412,1008.3760428000242,1005.7464153000619,1005.7464153000619,1005.7464153000619,1005.7464153000619,old_fruit_44.png,328,5.0,1.600212899968028,,,034,01,2024-12-17_16h39.47.951,Surprise recog test,2023.1.3,60.01907402529893,
328,0,328,0,,,,,,,,,,,,,,,,,,,,,,,,,,,,,,,,,,1009.9292792000342,,1008.3760428000242,1008.3760428000242,1008.3760428000242,1008.3760428000242,old_stationery_46.png,329,1.0,1.55520850000903,,,034,01,2024-12-17_16h39.47.951,Surprise recog test,2023.1.3,60.01907402529893,
329,0,329,0,,,,,,,,,,,,,,,,,,,,,,,,,,,,,,,,,,1012.1268873000517,1013.148991300026,1010.9662032001652,1010.9662032001652,1010.9662032001652,1010.9662032001652,old_sceneOut_35.png,330,4.0,1.1640955999027938,,,034,01,2024-12-17_16h39.47.951,Surprise recog test,2023.1.3,60.01907402529893,
330,0,330,0,,,,,,,,,,,,,,,,,,,,,,,,,,,,,,,,,,1014.4490073001944,,1013.148991300026,1013.148991300026,1013.148991300026,1013.148991300026,new_sceneIn_36.png,331,5.0,1.3026792998425663,,,034,01,2024-12-17_16h39.47.951,Surprise recog test,2023.1.3,60.01907402529893,
331,0,331,0,,,,,,,,,,,,,,,,,,,,,,,,,,,,,,,,,,1016.7611528001726,1017.783645400079,1015.476248400053,1015.476248400053,1015.476248400053,1015.476248400053,new_stationery_30.png,332,1.0,1.2854412000160664,,,034,01,2024-12-17_16h39.47.951,Surprise recog test,2023.1.3,60.01907402529893,
332,0,332,0,,,,,,,,,,,,,,,,,,,,,,,,,,,,,,,,,,1019.9747592001222,1021.0097682999913,1017.783645400079,1017.783645400079,1017.783645400079,1017.783645400079,new_sceneOut_33.png,333,2.0,2.1925615000072867,,,034,01,2024-12-17_16h39.47.951,Surprise recog test,2023.1.3,60.01907402529893,
333,0,333,0,,,,,,,,,,,,,,,,,,,,,,,,,,,,,,,,,,1022.5708706001751,1023.5873563000932,1021.0097682999913,1021.0097682999913,1021.0097682999913,1021.0097682999913,old_sceneIn_21.png,334,1.0,1.5644264000002295,,,034,01,2024-12-17_16h39.47.951,Surprise recog test,2023.1.3,60.01907402529893,
334,0,334,0,,,,,,,,,,,,,,,,,,,,,,,,,,,,,,,,,,1024.4045709001366,1025.41321290005,1023.5873563000932,1023.5873563000932,1023.5873563000932,1023.5873563000932,old_fruit_18.png,335,1.0,0.8149975999258459,,,034,01,2024-12-17_16h39.47.951,Surprise recog test,2023.1.3,60.01907402529893,
335,0,335,0,,,,,,,,,,,,,,,,,,,,,,,,,,,,,,,,,,1027.0371652999893,1028.060387799982,1025.41321290005,1025.41321290005,1025.41321290005,1025.41321290005,new_sceneIn_3.png,336,5.0,1.6199143000412732,,,034,01,2024-12-17_16h39.47.951,Surprise recog test,2023.1.3,60.01907402529893,
336,0,336,0,,,,,,,,,,,,,,,,,,,,,,,,,,,,,,,,,,1029.047852500109,1030.078195600072,1028.060387799982,1028.060387799982,1028.060387799982,1028.060387799982,old_sceneIn_49.png,337,5.0,0.9886521000880748,,,034,01,2024-12-17_16h39.47.951,Surprise recog test,2023.1.3,60.01907402529893,
337,0,337,0,,,,,,,,,,,,,,,,,,,,,,,,,,,,,,,,,,1030.850361800054,1031.8679016001988,1030.078195600072,1030.078195600072,1030.078195600072,1030.078195600072,new_fruit_33.png,338,5.0,0.7701721000485122,,,034,01,2024-12-17_16h39.47.951,Surprise recog test,2023.1.3,60.01907402529893,
338,0,338,0,,,,,,,,,,,,,,,,,,,,,,,,,,,,,,,,,,1033.1380517000798,1034.1689158000518,1031.8679016001988,1031.8679016001988,1031.8679016001988,1031.8679016001988,old_fruit_24.png,339,1.0,1.263743899995461,,,034,01,2024-12-17_16h39.47.951,Surprise recog test,2023.1.3,60.01907402529893,
339,0,339,0,,,,,,,,,,,,,,,,,,,,,,,,,,,,,,,,,,1036.4490722999908,1037.4528237001505,1034.1689158000518,1034.1689158000518,1034.1689158000518,1034.1689158000518,new_sceneOut_3.png,340,2.0,2.2844102000817657,,,034,01,2024-12-17_16h39.47.951,Surprise recog test,2023.1.3,60.01907402529893,
340,0,340,0,,,,,,,,,,,,,,,,,,,,,,,,,,,,,,,,,,1038.9500618001912,1039.970445400104,1037.4528237001505,1037.4528237001505,1037.4528237001505,1037.4528237001505,new_sceneIn_48.png,341,5.0,1.4911396000534296,,,034,01,2024-12-17_16h39.47.951,Surprise recog test,2023.1.3,60.01907402529893,
341,0,341,0,,,,,,,,,,,,,,,,,,,,,,,,,,,,,,,,,,1041.1759308001492,1042.2062169001438,1039.970445400104,1039.970445400104,1039.970445400104,1039.970445400104,old_stationery_31.png,342,1.0,1.2081369999796152,,,034,01,2024-12-17_16h39.47.951,Surprise recog test,2023.1.3,60.01907402529893,
342,0,342,0,,,,,,,,,,,,,,,,,,,,,,,,,,,,,,,,,,1043.3826193001587,1044.4070224000607,1042.2062169001438,1042.2062169001438,1042.2062169001438,1042.2062169001438,new_sceneIn_8.png,343,5.0,1.179206999950111,,,034,01,2024-12-17_16h39.47.951,Surprise recog test,2023.1.3,60.01907402529893,
343,0,343,0,,,,,,,,,,,,,,,,,,,,,,,,,,,,,,,,,,1045.3241063000169,,1044.4070224000607,1044.4070224000607,1044.4070224000607,1044.4070224000607,new_fruit_23.png,344,5.0,0.9195053000003099,,,034,01,2024-12-17_16h39.47.951,Surprise recog test,2023.1.3,60.01907402529893,
344,0,344,0,,,,,,,,,,,,,,,,,,,,,,,,,,,,,,,,,,1047.9907563000452,1049.0125736000482,1046.3580165000167,1046.3580165000167,1046.3580165000167,1046.3580165000167,old_stationery_9.png,345,1.0,1.6284077998716384,,,034,01,2024-12-17_16h39.47.951,Surprise recog test,2023.1.3,60.01907402529893,
345,0,345,0,,,,,,,,,,,,,,,,,,,,,,,,,,,,,,,,,,1051.062352300156,,1049.0125736000482,1049.0125736000482,1049.0125736000482,1049.0125736000482,old_fruit_6.png,346,1.0,2.0530218000058085,,,034,01,2024-12-17_16h39.47.951,Surprise recog test,2023.1.3,60.01907402529893,
346,0,346,0,,,,,,,,,,,,,,,,,,,,,,,,,,,,,,,,,,1053.3312592001166,,1052.0973049001768,1052.0973049001768,1052.0973049001768,1052.0973049001768,new_fruit_41.png,347,4.0,1.2361685999203473,,,034,01,2024-12-17_16h39.47.951,Surprise recog test,2023.1.3,60.01907402529893,
347,0,347,0,,,,,,,,,,,,,,,,,,,,,,,,,,,,,,,,,,1055.4225485001225,1056.4537228001282,1054.3618992001284,1054.3618992001284,1054.3618992001284,1054.3618992001284,old_stationery_30.png,348,5.0,1.0627494999207556,,,034,01,2024-12-17_16h39.47.951,Surprise recog test,2023.1.3,60.01907402529893,
348,0,348,0,,,,,,,,,,,,,,,,,,,,,,,,,,,,,,,,,,1057.334012400126,,1056.4537228001282,1056.4537228001282,1056.4537228001282,1056.4537228001282,new_fruit_15.png,349,5.0,0.883282900089398,,,034,01,2024-12-17_16h39.47.951,Surprise recog test,2023.1.3,60.01907402529893,
349,0,349,0,,,,,,,,,,,,,,,,,,,,,,,,,,,,,,,,,,1059.8692709000316,,1058.3669396000914,1058.3669396000914,1058.3669396000914,1058.3669396000914,old_stationery_19.png,350,1.0,1.5040740999393165,,,034,01,2024-12-17_16h39.47.951,Surprise recog test,2023.1.3,60.01907402529893,
350,0,350,0,,,,,,,,,,,,,,,,,,,,,,,,,,,,,,,,,,1063.5574364999775,,1060.905922200065,1060.905922200065,1060.905922200065,1060.905922200065,new_fruit_42.png,351,4.0,2.653143099974841,,,034,01,2024-12-17_16h39.47.951,Surprise recog test,2023.1.3,60.01907402529893,
351,0,351,0,,,,,,,,,,,,,,,,,,,,,,,,,,,,,,,,,,1065.6470722001977,1066.6750407000072,1064.5891484001186,1064.5891484001186,1064.5891484001186,1064.5891484001186,new_fruit_32.png,352,4.0,1.0599343997891992,,,034,01,2024-12-17_16h39.47.951,Surprise recog test,2023.1.3,60.01907402529893,
352,0,352,0,,,,,,,,,,,,,,,,,,,,,,,,,,,,,,,,,,1067.8262074000668,,1066.6750407000072,1066.6750407000072,1066.6750407000072,1066.6750407000072,old_sceneOut_48.png,353,5.0,1.153288000030443,,,034,01,2024-12-17_16h39.47.951,Surprise recog test,2023.1.3,60.01907402529893,
353,0,353,0,,,,,,,,,,,,,,,,,,,,,,,,,,,,,,,,,,1069.9652820001356,1070.9955625000875,1068.8623634001706,1068.8623634001706,1068.8623634001706,1068.8623634001706,old_fruit_11.png,354,1.0,1.1056887998711318,,,034,01,2024-12-17_16h39.47.951,Surprise recog test,2023.1.3,60.01907402529893,
