trial_loop.thisRepN,trial_loop.thisTrialN,trial_loop.thisN,trial_loop.thisIndex,VAS_slider.started,VAS_text.started,VAS_notstressed_text.started,VAS_stressed_text.started,continue_input.started,continue_text.started,label0.started,label10.started,label20.started,label30.started,label40.started,label50.started,label60.started,label70.started,label80.started,label90.started,label100.started,VAS_slider.response,VAS_slider.rt,VAS_slider.history,Answer_VAS,continue_input.keys,instruction_text.started,continue_text_2.started,continue_input_2.started,continue_input_2.keys,continue_input_2.rt,continue_input_2.duration,example_text.started,example_slider_2.started,example_image.started,example_slider_2.response,example_slider_2.rt,fixcross.started,fixcross.stopped,front_square.started,stim_images.started,trial_inst_images.started,slider_images.started,thisImg,trial_count,slider_images.response,slider_images.rt,slider_images.stopped,outro.started,participant,condition,date,expName,psychopyVersion,frameRate,
,,,,21.389239700045437,21.389239700045437,21.389239700045437,21.389239700045437,21.389239700045437,21.389239700045437,21.389239700045437,21.389239700045437,21.389239700045437,21.389239700045437,21.389239700045437,21.389239700045437,21.389239700045437,21.389239700045437,21.389239700045437,21.389239700045437,21.389239700045437,1.9444444444444442,6.574354999931529,"[(1.9444444444444442, 6.574354999931529)]",1.9444444444444442,None,,,,,,,,,,,,,,,,,,,,,,,,035,01,2025-01-14_16h30.49.422,Surprise recog test,2023.1.3,60.0080170762405,
,,,,,,,,,,,,,,,,,,,,,,,,,,27.99105850001797,27.99105850001797,27.99105850001797,space,38.066093800007366,None,,,,,,,,,,,,,,,,,,035,01,2025-01-14_16h30.49.422,Surprise recog test,2023.1.3,60.0080170762405,
0,0,0,0,,,,,,,,,,,,,,,,,,,,,,,,,,,,,66.17766489996575,66.17766489996575,66.17766489996575,5.0,12.917283600079827,83.08059080003295,84.09295349998865,80.05180909996852,80.05180909996852,80.05180909996852,80.05180909996852,old_sceneIn_5.png,1,3.0,3.028191899997182,,,035,01,2025-01-14_16h30.49.422,Surprise recog test,2023.1.3,60.0080170762405,
1,0,1,0,,,,,,,,,,,,,,,,,,,,,,,,,,,,,,,,,,88.8190365000628,89.83337600005325,84.09295349998865,84.09295349998865,84.09295349998865,84.09295349998865,new_stationery_13.png,2,3.0,4.721647099941038,,,035,01,2025-01-14_16h30.49.422,Surprise recog test,2023.1.3,60.0080170762405,
2,0,2,0,,,,,,,,,,,,,,,,,,,,,,,,,,,,,,,,,,93.87968040001579,94.89905819995329,89.83337600005325,89.83337600005325,89.83337600005325,89.83337600005325,new_fruit_10.png,3,2.0,4.036091899964958,,,035,01,2025-01-14_16h30.49.422,Surprise recog test,2023.1.3,60.0080170762405,
3,0,3,0,,,,,,,,,,,,,,,,,,,,,,,,,,,,,,,,,,97.33204620005563,98.35150520002935,94.89905819995329,94.89905819995329,94.89905819995329,94.89905819995329,new_sceneIn_8.png,4,5.0,2.431790200062096,,,035,01,2025-01-14_16h30.49.422,Surprise recog test,2023.1.3,60.0080170762405,
4,0,4,0,,,,,,,,,,,,,,,,,,,,,,,,,,,,,,,,,,100.9522204999812,101.96721390006132,98.35150520002935,98.35150520002935,98.35150520002935,98.35150520002935,new_sceneOut_31.png,5,5.0,2.599111699964851,,,035,01,2025-01-14_16h30.49.422,Surprise recog test,2023.1.3,60.0080170762405,
5,0,5,0,,,,,,,,,,,,,,,,,,,,,,,,,,,,,,,,,,104.21446230006404,105.23117699997965,101.96721390006132,101.96721390006132,101.96721390006132,101.96721390006132,new_fruit_9.png,6,1.0,2.2402261999668553,,,035,01,2025-01-14_16h30.49.422,Surprise recog test,2023.1.3,60.0080170762405,
6,0,6,0,,,,,,,,,,,,,,,,,,,,,,,,,,,,,,,,,,107.31556819996331,108.34605799999554,105.23117699997965,105.23117699997965,105.23117699997965,105.23117699997965,new_sceneIn_1.png,7,5.0,2.078783700009808,,,035,01,2025-01-14_16h30.49.422,Surprise recog test,2023.1.3,60.0080170762405,
7,0,7,0,,,,,,,,,,,,,,,,,,,,,,,,,,,,,,,,,,111.72801449999679,112.75052620004863,108.34605799999554,108.34605799999554,108.34605799999554,108.34605799999554,old_sceneIn_14.png,8,2.0,3.380795200006105,,,035,01,2025-01-14_16h30.49.422,Surprise recog test,2023.1.3,60.0080170762405,
8,0,8,0,,,,,,,,,,,,,,,,,,,,,,,,,,,,,,,,,,114.7707946000155,115.80053540004883,112.75052620004863,112.75052620004863,112.75052620004863,112.75052620004863,new_stationery_35.png,9,1.0,2.0192501000128686,,,035,01,2025-01-14_16h30.49.422,Surprise recog test,2023.1.3,60.0080170762405,
9,0,9,0,,,,,,,,,,,,,,,,,,,,,,,,,,,,,,,,,,117.73502530006226,,115.80053540004883,115.80053540004883,115.80053540004883,115.80053540004883,old_stationery_15.png,10,1.0,1.9361145000439137,,,035,01,2025-01-14_16h30.49.422,Surprise recog test,2023.1.3,60.0080170762405,
10,0,10,0,,,,,,,,,,,,,,,,,,,,,,,,,,,,,,,,,,121.28498640004545,122.29864629998337,118.76232330000494,118.76232330000494,118.76232330000494,118.76232330000494,old_stationery_11.png,11,2.0,2.520723900059238,,,035,01,2025-01-14_16h30.49.422,Surprise recog test,2023.1.3,60.0080170762405,
11,0,11,0,,,,,,,,,,,,,,,,,,,,,,,,,,,,,,,,,,125.09188059996814,,122.29864629998337,122.29864629998337,122.29864629998337,122.29864629998337,new_sceneIn_42.png,12,4.0,2.7915523999836296,,,035,01,2025-01-14_16h30.49.422,Surprise recog test,2023.1.3,60.0080170762405,
12,0,12,0,,,,,,,,,,,,,,,,,,,,,,,,,,,,,,,,,,128.64208340004552,129.66485569998622,126.12837709998712,126.12837709998712,126.12837709998712,126.12837709998712,old_sceneIn_41.png,13,3.0,2.515434000059031,,,035,01,2025-01-14_16h30.49.422,Surprise recog test,2023.1.3,60.0080170762405,
13,0,13,0,,,,,,,,,,,,,,,,,,,,,,,,,,,,,,,,,,132.47738489997573,133.50110820005648,129.66485569998622,129.66485569998622,129.66485569998622,129.66485569998622,old_sceneOut_39.png,14,4.0,2.8107144000241533,,,035,01,2025-01-14_16h30.49.422,Surprise recog test,2023.1.3,60.0080170762405,
14,0,14,0,,,,,,,,,,,,,,,,,,,,,,,,,,,,,,,,,,136.50487890001386,137.52312140003778,133.50110820005648,133.50110820005648,133.50110820005648,133.50110820005648,old_sceneOut_5.png,15,4.0,3.0053461000788957,,,035,01,2025-01-14_16h30.49.422,Surprise recog test,2023.1.3,60.0080170762405,
15,0,15,0,,,,,,,,,,,,,,,,,,,,,,,,,,,,,,,,,,139.9232522000093,140.94226579996757,137.52312140003778,137.52312140003778,137.52312140003778,137.52312140003778,new_stationery_33.png,16,2.0,2.3945369999855757,,,035,01,2025-01-14_16h30.49.422,Surprise recog test,2023.1.3,60.0080170762405,
16,0,16,0,,,,,,,,,,,,,,,,,,,,,,,,,,,,,,,,,,143.12294949998613,,140.94226579996757,140.94226579996757,140.94226579996757,140.94226579996757,new_fruit_29.png,17,3.0,2.175845199963078,,,035,01,2025-01-14_16h30.49.422,Surprise recog test,2023.1.3,60.0080170762405,
17,0,17,0,,,,,,,,,,,,,,,,,,,,,,,,,,,,,,,,,,147.09107820002828,148.11209000006784,144.16233439999633,144.16233439999633,144.16233439999633,144.16233439999633,new_sceneIn_45.png,18,4.0,2.930909199989401,,,035,01,2025-01-14_16h30.49.422,Surprise recog test,2023.1.3,60.0080170762405,
18,0,18,0,,,,,,,,,,,,,,,,,,,,,,,,,,,,,,,,,,150.9790403000079,151.98576339997817,148.11209000006784,148.11209000006784,148.11209000006784,148.11209000006784,new_sceneOut_20.png,19,5.0,2.868308400036767,,,035,01,2025-01-14_16h30.49.422,Surprise recog test,2023.1.3,60.0080170762405,
19,0,19,0,,,,,,,,,,,,,,,,,,,,,,,,,,,,,,,,,,154.95052780001424,,151.98576339997817,151.98576339997817,151.98576339997817,151.98576339997817,old_stationery_23.png,20,1.0,2.9606194000225514,,,035,01,2025-01-14_16h30.49.422,Surprise recog test,2023.1.3,60.0080170762405,
20,0,20,0,,,,,,,,,,,,,,,,,,,,,,,,,,,,,,,,,,160.68539260001853,161.7078204000136,155.98609659995418,155.98609659995418,155.98609659995418,155.98609659995418,new_stationery_49.png,21,3.0,4.699321399908513,,,035,01,2025-01-14_16h30.49.422,Surprise recog test,2023.1.3,60.0080170762405,
21,0,21,0,,,,,,,,,,,,,,,,,,,,,,,,,,,,,,,,,,163.82414929999504,,161.7078204000136,161.7078204000136,161.7078204000136,161.7078204000136,new_sceneIn_10.png,22,5.0,2.1192187999840826,,,035,01,2025-01-14_16h30.49.422,Surprise recog test,2023.1.3,60.0080170762405,
22,0,22,0,,,,,,,,,,,,,,,,,,,,,,,,,,,,,,,,,,169.30922880000435,170.3312499000458,164.8599076999817,164.8599076999817,164.8599076999817,164.8599076999817,new_fruit_16.png,23,2.0,4.448341400013305,,,035,01,2025-01-14_16h30.49.422,Surprise recog test,2023.1.3,60.0080170762405,
23,0,23,0,,,,,,,,,,,,,,,,,,,,,,,,,,,,,,,,,,173.71155829995405,174.732913200045,170.3312499000458,170.3312499000458,170.3312499000458,170.3312499000458,old_sceneIn_1.png,24,5.0,3.3836611000588164,,,035,01,2025-01-14_16h30.49.422,Surprise recog test,2023.1.3,60.0080170762405,
24,0,24,0,,,,,,,,,,,,,,,,,,,,,,,,,,,,,,,,,,178.8704114999855,,174.732913200045,174.732913200045,174.732913200045,174.732913200045,new_fruit_22.png,25,4.0,4.138748699915595,,,035,01,2025-01-14_16h30.49.422,Surprise recog test,2023.1.3,60.0080170762405,
25,0,25,0,,,,,,,,,,,,,,,,,,,,,,,,,,,,,,,,,,183.0632761999732,184.0947495000437,179.8997084000148,179.8997084000148,179.8997084000148,179.8997084000148,new_sceneIn_2.png,26,5.0,3.160933999926783,,,035,01,2025-01-14_16h30.49.422,Surprise recog test,2023.1.3,60.0080170762405,
26,0,26,0,,,,,,,,,,,,,,,,,,,,,,,,,,,,,,,,,,186.5494902000064,187.57359809998889,184.0947495000437,184.0947495000437,184.0947495000437,184.0947495000437,old_sceneOut_32.png,27,5.0,2.4567487000022084,,,035,01,2025-01-14_16h30.49.422,Surprise recog test,2023.1.3,60.0080170762405,
27,0,27,0,,,,,,,,,,,,,,,,,,,,,,,,,,,,,,,,,,190.65057880000677,191.67402020003647,187.57359809998889,187.57359809998889,187.57359809998889,187.57359809998889,old_stationery_32.png,28,2.0,3.079377599991858,,,035,01,2025-01-14_16h30.49.422,Surprise recog test,2023.1.3,60.0080170762405,
28,0,28,0,,,,,,,,,,,,,,,,,,,,,,,,,,,,,,,,,,195.1823903999757,196.20185910002328,191.67402020003647,191.67402020003647,191.67402020003647,191.67402020003647,new_sceneIn_21.png,29,4.0,3.507313200039789,,,035,01,2025-01-14_16h30.49.422,Surprise recog test,2023.1.3,60.0080170762405,
29,0,29,0,,,,,,,,,,,,,,,,,,,,,,,,,,,,,,,,,,198.51449029997457,199.5409005000256,196.20185910002328,196.20185910002328,196.20185910002328,196.20185910002328,new_fruit_41.png,30,2.0,2.3139852000167593,,,035,01,2025-01-14_16h30.49.422,Surprise recog test,2023.1.3,60.0080170762405,
30,0,30,0,,,,,,,,,,,,,,,,,,,,,,,,,,,,,,,,,,201.46104650001507,202.4789195000194,199.5409005000256,199.5409005000256,199.5409005000256,199.5409005000256,old_stationery_1.png,31,1.0,1.922369800042361,,,035,01,2025-01-14_16h30.49.422,Surprise recog test,2023.1.3,60.0080170762405,
31,0,31,0,,,,,,,,,,,,,,,,,,,,,,,,,,,,,,,,,,204.98630740004592,205.99663960002363,202.4789195000194,202.4789195000194,202.4789195000194,202.4789195000194,new_sceneOut_42.png,32,4.0,2.503253300092183,,,035,01,2025-01-14_16h30.49.422,Surprise recog test,2023.1.3,60.0080170762405,
32,0,32,0,,,,,,,,,,,,,,,,,,,,,,,,,,,,,,,,,,208.17487710004207,209.19510640006047,205.99663960002363,205.99663960002363,205.99663960002363,205.99663960002363,old_stationery_44.png,33,1.0,2.1666646000230685,,,035,01,2025-01-14_16h30.49.422,Surprise recog test,2023.1.3,60.0080170762405,
33,0,33,0,,,,,,,,,,,,,,,,,,,,,,,,,,,,,,,,,,212.41695520002395,213.44450720003806,209.19510640006047,209.19510640006047,209.19510640006047,209.19510640006047,old_fruit_24.png,34,4.0,3.224744899896905,,,035,01,2025-01-14_16h30.49.422,Surprise recog test,2023.1.3,60.0080170762405,
34,0,34,0,,,,,,,,,,,,,,,,,,,,,,,,,,,,,,,,,,215.67125620006118,216.6955093999859,213.44450720003806,213.44450720003806,213.44450720003806,213.44450720003806,new_fruit_4.png,35,3.0,2.2277327000629157,,,035,01,2025-01-14_16h30.49.422,Surprise recog test,2023.1.3,60.0080170762405,
35,0,35,0,,,,,,,,,,,,,,,,,,,,,,,,,,,,,,,,,,219.31142100004945,220.33002370002214,216.6955093999859,216.6955093999859,216.6955093999859,216.6955093999859,old_sceneIn_35.png,36,1.0,2.6162547999992967,,,035,01,2025-01-14_16h30.49.422,Surprise recog test,2023.1.3,60.0080170762405,
36,0,36,0,,,,,,,,,,,,,,,,,,,,,,,,,,,,,,,,,,223.5463552000001,224.55878199997824,220.33002370002214,220.33002370002214,220.33002370002214,220.33002370002214,new_sceneOut_3.png,37,3.0,3.2172781000845134,,,035,01,2025-01-14_16h30.49.422,Surprise recog test,2023.1.3,60.0080170762405,
37,0,37,0,,,,,,,,,,,,,,,,,,,,,,,,,,,,,,,,,,227.10756350005977,228.12115420005284,224.55878199997824,224.55878199997824,224.55878199997824,224.55878199997824,old_stationery_38.png,38,2.0,2.5424620000412688,,,035,01,2025-01-14_16h30.49.422,Surprise recog test,2023.1.3,60.0080170762405,
38,0,38,0,,,,,,,,,,,,,,,,,,,,,,,,,,,,,,,,,,232.3820392000489,,228.12115420005284,228.12115420005284,228.12115420005284,228.12115420005284,new_sceneIn_39.png,39,3.0,4.256676300079562,,,035,01,2025-01-14_16h30.49.422,Surprise recog test,2023.1.3,60.0080170762405,
39,0,39,0,,,,,,,,,,,,,,,,,,,,,,,,,,,,,,,,,,236.09288240002934,237.11712629999965,233.40169269999024,233.40169269999024,233.40169269999024,233.40169269999024,old_sceneOut_24.png,40,4.0,2.6855029000435024,,,035,01,2025-01-14_16h30.49.422,Surprise recog test,2023.1.3,60.0080170762405,
40,0,40,0,,,,,,,,,,,,,,,,,,,,,,,,,,,,,,,,,,240.48769930005074,,237.11712629999965,237.11712629999965,237.11712629999965,237.11712629999965,new_fruit_21.png,41,2.0,3.3714438000461087,,,035,01,2025-01-14_16h30.49.422,Surprise recog test,2023.1.3,60.0080170762405,
41,0,41,0,,,,,,,,,,,,,,,,,,,,,,,,,,,,,,,,,,245.72619239997584,,241.51602880004793,241.51602880004793,241.51602880004793,241.51602880004793,new_sceneOut_15.png,42,2.0,4.209821600001305,,,035,01,2025-01-14_16h30.49.422,Surprise recog test,2023.1.3,60.0080170762405,
42,0,42,0,,,,,,,,,,,,,,,,,,,,,,,,,,,,,,,,,,249.93638169998303,250.9514751000097,246.75458139996044,246.75458139996044,246.75458139996044,246.75458139996044,new_sceneOut_38.png,43,3.0,3.183881500037387,,,035,01,2025-01-14_16h30.49.422,Surprise recog test,2023.1.3,60.0080170762405,
43,0,43,0,,,,,,,,,,,,,,,,,,,,,,,,,,,,,,,,,,254.0661116000265,,250.9514751000097,250.9514751000097,250.9514751000097,250.9514751000097,old_sceneIn_47.png,44,4.0,3.1104685000609607,,,035,01,2025-01-14_16h30.49.422,Surprise recog test,2023.1.3,60.0080170762405,
44,0,44,0,,,,,,,,,,,,,,,,,,,,,,,,,,,,,,,,,,258.3111732000252,259.3362159000244,255.09952639997937,255.09952639997937,255.09952639997937,255.09952639997937,old_sceneIn_27.png,45,4.0,3.210779699962586,,,035,01,2025-01-14_16h30.49.422,Surprise recog test,2023.1.3,60.0080170762405,
45,0,45,0,,,,,,,,,,,,,,,,,,,,,,,,,,,,,,,,,,262.1417344000656,263.16101869998965,259.3362159000244,259.3362159000244,259.3362159000244,259.3362159000244,old_fruit_20.png,46,3.0,2.8072368999710307,,,035,01,2025-01-14_16h30.49.422,Surprise recog test,2023.1.3,60.0080170762405,
46,0,46,0,,,,,,,,,,,,,,,,,,,,,,,,,,,,,,,,,,265.52567360003013,,263.16101869998965,263.16101869998965,263.16101869998965,263.16101869998965,new_fruit_50.png,47,2.0,2.356857500039041,,,035,01,2025-01-14_16h30.49.422,Surprise recog test,2023.1.3,60.0080170762405,
47,0,47,0,,,,,,,,,,,,,,,,,,,,,,,,,,,,,,,,,,269.70946130005177,270.7302285999758,266.54653589997906,266.54653589997906,266.54653589997906,266.54653589997906,old_sceneIn_20.png,48,5.0,3.1518872999586165,,,035,01,2025-01-14_16h30.49.422,Surprise recog test,2023.1.3,60.0080170762405,
48,0,48,0,,,,,,,,,,,,,,,,,,,,,,,,,,,,,,,,,,273.45699229999445,274.4699879999971,270.7302285999758,270.7302285999758,270.7302285999758,270.7302285999758,old_fruit_1.png,49,2.0,2.730238000047393,,,035,01,2025-01-14_16h30.49.422,Surprise recog test,2023.1.3,60.0080170762405,
49,0,49,0,,,,,,,,,,,,,,,,,,,,,,,,,,,,,,,,,,277.9886869000038,279.01605620002374,274.4699879999971,274.4699879999971,274.4699879999971,274.4699879999971,new_sceneOut_30.png,50,4.0,3.5109944000141695,,,035,01,2025-01-14_16h30.49.422,Surprise recog test,2023.1.3,60.0080170762405,
50,0,50,0,,,,,,,,,,,,,,,,,,,,,,,,,,,,,,,,,,282.71202770003583,283.74623719998635,279.01605620002374,279.01605620002374,279.01605620002374,279.01605620002374,old_sceneOut_25.png,51,3.0,3.691277000005357,,,035,01,2025-01-14_16h30.49.422,Surprise recog test,2023.1.3,60.0080170762405,
51,0,51,0,,,,,,,,,,,,,,,,,,,,,,,,,,,,,,,,,,286.1302529000677,287.1618506000377,283.74623719998635,283.74623719998635,283.74623719998635,283.74623719998635,old_fruit_26.png,52,2.0,2.3869659999618307,,,035,01,2025-01-14_16h30.49.422,Surprise recog test,2023.1.3,60.0080170762405,
52,0,52,0,,,,,,,,,,,,,,,,,,,,,,,,,,,,,,,,,,289.1090337999631,290.13209309999365,287.1618506000377,287.1618506000377,287.1618506000377,287.1618506000377,new_sceneOut_48.png,53,5.0,1.947823099908419,,,035,01,2025-01-14_16h30.49.422,Surprise recog test,2023.1.3,60.0080170762405,
53,0,53,0,,,,,,,,,,,,,,,,,,,,,,,,,,,,,,,,,,292.0430344999768,293.0656361000147,290.13209309999365,290.13209309999365,290.13209309999365,290.13209309999365,old_stationery_22.png,54,1.0,1.908602200099267,,,035,01,2025-01-14_16h30.49.422,Surprise recog test,2023.1.3,60.0080170762405,
54,0,54,0,,,,,,,,,,,,,,,,,,,,,,,,,,,,,,,,,,296.10004489996936,297.12003290001303,293.0656361000147,293.0656361000147,293.0656361000147,293.0656361000147,old_sceneIn_48.png,55,5.0,3.0364742999663576,,,035,01,2025-01-14_16h30.49.422,Surprise recog test,2023.1.3,60.0080170762405,
55,0,55,0,,,,,,,,,,,,,,,,,,,,,,,,,,,,,,,,,,300.65202260005753,301.65961460000835,297.12003290001303,297.12003290001303,297.12003290001303,297.12003290001303,new_fruit_24.png,56,3.0,3.5286017999751493,,,035,01,2025-01-14_16h30.49.422,Surprise recog test,2023.1.3,60.0080170762405,
56,0,56,0,,,,,,,,,,,,,,,,,,,,,,,,,,,,,,,,,,304.3880347000668,305.4049337999895,301.65961460000835,301.65961460000835,301.65961460000835,301.65961460000835,new_sceneIn_50.png,57,5.0,2.7235916000790894,,,035,01,2025-01-14_16h30.49.422,Surprise recog test,2023.1.3,60.0080170762405,
57,0,57,0,,,,,,,,,,,,,,,,,,,,,,,,,,,,,,,,,,309.06590030004736,310.09522250003647,305.4049337999895,305.4049337999895,305.4049337999895,305.4049337999895,old_sceneOut_17.png,58,4.0,3.662135099992156,,,035,01,2025-01-14_16h30.49.422,Surprise recog test,2023.1.3,60.0080170762405,
58,0,58,0,,,,,,,,,,,,,,,,,,,,,,,,,,,,,,,,,,312.2616981000174,313.284653199953,310.09522250003647,310.09522250003647,310.09522250003647,310.09522250003647,new_stationery_30.png,59,1.0,2.1676417000126094,,,035,01,2025-01-14_16h30.49.422,Surprise recog test,2023.1.3,60.0080170762405,
59,0,59,0,,,,,,,,,,,,,,,,,,,,,,,,,,,,,,,,,,315.89832410006784,316.9130989999976,313.284653199953,313.284653199953,313.284653199953,313.284653199953,new_sceneIn_5.png,60,3.0,2.6158008999191225,,,035,01,2025-01-14_16h30.49.422,Surprise recog test,2023.1.3,60.0080170762405,
60,0,60,0,,,,,,,,,,,,,,,,,,,,,,,,,,,,,,,,,,319.61292380001396,320.6404974999605,316.9130989999976,316.9130989999976,316.9130989999976,316.9130989999976,new_sceneIn_4.png,61,5.0,2.69601039995905,,,035,01,2025-01-14_16h30.49.422,Surprise recog test,2023.1.3,60.0080170762405,
61,0,61,0,,,,,,,,,,,,,,,,,,,,,,,,,,,,,,,,,,325.62469560001045,,320.6404974999605,320.6404974999605,320.6404974999605,320.6404974999605,old_sceneIn_34.png,62,None,None,325.6100137999747,,035,01,2025-01-14_16h30.49.422,Surprise recog test,2023.1.3,60.0080170762405,
62,0,62,0,,,,,,,,,,,,,,,,,,,,,,,,,,,,,,,,,,328.95906190003734,329.97942730004434,326.65567809995264,326.65567809995264,326.65567809995264,326.65567809995264,old_sceneIn_6.png,63,5.0,2.3049027000088245,,,035,01,2025-01-14_16h30.49.422,Surprise recog test,2023.1.3,60.0080170762405,
63,0,63,0,,,,,,,,,,,,,,,,,,,,,,,,,,,,,,,,,,332.4495273999637,333.4818128000479,329.97942730004434,329.97942730004434,329.97942730004434,329.97942730004434,old_stationery_5.png,64,3.0,2.4731435000430793,,,035,01,2025-01-14_16h30.49.422,Surprise recog test,2023.1.3,60.0080170762405,
64,0,64,0,,,,,,,,,,,,,,,,,,,,,,,,,,,,,,,,,,337.61542749998625,338.63589899998624,333.4818128000479,333.4818128000479,333.4818128000479,333.4818128000479,new_sceneOut_29.png,65,4.0,4.136284100008197,,,035,01,2025-01-14_16h30.49.422,Surprise recog test,2023.1.3,60.0080170762405,
65,0,65,0,,,,,,,,,,,,,,,,,,,,,,,,,,,,,,,,,,341.75572680006735,,338.63589899998624,338.63589899998624,338.63589899998624,338.63589899998624,old_sceneIn_22.png,66,3.0,3.1213049000361934,,,035,01,2025-01-14_16h30.49.422,Surprise recog test,2023.1.3,60.0080170762405,
66,0,66,0,,,,,,,,,,,,,,,,,,,,,,,,,,,,,,,,,,346.42480320006143,347.43120270001236,342.77572479995433,342.77572479995433,342.77572479995433,342.77572479995433,new_stationery_24.png,67,3.0,3.644145300029777,,,035,01,2025-01-14_16h30.49.422,Surprise recog test,2023.1.3,60.0080170762405,
67,0,67,0,,,,,,,,,,,,,,,,,,,,,,,,,,,,,,,,,,350.78356580005493,351.8076485999627,347.43120270001236,347.43120270001236,347.43120270001236,347.43120270001236,old_sceneOut_19.png,68,4.0,3.347045300062746,,,035,01,2025-01-14_16h30.49.422,Surprise recog test,2023.1.3,60.0080170762405,
68,0,68,0,,,,,,,,,,,,,,,,,,,,,,,,,,,,,,,,,,354.54512410005555,355.56498679996,351.8076485999627,351.8076485999627,351.8076485999627,351.8076485999627,new_stationery_47.png,69,3.0,2.7344314999645576,,,035,01,2025-01-14_16h30.49.422,Surprise recog test,2023.1.3,60.0080170762405,
69,0,69,0,,,,,,,,,,,,,,,,,,,,,,,,,,,,,,,,,,359.0006577000022,360.025847199955,355.56498679996,355.56498679996,355.56498679996,355.56498679996,new_stationery_29.png,70,3.0,3.4357733000069857,,,035,01,2025-01-14_16h30.49.422,Surprise recog test,2023.1.3,60.0080170762405,
70,0,70,0,,,,,,,,,,,,,,,,,,,,,,,,,,,,,,,,,,363.4821071999613,364.50985480006784,360.025847199955,360.025847199955,360.025847199955,360.025847199955,new_sceneOut_33.png,71,3.0,3.4588895000051707,,,035,01,2025-01-14_16h30.49.422,Surprise recog test,2023.1.3,60.0080170762405,
71,0,71,0,,,,,,,,,,,,,,,,,,,,,,,,,,,,,,,,,,367.6120104000438,,364.50985480006784,364.50985480006784,364.50985480006784,364.50985480006784,old_sceneOut_2.png,72,3.0,3.102711600018665,,,035,01,2025-01-14_16h30.49.422,Surprise recog test,2023.1.3,60.0080170762405,
72,0,72,0,,,,,,,,,,,,,,,,,,,,,,,,,,,,,,,,,,371.4130334999645,,368.6428144000238,368.6428144000238,368.6428144000238,368.6428144000238,new_stationery_21.png,73,4.0,2.7706636000657454,,,035,01,2025-01-14_16h30.49.422,Surprise recog test,2023.1.3,60.0080170762405,
73,0,73,0,,,,,,,,,,,,,,,,,,,,,,,,,,,,,,,,,,375.47422560001723,376.50197730003856,372.44531370000914,372.44531370000914,372.44531370000914,372.44531370000914,new_fruit_43.png,74,4.0,3.0289886000100523,,,035,01,2025-01-14_16h30.49.422,Surprise recog test,2023.1.3,60.0080170762405,
74,0,74,0,,,,,,,,,,,,,,,,,,,,,,,,,,,,,,,,,,379.6356545999879,380.6436581000453,376.50197730003856,376.50197730003856,376.50197730003856,376.50197730003856,old_sceneOut_46.png,75,4.0,3.1345468000508845,,,035,01,2025-01-14_16h30.49.422,Surprise recog test,2023.1.3,60.0080170762405,
75,0,75,0,,,,,,,,,,,,,,,,,,,,,,,,,,,,,,,,,,383.35466479999013,384.35872570006177,380.6436581000453,380.6436581000453,380.6436581000453,380.6436581000453,new_sceneIn_33.png,76,5.0,2.70512639998924,,,035,01,2025-01-14_16h30.49.422,Surprise recog test,2023.1.3,60.0080170762405,
76,0,76,0,,,,,,,,,,,,,,,,,,,,,,,,,,,,,,,,,,387.2729185000062,388.28263579995837,384.35872570006177,384.35872570006177,384.35872570006177,384.35872570006177,new_sceneIn_7.png,77,5.0,2.9099835000233725,,,035,01,2025-01-14_16h30.49.422,Surprise recog test,2023.1.3,60.0080170762405,
77,0,77,0,,,,,,,,,,,,,,,,,,,,,,,,,,,,,,,,,,391.2339033000171,392.2581606999738,388.28263579995837,388.28263579995837,388.28263579995837,388.28263579995837,old_sceneIn_2.png,78,3.0,2.945143600110896,,,035,01,2025-01-14_16h30.49.422,Surprise recog test,2023.1.3,60.0080170762405,
78,0,78,0,,,,,,,,,,,,,,,,,,,,,,,,,,,,,,,,,,394.24500080000143,395.2649256000295,392.2581606999738,392.2581606999738,392.2581606999738,392.2581606999738,old_stationery_7.png,79,1.0,1.9874655000166968,,,035,01,2025-01-14_16h30.49.422,Surprise recog test,2023.1.3,60.0080170762405,
79,0,79,0,,,,,,,,,,,,,,,,,,,,,,,,,,,,,,,,,,398.1499160999665,399.1726239999989,395.2649256000295,395.2649256000295,395.2649256000295,395.2649256000295,old_stationery_25.png,80,3.0,2.882147000054829,,,035,01,2025-01-14_16h30.49.422,Surprise recog test,2023.1.3,60.0080170762405,
80,0,80,0,,,,,,,,,,,,,,,,,,,,,,,,,,,,,,,,,,403.11777779995464,404.1403270000592,399.1726239999989,399.1726239999989,399.1726239999989,399.1726239999989,old_fruit_17.png,81,3.0,3.9468577000079677,,,035,01,2025-01-14_16h30.49.422,Surprise recog test,2023.1.3,60.0080170762405,
81,0,81,0,,,,,,,,,,,,,,,,,,,,,,,,,,,,,,,,,,407.3001326000085,408.32350299996324,404.1403270000592,404.1403270000592,404.1403270000592,404.1403270000592,new_fruit_15.png,82,2.0,3.1600548999849707,,,035,01,2025-01-14_16h30.49.422,Surprise recog test,2023.1.3,60.0080170762405,
82,0,82,0,,,,,,,,,,,,,,,,,,,,,,,,,,,,,,,,,,410.6530199999688,411.67892650002614,408.32350299996324,408.32350299996324,408.32350299996324,408.32350299996324,new_sceneOut_11.png,83,5.0,2.325382300070487,,,035,01,2025-01-14_16h30.49.422,Surprise recog test,2023.1.3,60.0080170762405,
83,0,83,0,,,,,,,,,,,,,,,,,,,,,,,,,,,,,,,,,,415.18353749997914,,411.67892650002614,411.67892650002614,411.67892650002614,411.67892650002614,new_sceneIn_19.png,84,3.0,3.5064338999800384,,,035,01,2025-01-14_16h30.49.422,Surprise recog test,2023.1.3,60.0080170762405,
84,0,84,0,,,,,,,,,,,,,,,,,,,,,,,,,,,,,,,,,,419.8234456999926,420.8388669999549,416.2043110000668,416.2043110000668,416.2043110000668,416.2043110000668,old_stationery_19.png,85,2.0,3.6147530999733135,,,035,01,2025-01-14_16h30.49.422,Surprise recog test,2023.1.3,60.0080170762405,
85,0,85,0,,,,,,,,,,,,,,,,,,,,,,,,,,,,,,,,,,423.9728961000219,424.99054060003255,420.8388669999549,420.8388669999549,420.8388669999549,420.8388669999549,new_sceneIn_15.png,86,4.0,3.129922299995087,,,035,01,2025-01-14_16h30.49.422,Surprise recog test,2023.1.3,60.0080170762405,
86,0,86,0,,,,,,,,,,,,,,,,,,,,,,,,,,,,,,,,,,427.6175924000563,428.64551920001395,424.99054060003255,424.99054060003255,424.99054060003255,424.99054060003255,new_fruit_32.png,87,3.0,2.6275473999558017,,,035,01,2025-01-14_16h30.49.422,Surprise recog test,2023.1.3,60.0080170762405,
87,0,87,0,,,,,,,,,,,,,,,,,,,,,,,,,,,,,,,,,,431.9227467000019,432.93195120000746,428.64551920001395,428.64551920001395,428.64551920001395,428.64551920001395,new_sceneIn_36.png,88,4.0,3.277848199941218,,,035,01,2025-01-14_16h30.49.422,Surprise recog test,2023.1.3,60.0080170762405,
88,0,88,0,,,,,,,,,,,,,,,,,,,,,,,,,,,,,,,,,,434.8139078000095,435.8326027999865,432.93195120000746,432.93195120000746,432.93195120000746,432.93195120000746,old_stationery_36.png,89,1.0,1.875231400015764,,,035,01,2025-01-14_16h30.49.422,Surprise recog test,2023.1.3,60.0080170762405,
89,0,89,0,,,,,,,,,,,,,,,,,,,,,,,,,,,,,,,,,,438.28315799997654,439.30529819999356,435.8326027999865,435.8326027999865,435.8326027999865,435.8326027999865,new_sceneIn_29.png,90,5.0,2.44622389995493,,,035,01,2025-01-14_16h30.49.422,Surprise recog test,2023.1.3,60.0080170762405,
90,0,90,0,,,,,,,,,,,,,,,,,,,,,,,,,,,,,,,,,,441.4128155000508,442.4287266000174,439.30529819999356,439.30529819999356,439.30529819999356,439.30529819999356,new_stationery_1.png,91,1.0,2.11151219997555,,,035,01,2025-01-14_16h30.49.422,Surprise recog test,2023.1.3,60.0080170762405,
91,0,91,0,,,,,,,,,,,,,,,,,,,,,,,,,,,,,,,,,,445.03100900002755,446.0442014000146,442.4287266000174,442.4287266000174,442.4287266000174,442.4287266000174,new_sceneIn_49.png,92,4.0,2.5996835000114515,,,035,01,2025-01-14_16h30.49.422,Surprise recog test,2023.1.3,60.0080170762405,
92,0,92,0,,,,,,,,,,,,,,,,,,,,,,,,,,,,,,,,,,447.915976600023,448.9458406000631,446.0442014000146,446.0442014000146,446.0442014000146,446.0442014000146,old_stationery_50.png,93,1.0,1.8664772999472916,,,035,01,2025-01-14_16h30.49.422,Surprise recog test,2023.1.3,60.0080170762405,
93,0,93,0,,,,,,,,,,,,,,,,,,,,,,,,,,,,,,,,,,452.2114782000426,453.2388774000574,448.9458406000631,448.9458406000631,448.9458406000631,448.9458406000631,old_sceneIn_24.png,94,4.0,3.2676319999154657,,,035,01,2025-01-14_16h30.49.422,Surprise recog test,2023.1.3,60.0080170762405,
94,0,94,0,,,,,,,,,,,,,,,,,,,,,,,,,,,,,,,,,,455.65831420000177,456.6740654000314,453.2388774000574,453.2388774000574,453.2388774000574,453.2388774000574,new_sceneOut_28.png,95,4.0,2.4244089999701828,,,035,01,2025-01-14_16h30.49.422,Surprise recog test,2023.1.3,60.0080170762405,
95,0,95,0,,,,,,,,,,,,,,,,,,,,,,,,,,,,,,,,,,460.3349003000185,461.3554136999883,456.6740654000314,456.6740654000314,456.6740654000314,456.6740654000314,old_fruit_47.png,96,4.0,3.6543732000282034,,,035,01,2025-01-14_16h30.49.422,Surprise recog test,2023.1.3,60.0080170762405,
96,0,96,0,,,,,,,,,,,,,,,,,,,,,,,,,,,,,,,,,,463.2088865999831,464.2283605999546,461.3554136999883,461.3554136999883,461.3554136999883,461.3554136999883,old_fruit_15.png,97,3.0,1.8535310999723151,,,035,01,2025-01-14_16h30.49.422,Surprise recog test,2023.1.3,60.0080170762405,
97,0,97,0,,,,,,,,,,,,,,,,,,,,,,,,,,,,,,,,,,468.2112564999843,,464.2283605999546,464.2283605999546,464.2283605999546,464.2283605999546,new_stationery_42.png,98,4.0,3.9777436000294983,,,035,01,2025-01-14_16h30.49.422,Surprise recog test,2023.1.3,60.0080170762405,
98,0,98,0,,,,,,,,,,,,,,,,,,,,,,,,,,,,,,,,,,471.66090020001866,472.66935570002533,469.24510709999595,469.24510709999595,469.24510709999595,469.24510709999595,old_fruit_31.png,99,3.0,2.4178065001033247,,,035,01,2025-01-14_16h30.49.422,Surprise recog test,2023.1.3,60.0080170762405,
99,0,99,0,,,,,,,,,,,,,,,,,,,,,,,,,,,,,,,,,,474.78722030005883,475.8052509999834,472.66935570002533,472.66935570002533,472.66935570002533,472.66935570002533,old_stationery_43.png,100,1.0,2.1121201999485493,,,035,01,2025-01-14_16h30.49.422,Surprise recog test,2023.1.3,60.0080170762405,
100,0,100,0,,,,,,,,,,,,,,,,,,,,,,,,,,,,,,,,,,478.24967309995554,479.2680859999964,475.8052509999834,475.8052509999834,475.8052509999834,475.8052509999834,old_fruit_30.png,101,3.0,2.4364657000405714,,,035,01,2025-01-14_16h30.49.422,Surprise recog test,2023.1.3,60.0080170762405,
101,0,101,0,,,,,,,,,,,,,,,,,,,,,,,,,,,,,,,,,,483.36779719998594,484.3919758000411,479.2680859999964,479.2680859999964,479.2680859999964,479.2680859999964,old_sceneIn_28.png,102,4.0,4.10214910004288,,,035,01,2025-01-14_16h30.49.422,Surprise recog test,2023.1.3,60.0080170762405,
102,0,102,0,,,,,,,,,,,,,,,,,,,,,,,,,,,,,,,,,,487.9489551000297,488.9666040999582,484.3919758000411,484.3919758000411,484.3919758000411,484.3919758000411,new_stationery_45.png,103,4.0,3.5572178000584245,,,035,01,2025-01-14_16h30.49.422,Surprise recog test,2023.1.3,60.0080170762405,
103,0,103,0,,,,,,,,,,,,,,,,,,,,,,,,,,,,,,,,,,491.45335800002795,492.4692273000255,488.9666040999582,488.9666040999582,488.9666040999582,488.9666040999582,old_sceneOut_49.png,104,5.0,2.4818475000793114,,,035,01,2025-01-14_16h30.49.422,Surprise recog test,2023.1.3,60.0080170762405,
104,0,104,0,,,,,,,,,,,,,,,,,,,,,,,,,,,,,,,,,,494.7164063999662,,492.4692273000255,492.4692273000255,492.4692273000255,492.4692273000255,old_stationery_31.png,105,1.0,2.243003899930045,,,035,01,2025-01-14_16h30.49.422,Surprise recog test,2023.1.3,60.0080170762405,
105,0,105,0,,,,,,,,,,,,,,,,,,,,,,,,,,,,,,,,,,497.98015630000737,499.0019127000123,495.7531735000666,495.7531735000666,495.7531735000666,495.7531735000666,new_stationery_2.png,106,3.0,2.2293289999943227,,,035,01,2025-01-14_16h30.49.422,Surprise recog test,2023.1.3,60.0080170762405,
106,0,106,0,,,,,,,,,,,,,,,,,,,,,,,,,,,,,,,,,,500.90137209999375,501.9104969999753,499.0019127000123,499.0019127000123,499.0019127000123,499.0019127000123,old_sceneIn_33.png,107,5.0,1.9005279999691993,,,035,01,2025-01-14_16h30.49.422,Surprise recog test,2023.1.3,60.0080170762405,
107,0,107,0,,,,,,,,,,,,,,,,,,,,,,,,,,,,,,,,,,505.1244643999962,,501.9104969999753,501.9104969999753,501.9104969999753,501.9104969999753,new_sceneIn_23.png,108,5.0,3.2097664000466466,,,035,01,2025-01-14_16h30.49.422,Surprise recog test,2023.1.3,60.0080170762405,
108,0,108,0,,,,,,,,,,,,,,,,,,,,,,,,,,,,,,,,,,508.4969323000405,509.5135001000017,506.1568852000637,506.1568852000637,506.1568852000637,506.1568852000637,new_fruit_5.png,109,3.0,2.339316300000064,,,035,01,2025-01-14_16h30.49.422,Surprise recog test,2023.1.3,60.0080170762405,
109,0,109,0,,,,,,,,,,,,,,,,,,,,,,,,,,,,,,,,,,512.6117752999999,513.6325580000412,509.5135001000017,509.5135001000017,509.5135001000017,509.5135001000017,old_sceneOut_34.png,110,3.0,3.0897374000633135,,,035,01,2025-01-14_16h30.49.422,Surprise recog test,2023.1.3,60.0080170762405,
110,0,110,0,,,,,,,,,,,,,,,,,,,,,,,,,,,,,,,,,,515.7587082000682,516.7723617999582,513.6325580000412,513.6325580000412,513.6325580000412,513.6325580000412,new_sceneOut_45.png,111,5.0,2.128347699996084,,,035,01,2025-01-14_16h30.49.422,Surprise recog test,2023.1.3,60.0080170762405,
111,0,111,0,,,,,,,,,,,,,,,,,,,,,,,,,,,,,,,,,,520.3562786000548,521.3769803000614,516.7723617999582,516.7723617999582,516.7723617999582,516.7723617999582,new_sceneOut_25.png,112,4.0,3.5792956999503076,,,035,01,2025-01-14_16h30.49.422,Surprise recog test,2023.1.3,60.0080170762405,
112,0,112,0,,,,,,,,,,,,,,,,,,,,,,,,,,,,,,,,,,523.3838482999709,524.4058638999704,521.3769803000614,521.3769803000614,521.3769803000614,521.3769803000614,new_sceneOut_36.png,113,5.0,2.000573799945414,,,035,01,2025-01-14_16h30.49.422,Surprise recog test,2023.1.3,60.0080170762405,
113,0,113,0,,,,,,,,,,,,,,,,,,,,,,,,,,,,,,,,,,525.7997748999624,526.8303024000488,524.4058638999704,524.4058638999704,524.4058638999704,524.4058638999704,old_stationery_28.png,114,1.0,1.3974609000142664,,,035,01,2025-01-14_16h30.49.422,Surprise recog test,2023.1.3,60.0080170762405,
114,0,114,0,,,,,,,,,,,,,,,,,,,,,,,,,,,,,,,,,,529.5489355999744,530.5671859000577,526.8303024000488,526.8303024000488,526.8303024000488,526.8303024000488,new_sceneOut_12.png,115,3.0,2.7219505000393838,,,035,01,2025-01-14_16h30.49.422,Surprise recog test,2023.1.3,60.0080170762405,
115,0,115,0,,,,,,,,,,,,,,,,,,,,,,,,,,,,,,,,,,533.262230399996,534.2748892999953,530.5671859000577,530.5671859000577,530.5671859000577,530.5671859000577,new_stationery_38.png,116,3.0,2.689698199974373,,,035,01,2025-01-14_16h30.49.422,Surprise recog test,2023.1.3,60.0080170762405,
116,0,116,0,,,,,,,,,,,,,,,,,,,,,,,,,,,,,,,,,,537.7157034999691,538.7390316000674,534.2748892999953,534.2748892999953,534.2748892999953,534.2748892999953,new_sceneIn_26.png,117,3.0,3.4369799999985844,,,035,01,2025-01-14_16h30.49.422,Surprise recog test,2023.1.3,60.0080170762405,
117,0,117,0,,,,,,,,,,,,,,,,,,,,,,,,,,,,,,,,,,541.1942167000379,542.2217170000076,538.7390316000674,538.7390316000674,538.7390316000674,538.7390316000674,new_sceneIn_18.png,118,4.0,2.457861499977298,,,035,01,2025-01-14_16h30.49.422,Surprise recog test,2023.1.3,60.0080170762405,
118,0,118,0,,,,,,,,,,,,,,,,,,,,,,,,,,,,,,,,,,545.6232842999743,546.628876300063,542.2217170000076,542.2217170000076,542.2217170000076,542.2217170000076,new_sceneOut_21.png,119,4.0,3.4039781999308616,,,035,01,2025-01-14_16h30.49.422,Surprise recog test,2023.1.3,60.0080170762405,
119,0,119,0,,,,,,,,,,,,,,,,,,,,,,,,,,,,,,,,,,548.8998257999774,549.9128409000114,546.628876300063,546.628876300063,546.628876300063,546.628876300063,new_fruit_48.png,120,3.0,2.2667536000953987,,,035,01,2025-01-14_16h30.49.422,Surprise recog test,2023.1.3,60.0080170762405,
120,0,120,0,,,,,,,,,,,,,,,,,,,,,,,,,,,,,,,,,,552.6023623000365,553.6403227000264,549.9128409000114,549.9128409000114,549.9128409000114,549.9128409000114,old_sceneIn_11.png,121,2.0,2.6827925998950377,,,035,01,2025-01-14_16h30.49.422,Surprise recog test,2023.1.3,60.0080170762405,
121,0,121,0,,,,,,,,,,,,,,,,,,,,,,,,,,,,,,,,,,555.4140644000145,556.4301321000094,553.6403227000264,553.6403227000264,553.6403227000264,553.6403227000264,old_stationery_40.png,122,1.0,1.7764259999385104,,,035,01,2025-01-14_16h30.49.422,Surprise recog test,2023.1.3,60.0080170762405,
122,0,122,0,,,,,,,,,,,,,,,,,,,,,,,,,,,,,,,,,,558.6382703999989,559.6690909999888,556.4301321000094,556.4301321000094,556.4301321000094,556.4301321000094,old_sceneOut_13.png,123,5.0,2.2068980999756604,,,035,01,2025-01-14_16h30.49.422,Surprise recog test,2023.1.3,60.0080170762405,
123,0,123,0,,,,,,,,,,,,,,,,,,,,,,,,,,,,,,,,,,562.0727562999818,,559.6690909999888,559.6690909999888,559.6690909999888,559.6690909999888,old_sceneIn_40.png,124,4.0,2.4043626999482512,,,035,01,2025-01-14_16h30.49.422,Surprise recog test,2023.1.3,60.0080170762405,
124,0,124,0,,,,,,,,,,,,,,,,,,,,,,,,,,,,,,,,,,566.7601234000176,,563.0936037000502,563.0936037000502,563.0936037000502,563.0936037000502,new_sceneOut_6.png,125,4.0,3.6615279999095947,,,035,01,2025-01-14_16h30.49.422,Surprise recog test,2023.1.3,60.0080170762405,
125,0,125,0,,,,,,,,,,,,,,,,,,,,,,,,,,,,,,,,,,570.5160475999583,571.5466378000565,567.7809319000226,567.7809319000226,567.7809319000226,567.7809319000226,old_fruit_45.png,126,1.0,2.727587900008075,,,035,01,2025-01-14_16h30.49.422,Surprise recog test,2023.1.3,60.0080170762405,
126,0,126,0,,,,,,,,,,,,,,,,,,,,,,,,,,,,,,,,,,574.6374506000429,575.6664171000011,571.5466378000565,571.5466378000565,571.5466378000565,571.5466378000565,new_sceneIn_11.png,127,4.0,3.093588800053112,,,035,01,2025-01-14_16h30.49.422,Surprise recog test,2023.1.3,60.0080170762405,
127,0,127,0,,,,,,,,,,,,,,,,,,,,,,,,,,,,,,,,,,579.5602074000053,580.5891769999871,575.6664171000011,575.6664171000011,575.6664171000011,575.6664171000011,old_sceneOut_7.png,128,3.0,3.895431200042367,,,035,01,2025-01-14_16h30.49.422,Surprise recog test,2023.1.3,60.0080170762405,
128,0,128,0,,,,,,,,,,,,,,,,,,,,,,,,,,,,,,,,,,583.722983899992,,580.5891769999871,580.5891769999871,580.5891769999871,580.5891769999871,new_stationery_25.png,129,4.0,3.1338141000596806,,,035,01,2025-01-14_16h30.49.422,Surprise recog test,2023.1.3,60.0080170762405,
129,0,129,0,,,,,,,,,,,,,,,,,,,,,,,,,,,,,,,,,,587.0980404999573,588.1150304999901,584.7448257000651,584.7448257000651,584.7448257000651,584.7448257000651,new_fruit_7.png,130,3.0,2.340226399945095,,,035,01,2025-01-14_16h30.49.422,Surprise recog test,2023.1.3,60.0080170762405,
130,0,130,0,,,,,,,,,,,,,,,,,,,,,,,,,,,,,,,,,,592.0807297000429,,588.1150304999901,588.1150304999901,588.1150304999901,588.1150304999901,new_fruit_3.png,131,3.0,3.9591070000315085,,,035,01,2025-01-14_16h30.49.422,Surprise recog test,2023.1.3,60.0080170762405,
131,0,131,0,,,,,,,,,,,,,,,,,,,,,,,,,,,,,,,,,,595.7032097000629,596.733231500024,593.1112910000375,593.1112910000375,593.1112910000375,593.1112910000375,new_sceneOut_40.png,132,4.0,2.5957193999784067,,,035,01,2025-01-14_16h30.49.422,Surprise recog test,2023.1.3,60.0080170762405,
132,0,132,0,,,,,,,,,,,,,,,,,,,,,,,,,,,,,,,,,,599.2942267999751,600.3052659999812,596.733231500024,596.733231500024,596.733231500024,596.733231500024,new_sceneIn_14.png,133,4.0,2.5625394999515265,,,035,01,2025-01-14_16h30.49.422,Surprise recog test,2023.1.3,60.0080170762405,
133,0,133,0,,,,,,,,,,,,,,,,,,,,,,,,,,,,,,,,,,602.1580038999673,603.1878484999761,600.3052659999812,600.3052659999812,600.3052659999812,600.3052659999812,old_stationery_26.png,134,1.0,1.8485287999501452,,,035,01,2025-01-14_16h30.49.422,Surprise recog test,2023.1.3,60.0080170762405,
134,0,134,0,,,,,,,,,,,,,,,,,,,,,,,,,,,,,,,,,,604.9362810000312,605.9607413000194,603.1878484999761,603.1878484999761,603.1878484999761,603.1878484999761,old_stationery_8.png,135,2.0,1.748871700023301,,,035,01,2025-01-14_16h30.49.422,Surprise recog test,2023.1.3,60.0080170762405,
135,0,135,0,,,,,,,,,,,,,,,,,,,,,,,,,,,,,,,,,,608.5248346000444,609.5295328999637,605.9607413000194,605.9607413000194,605.9607413000194,605.9607413000194,old_sceneIn_36.png,136,4.0,2.5617481999797747,,,035,01,2025-01-14_16h30.49.422,Surprise recog test,2023.1.3,60.0080170762405,
136,0,136,0,,,,,,,,,,,,,,,,,,,,,,,,,,,,,,,,,,611.1228091999656,612.1407870999537,609.5295328999637,609.5295328999637,609.5295328999637,609.5295328999637,new_fruit_36.png,137,3.0,1.5889271000633016,,,035,01,2025-01-14_16h30.49.422,Surprise recog test,2023.1.3,60.0080170762405,
137,0,137,0,,,,,,,,,,,,,,,,,,,,,,,,,,,,,,,,,,614.9771111999871,615.9912167000584,612.1407870999537,612.1407870999537,612.1407870999537,612.1407870999537,old_fruit_37.png,138,4.0,2.829420700087212,,,035,01,2025-01-14_16h30.49.422,Surprise recog test,2023.1.3,60.0080170762405,
138,0,138,0,,,,,,,,,,,,,,,,,,,,,,,,,,,,,,,,,,617.7862351000076,,615.9912167000584,615.9912167000584,615.9912167000584,615.9912167000584,old_stationery_9.png,139,1.0,1.7905714999651536,,,035,01,2025-01-14_16h30.49.422,Surprise recog test,2023.1.3,60.0080170762405,
139,0,139,0,,,,,,,,,,,,,,,,,,,,,,,,,,,,,,,,,,621.1854393000249,622.2053703999845,618.8194226999767,618.8194226999767,618.8194226999767,618.8194226999767,old_fruit_4.png,140,2.0,2.366465699975379,,,035,01,2025-01-14_16h30.49.422,Surprise recog test,2023.1.3,60.0080170762405,
140,0,140,0,,,,,,,,,,,,,,,,,,,,,,,,,,,,,,,,,,624.5549796000123,625.57810230006,622.2053703999845,622.2053703999845,622.2053703999845,622.2053703999845,old_sceneIn_29.png,141,5.0,2.344811600050889,,,035,01,2025-01-14_16h30.49.422,Surprise recog test,2023.1.3,60.0080170762405,
141,0,141,0,,,,,,,,,,,,,,,,,,,,,,,,,,,,,,,,,,627.6629639000166,628.6892948000459,625.57810230006,625.57810230006,625.57810230006,625.57810230006,old_stationery_34.png,142,2.0,2.0883896000450477,,,035,01,2025-01-14_16h30.49.422,Surprise recog test,2023.1.3,60.0080170762405,
142,0,142,0,,,,,,,,,,,,,,,,,,,,,,,,,,,,,,,,,,632.6875463000033,633.7151026000502,628.6892948000459,628.6892948000459,628.6892948000459,628.6892948000459,new_fruit_26.png,143,3.0,3.9987084000604227,,,035,01,2025-01-14_16h30.49.422,Surprise recog test,2023.1.3,60.0080170762405,
143,0,143,0,,,,,,,,,,,,,,,,,,,,,,,,,,,,,,,,,,637.7522067000391,,633.7151026000502,633.7151026000502,633.7151026000502,633.7151026000502,new_sceneOut_1.png,144,4.0,4.0391806999687105,,,035,01,2025-01-14_16h30.49.422,Surprise recog test,2023.1.3,60.0080170762405,
144,0,144,0,,,,,,,,,,,,,,,,,,,,,,,,,,,,,,,,,,641.7247580999974,642.7499666999793,638.7853931999998,638.7853931999998,638.7853931999998,638.7853931999998,old_stationery_2.png,145,2.0,2.941325300023891,,,035,01,2025-01-14_16h30.49.422,Surprise recog test,2023.1.3,60.0080170762405,
145,0,145,0,,,,,,,,,,,,,,,,,,,,,,,,,,,,,,,,,,645.5818850999931,646.5973851999734,642.7499666999793,642.7499666999793,642.7499666999793,642.7499666999793,old_fruit_18.png,146,3.0,2.8324520000023767,,,035,01,2025-01-14_16h30.49.422,Surprise recog test,2023.1.3,60.0080170762405,
146,0,146,0,,,,,,,,,,,,,,,,,,,,,,,,,,,,,,,,,,650.7345721999882,651.7655790999997,646.5973851999734,646.5973851999734,646.5973851999734,646.5973851999734,new_fruit_23.png,147,3.0,4.129878000007011,,,035,01,2025-01-14_16h30.49.422,Surprise recog test,2023.1.3,60.0080170762405,
147,0,147,0,,,,,,,,,,,,,,,,,,,,,,,,,,,,,,,,,,653.8231087999884,654.8458283999935,651.7655790999997,651.7655790999997,651.7655790999997,651.7655790999997,old_sceneOut_14.png,148,5.0,2.0603214000584558,,,035,01,2025-01-14_16h30.49.422,Surprise recog test,2023.1.3,60.0080170762405,
148,0,148,0,,,,,,,,,,,,,,,,,,,,,,,,,,,,,,,,,,656.8484891999979,657.8570549000287,654.8458283999935,654.8458283999935,654.8458283999935,654.8458283999935,old_sceneOut_8.png,149,5.0,1.9997025000629947,,,035,01,2025-01-14_16h30.49.422,Surprise recog test,2023.1.3,60.0080170762405,
149,0,149,0,,,,,,,,,,,,,,,,,,,,,,,,,,,,,,,,,,659.6174444999779,660.6252215000568,657.8570549000287,657.8570549000287,657.8570549000287,657.8570549000287,new_fruit_37.png,150,3.0,1.7493695999728516,,,035,01,2025-01-14_16h30.49.422,Surprise recog test,2023.1.3,60.0080170762405,
150,0,150,0,,,,,,,,,,,,,,,,,,,,,,,,,,,,,,,,,,662.8279718999984,663.8496596000623,660.6252215000568,660.6252215000568,660.6252215000568,660.6252215000568,old_sceneOut_29.png,151,4.0,2.1982480000006035,,,035,01,2025-01-14_16h30.49.422,Surprise recog test,2023.1.3,60.0080170762405,
151,0,151,0,,,,,,,,,,,,,,,,,,,,,,,,,,,,,,,,,,666.501422900008,667.51503400004,663.8496596000623,663.8496596000623,663.8496596000623,663.8496596000623,new_sceneIn_47.png,152,4.0,2.6526117000030354,,,035,01,2025-01-14_16h30.49.422,Surprise recog test,2023.1.3,60.0080170762405,
152,0,152,0,,,,,,,,,,,,,,,,,,,,,,,,,,,,,,,,,,670.6281160999788,671.6412071000086,667.51503400004,667.51503400004,667.51503400004,667.51503400004,old_fruit_32.png,153,3.0,3.1084055000683293,,,035,01,2025-01-14_16h30.49.422,Surprise recog test,2023.1.3,60.0080170762405,
153,0,153,0,,,,,,,,,,,,,,,,,,,,,,,,,,,,,,,,,,673.4189201999689,674.4369134999579,671.6412071000086,671.6412071000086,671.6412071000086,671.6412071000086,old_fruit_13.png,154,1.0,1.7779697000514716,,,035,01,2025-01-14_16h30.49.422,Surprise recog test,2023.1.3,60.0080170762405,
154,0,154,0,,,,,,,,,,,,,,,,,,,,,,,,,,,,,,,,,,677.9914404000156,679.0190899999579,674.4369134999579,674.4369134999579,674.4369134999579,674.4369134999579,new_sceneOut_35.png,155,4.0,3.5465927000623196,,,035,01,2025-01-14_16h30.49.422,Surprise recog test,2023.1.3,60.0080170762405,
155,0,155,0,,,,,,,,,,,,,,,,,,,,,,,,,,,,,,,,,,683.2928033999633,684.3189629999688,679.0190899999579,679.0190899999579,679.0190899999579,679.0190899999579,old_sceneIn_16.png,156,2.0,4.274281400023028,,,035,01,2025-01-14_16h30.49.422,Surprise recog test,2023.1.3,60.0080170762405,
156,0,156,0,,,,,,,,,,,,,,,,,,,,,,,,,,,,,,,,,,688.1493067999836,689.1780100000324,684.3189629999688,684.3189629999688,684.3189629999688,684.3189629999688,new_stationery_8.png,157,5.0,3.829577700002119,,,035,01,2025-01-14_16h30.49.422,Surprise recog test,2023.1.3,60.0080170762405,
157,0,157,0,,,,,,,,,,,,,,,,,,,,,,,,,,,,,,,,,,690.6580994999968,691.6775529000442,689.1780100000324,689.1780100000324,689.1780100000324,689.1780100000324,new_fruit_14.png,158,3.0,1.4807500999886543,,,035,01,2025-01-14_16h30.49.422,Surprise recog test,2023.1.3,60.0080170762405,
158,0,158,0,,,,,,,,,,,,,,,,,,,,,,,,,,,,,,,,,,695.8174079000019,,691.6775529000442,691.6775529000442,691.6775529000442,691.6775529000442,new_stationery_9.png,159,3.0,4.141573500004597,,,035,01,2025-01-14_16h30.49.422,Surprise recog test,2023.1.3,60.0080170762405,
159,0,159,0,,,,,,,,,,,,,,,,,,,,,,,,,,,,,,,,,,699.3410717999795,700.3685491000069,696.8573828999652,696.8573828999652,696.8573828999652,696.8573828999652,old_fruit_7.png,160,2.0,2.4879821001086384,,,035,01,2025-01-14_16h30.49.422,Surprise recog test,2023.1.3,60.0080170762405,
160,0,160,0,,,,,,,,,,,,,,,,,,,,,,,,,,,,,,,,,,703.832040600013,704.8616846000077,700.3685491000069,700.3685491000069,700.3685491000069,700.3685491000069,old_sceneOut_20.png,161,3.0,3.465434599900618,,,035,01,2025-01-14_16h30.49.422,Surprise recog test,2023.1.3,60.0080170762405,
161,0,161,0,,,,,,,,,,,,,,,,,,,,,,,,,,,,,,,,,,707.4090842000442,708.430283499998,704.8616846000077,704.8616846000077,704.8616846000077,704.8616846000077,new_sceneOut_16.png,162,4.0,2.550959699903615,,,035,01,2025-01-14_16h30.49.422,Surprise recog test,2023.1.3,60.0080170762405,
162,0,162,0,,,,,,,,,,,,,,,,,,,,,,,,,,,,,,,,,,710.849313499988,711.8797412000131,708.430283499998,708.430283499998,708.430283499998,708.430283499998,new_sceneIn_38.png,163,4.0,2.418991799931973,,,035,01,2025-01-14_16h30.49.422,Surprise recog test,2023.1.3,60.0080170762405,
163,0,163,0,,,,,,,,,,,,,,,,,,,,,,,,,,,,,,,,,,714.7133102000225,715.7412307000486,711.8797412000131,711.8797412000131,711.8797412000131,711.8797412000131,new_stationery_22.png,164,3.0,2.82959989993833,,,035,01,2025-01-14_16h30.49.422,Surprise recog test,2023.1.3,60.0080170762405,
164,0,164,0,,,,,,,,,,,,,,,,,,,,,,,,,,,,,,,,,,719.5446926000295,720.5708826000337,715.7412307000486,715.7412307000486,715.7412307000486,715.7412307000486,new_fruit_6.png,165,3.0,3.805310400086455,,,035,01,2025-01-14_16h30.49.422,Surprise recog test,2023.1.3,60.0080170762405,
165,0,165,0,,,,,,,,,,,,,,,,,,,,,,,,,,,,,,,,,,722.7782041999744,723.79156589997,720.5708826000337,720.5708826000337,720.5708826000337,720.5708826000337,old_fruit_44.png,166,3.0,2.2073535000672564,,,035,01,2025-01-14_16h30.49.422,Surprise recog test,2023.1.3,60.0080170762405,
166,0,166,0,,,,,,,,,,,,,,,,,,,,,,,,,,,,,,,,,,726.3796580999624,727.4024003000231,723.79156589997,723.79156589997,723.79156589997,723.79156589997,old_fruit_43.png,167,4.0,2.58374469995033,,,035,01,2025-01-14_16h30.49.422,Surprise recog test,2023.1.3,60.0080170762405,
167,0,167,0,,,,,,,,,,,,,,,,,,,,,,,,,,,,,,,,,,730.1263246999588,731.1317620000336,727.4024003000231,727.4024003000231,727.4024003000231,727.4024003000231,old_fruit_25.png,168,3.0,2.7191015999997035,,,035,01,2025-01-14_16h30.49.422,Surprise recog test,2023.1.3,60.0080170762405,
168,0,168,0,,,,,,,,,,,,,,,,,,,,,,,,,,,,,,,,,,733.7625880000414,734.7901948000072,731.1317620000336,731.1317620000336,731.1317620000336,731.1317620000336,new_sceneOut_14.png,169,4.0,2.6244545999215916,,,035,01,2025-01-14_16h30.49.422,Surprise recog test,2023.1.3,60.0080170762405,
169,0,169,0,,,,,,,,,,,,,,,,,,,,,,,,,,,,,,,,,,737.7157365999883,738.7350269999588,734.7901948000072,734.7901948000072,734.7901948000072,734.7901948000072,old_fruit_2.png,170,3.0,2.9250486999517307,,,035,01,2025-01-14_16h30.49.422,Surprise recog test,2023.1.3,60.0080170762405,
170,0,170,0,,,,,,,,,,,,,,,,,,,,,,,,,,,,,,,,,,741.5007605999708,742.5200695999665,738.7350269999588,738.7350269999588,738.7350269999588,738.7350269999588,new_fruit_33.png,171,4.0,2.765890899929218,,,035,01,2025-01-14_16h30.49.422,Surprise recog test,2023.1.3,60.0080170762405,
171,0,171,0,,,,,,,,,,,,,,,,,,,,,,,,,,,,,,,,,,745.4391575000482,746.4468025000533,742.5200695999665,742.5200695999665,742.5200695999665,742.5200695999665,old_stationery_10.png,172,3.0,2.9201669000322,,,035,01,2025-01-14_16h30.49.422,Surprise recog test,2023.1.3,60.0080170762405,
172,0,172,0,,,,,,,,,,,,,,,,,,,,,,,,,,,,,,,,,,748.5630922999699,749.5957624999573,746.4468025000533,746.4468025000533,746.4468025000533,746.4468025000533,new_sceneIn_40.png,173,5.0,2.1113870000699535,,,035,01,2025-01-14_16h30.49.422,Surprise recog test,2023.1.3,60.0080170762405,
173,0,173,0,,,,,,,,,,,,,,,,,,,,,,,,,,,,,,,,,,751.4020828000503,752.4305794000393,749.5957624999573,749.5957624999573,749.5957624999573,749.5957624999573,old_stationery_3.png,174,1.0,1.8053604000015184,,,035,01,2025-01-14_16h30.49.422,Surprise recog test,2023.1.3,60.0080170762405,
174,0,174,0,,,,,,,,,,,,,,,,,,,,,,,,,,,,,,,,,,754.5533635000465,755.5754906999646,752.4305794000393,752.4305794000393,752.4305794000393,752.4305794000393,old_sceneOut_47.png,175,5.0,2.1249949999619275,,,035,01,2025-01-14_16h30.49.422,Surprise recog test,2023.1.3,60.0080170762405,
175,0,175,0,,,,,,,,,,,,,,,,,,,,,,,,,,,,,,,,,,759.0101279000519,760.0212692000205,755.5754906999646,755.5754906999646,755.5754906999646,755.5754906999646,old_sceneOut_6.png,176,3.0,3.434186900034547,,,035,01,2025-01-14_16h30.49.422,Surprise recog test,2023.1.3,60.0080170762405,
176,0,176,0,,,,,,,,,,,,,,,,,,,,,,,,,,,,,,,,,,762.9971292000264,764.0240508000134,760.0212692000205,760.0212692000205,760.0212692000205,760.0212692000205,new_stationery_27.png,177,3.0,2.971739000058733,,,035,01,2025-01-14_16h30.49.422,Surprise recog test,2023.1.3,60.0080170762405,
177,0,177,0,,,,,,,,,,,,,,,,,,,,,,,,,,,,,,,,,,766.9075121000642,767.9273087000474,764.0240508000134,764.0240508000134,764.0240508000134,764.0240508000134,new_stationery_50.png,178,4.0,2.8859384999377653,,,035,01,2025-01-14_16h30.49.422,Surprise recog test,2023.1.3,60.0080170762405,
178,0,178,0,,,,,,,,,,,,,,,,,,,,,,,,,,,,,,,,,,771.1507774000056,772.1771828000201,767.9273087000474,767.9273087000474,767.9273087000474,767.9273087000474,old_sceneIn_10.png,179,3.0,3.2246346999891102,,,035,01,2025-01-14_16h30.49.422,Surprise recog test,2023.1.3,60.0080170762405,
179,0,179,0,,,,,,,,,,,,,,,,,,,,,,,,,,,,,,,,,,775.7576286999974,776.7780952999601,772.1771828000201,772.1771828000201,772.1771828000201,772.1771828000201,old_sceneIn_31.png,180,2.0,3.5837452999548987,,,035,01,2025-01-14_16h30.49.422,Surprise recog test,2023.1.3,60.0080170762405,
180,0,180,0,,,,,,,,,,,,,,,,,,,,,,,,,,,,,,,,,,778.8333480999572,779.8452274999581,776.7780952999601,776.7780952999601,776.7780952999601,776.7780952999601,old_stationery_6.png,181,3.0,2.044601999921724,,,035,01,2025-01-14_16h30.49.422,Surprise recog test,2023.1.3,60.0080170762405,
181,0,181,0,,,,,,,,,,,,,,,,,,,,,,,,,,,,,,,,,,783.6347035999643,784.6503456999781,779.8452274999581,779.8452274999581,779.8452274999581,779.8452274999581,new_fruit_8.png,182,3.0,3.7899353000102565,,,035,01,2025-01-14_16h30.49.422,Surprise recog test,2023.1.3,60.0080170762405,
182,0,182,0,,,,,,,,,,,,,,,,,,,,,,,,,,,,,,,,,,787.3990053000161,788.4207059000619,784.6503456999781,784.6503456999781,784.6503456999781,784.6503456999781,old_fruit_14.png,183,2.0,2.749373900005594,,,035,01,2025-01-14_16h30.49.422,Surprise recog test,2023.1.3,60.0080170762405,
183,0,183,0,,,,,,,,,,,,,,,,,,,,,,,,,,,,,,,,,,790.4030120000243,791.430557899992,788.4207059000619,788.4207059000619,788.4207059000619,788.4207059000619,old_stationery_18.png,184,1.0,1.9830156000098214,,,035,01,2025-01-14_16h30.49.422,Surprise recog test,2023.1.3,60.0080170762405,
184,0,184,0,,,,,,,,,,,,,,,,,,,,,,,,,,,,,,,,,,794.4842283000471,,791.430557899992,791.430557899992,791.430557899992,791.430557899992,old_sceneIn_17.png,185,3.0,3.054426299990155,,,035,01,2025-01-14_16h30.49.422,Surprise recog test,2023.1.3,60.0080170762405,
185,0,185,0,,,,,,,,,,,,,,,,,,,,,,,,,,,,,,,,,,796.9879177999683,798.0127210000064,795.5127499999944,795.5127499999944,795.5127499999944,795.5127499999944,new_fruit_49.png,186,3.0,1.4761511000106111,,,035,01,2025-01-14_16h30.49.422,Surprise recog test,2023.1.3,60.0080170762405,
186,0,186,0,,,,,,,,,,,,,,,,,,,,,,,,,,,,,,,,,,800.8573204999557,801.8871880000224,798.0127210000064,798.0127210000064,798.0127210000064,798.0127210000064,old_fruit_49.png,187,3.0,2.8434011000208557,,,035,01,2025-01-14_16h30.49.422,Surprise recog test,2023.1.3,60.0080170762405,
187,0,187,0,,,,,,,,,,,,,,,,,,,,,,,,,,,,,,,,,,804.828289099969,805.8464983999729,801.8871880000224,801.8871880000224,801.8871880000224,801.8871880000224,old_sceneOut_41.png,188,5.0,2.942193299997598,,,035,01,2025-01-14_16h30.49.422,Surprise recog test,2023.1.3,60.0080170762405,
188,0,188,0,,,,,,,,,,,,,,,,,,,,,,,,,,,,,,,,,,809.6423093000194,810.6546645000344,805.8464983999729,805.8464983999729,805.8464983999729,805.8464983999729,new_stationery_20.png,189,4.0,3.785460500046611,,,035,01,2025-01-14_16h30.49.422,Surprise recog test,2023.1.3,60.0080170762405,
189,0,189,0,,,,,,,,,,,,,,,,,,,,,,,,,,,,,,,,,,813.4557346999645,814.4826205000281,810.6546645000344,810.6546645000344,810.6546645000344,810.6546645000344,new_sceneOut_24.png,190,3.0,2.8006395999109372,,,035,01,2025-01-14_16h30.49.422,Surprise recog test,2023.1.3,60.0080170762405,
190,0,190,0,,,,,,,,,,,,,,,,,,,,,,,,,,,,,,,,,,817.4313071999932,818.4398603000445,814.4826205000281,814.4826205000281,814.4826205000281,814.4826205000281,old_fruit_33.png,191,3.0,2.95051690004766,,,035,01,2025-01-14_16h30.49.422,Surprise recog test,2023.1.3,60.0080170762405,
191,0,191,0,,,,,,,,,,,,,,,,,,,,,,,,,,,,,,,,,,822.486330899992,823.5151394000277,818.4398603000445,818.4398603000445,818.4398603000445,818.4398603000445,new_sceneOut_49.png,192,3.0,4.036773000028916,,,035,01,2025-01-14_16h30.49.422,Surprise recog test,2023.1.3,60.0080170762405,
192,0,192,0,,,,,,,,,,,,,,,,,,,,,,,,,,,,,,,,,,826.0743730999529,827.0937876000535,823.5151394000277,823.5151394000277,823.5151394000277,823.5151394000277,old_sceneOut_1.png,193,5.0,2.560885699931532,,,035,01,2025-01-14_16h30.49.422,Surprise recog test,2023.1.3,60.0080170762405,
193,0,193,0,,,,,,,,,,,,,,,,,,,,,,,,,,,,,,,,,,829.4672416000394,830.4841681000544,827.0937876000535,827.0937876000535,827.0937876000535,827.0937876000535,new_fruit_38.png,194,4.0,2.372957299929112,,,035,01,2025-01-14_16h30.49.422,Surprise recog test,2023.1.3,60.0080170762405,
194,0,194,0,,,,,,,,,,,,,,,,,,,,,,,,,,,,,,,,,,833.8076097000157,834.831801500055,830.4841681000544,830.4841681000544,830.4841681000544,830.4841681000544,old_fruit_39.png,195,3.0,3.319162999978289,,,035,01,2025-01-14_16h30.49.422,Surprise recog test,2023.1.3,60.0080170762405,
195,0,195,0,,,,,,,,,,,,,,,,,,,,,,,,,,,,,,,,,,838.7449273000238,839.7690337999957,834.831801500055,834.831801500055,834.831801500055,834.831801500055,old_sceneIn_46.png,196,4.0,3.9135223000776023,,,035,01,2025-01-14_16h30.49.422,Surprise recog test,2023.1.3,60.0080170762405,
196,0,196,0,,,,,,,,,,,,,,,,,,,,,,,,,,,,,,,,,,843.3601178999525,844.3905447999714,839.7690337999957,839.7690337999957,839.7690337999957,839.7690337999957,new_fruit_12.png,197,3.0,3.592959100031294,,,035,01,2025-01-14_16h30.49.422,Surprise recog test,2023.1.3,60.0080170762405,
197,0,197,0,,,,,,,,,,,,,,,,,,,,,,,,,,,,,,,,,,847.1156679999549,848.1453638999956,844.3905447999714,844.3905447999714,844.3905447999714,844.3905447999714,old_sceneOut_33.png,198,5.0,2.726815599948168,,,035,01,2025-01-14_16h30.49.422,Surprise recog test,2023.1.3,60.0080170762405,
198,0,198,0,,,,,,,,,,,,,,,,,,,,,,,,,,,,,,,,,,851.4990136000561,852.5323445000686,848.1453638999956,848.1453638999956,848.1453638999956,848.1453638999956,new_sceneIn_22.png,199,4.0,3.355835200054571,,,035,01,2025-01-14_16h30.49.422,Surprise recog test,2023.1.3,60.0080170762405,
199,0,199,0,,,,,,,,,,,,,,,,,,,,,,,,,,,,,,,,,,856.1567285000347,857.1726965999696,852.5323445000686,852.5323445000686,852.5323445000686,852.5323445000686,new_sceneIn_35.png,200,4.0,3.626676500076428,,,035,01,2025-01-14_16h30.49.422,Surprise recog test,2023.1.3,60.0080170762405,
200,0,200,0,,,,,,,,,,,,,,,,,,,,,,,,,,,,,,,,,,859.1056650000392,860.126616399968,857.1726965999696,857.1726965999696,857.1726965999696,857.1726965999696,old_stationery_35.png,201,1.0,1.9270646999357268,,,035,01,2025-01-14_16h30.49.422,Surprise recog test,2023.1.3,60.0080170762405,
201,0,201,0,,,,,,,,,,,,,,,,,,,,,,,,,,,,,,,,,,862.4520257000113,863.4677967999596,860.126616399968,860.126616399968,860.126616399968,860.126616399968,old_fruit_42.png,202,3.0,2.320074300048873,,,035,01,2025-01-14_16h30.49.422,Surprise recog test,2023.1.3,60.0080170762405,
202,0,202,0,,,,,,,,,,,,,,,,,,,,,,,,,,,,,,,,,,865.636559400009,866.659191600047,863.4677967999596,863.4677967999596,863.4677967999596,863.4677967999596,new_sceneOut_13.png,203,5.0,2.164520199992694,,,035,01,2025-01-14_16h30.49.422,Surprise recog test,2023.1.3,60.0080170762405,
203,0,203,0,,,,,,,,,,,,,,,,,,,,,,,,,,,,,,,,,,871.4739642000059,872.495379799977,866.659191600047,866.659191600047,866.659191600047,866.659191600047,old_sceneIn_7.png,204,4.0,4.816832200041972,,,035,01,2025-01-14_16h30.49.422,Surprise recog test,2023.1.3,60.0080170762405,
204,0,204,0,,,,,,,,,,,,,,,,,,,,,,,,,,,,,,,,,,875.0382831000024,876.0664482000284,872.495379799977,872.495379799977,872.495379799977,872.495379799977,old_sceneOut_37.png,205,5.0,2.543080599978566,,,035,01,2025-01-14_16h30.49.422,Surprise recog test,2023.1.3,60.0080170762405,
205,0,205,0,,,,,,,,,,,,,,,,,,,,,,,,,,,,,,,,,,877.8287958999863,878.8548957000021,876.0664482000284,876.0664482000284,876.0664482000284,876.0664482000284,old_sceneIn_37.png,206,5.0,1.7633356000296772,,,035,01,2025-01-14_16h30.49.422,Surprise recog test,2023.1.3,60.0080170762405,
206,0,206,0,,,,,,,,,,,,,,,,,,,,,,,,,,,,,,,,,,881.6358450000407,882.6574948000489,878.8548957000021,878.8548957000021,878.8548957000021,878.8548957000021,new_sceneIn_32.png,207,5.0,2.783750499947928,,,035,01,2025-01-14_16h30.49.422,Surprise recog test,2023.1.3,60.0080170762405,
207,0,207,0,,,,,,,,,,,,,,,,,,,,,,,,,,,,,,,,,,884.646448399988,885.66991279996,882.6574948000489,882.6574948000489,882.6574948000489,882.6574948000489,old_stationery_41.png,208,3.0,1.9902653000317514,,,035,01,2025-01-14_16h30.49.422,Surprise recog test,2023.1.3,60.0080170762405,
208,0,208,0,,,,,,,,,,,,,,,,,,,,,,,,,,,,,,,,,,888.3912095000269,889.4137516999617,885.66991279996,885.66991279996,885.66991279996,885.66991279996,old_fruit_5.png,209,3.0,2.7161031999858096,,,035,01,2025-01-14_16h30.49.422,Surprise recog test,2023.1.3,60.0080170762405,
209,0,209,0,,,,,,,,,,,,,,,,,,,,,,,,,,,,,,,,,,893.6081528000068,894.6320415000664,889.4137516999617,889.4137516999617,889.4137516999617,889.4137516999617,old_fruit_46.png,210,3.0,4.196415200014599,,,035,01,2025-01-14_16h30.49.422,Surprise recog test,2023.1.3,60.0080170762405,
210,0,210,0,,,,,,,,,,,,,,,,,,,,,,,,,,,,,,,,,,896.8749199999729,897.8902544999728,894.6320415000664,894.6320415000664,894.6320415000664,894.6320415000664,new_sceneOut_39.png,211,5.0,2.244080899981782,,,035,01,2025-01-14_16h30.49.422,Surprise recog test,2023.1.3,60.0080170762405,
211,0,211,0,,,,,,,,,,,,,,,,,,,,,,,,,,,,,,,,,,900.5346489000367,901.5429834000533,897.8902544999728,897.8902544999728,897.8902544999728,897.8902544999728,old_fruit_3.png,212,1.0,2.6392437999602407,,,035,01,2025-01-14_16h30.49.422,Surprise recog test,2023.1.3,60.0080170762405,
212,0,212,0,,,,,,,,,,,,,,,,,,,,,,,,,,,,,,,,,,905.7345192000503,906.7610423000297,901.5429834000533,901.5429834000533,901.5429834000533,901.5429834000533,new_sceneOut_19.png,213,4.0,4.185772299999371,,,035,01,2025-01-14_16h30.49.422,Surprise recog test,2023.1.3,60.0080170762405,
213,0,213,0,,,,,,,,,,,,,,,,,,,,,,,,,,,,,,,,,,910.3931028000079,911.4158551000291,906.7610423000297,906.7610423000297,906.7610423000297,906.7610423000297,new_stationery_11.png,214,3.0,3.632422599941492,,,035,01,2025-01-14_16h30.49.422,Surprise recog test,2023.1.3,60.0080170762405,
214,0,214,0,,,,,,,,,,,,,,,,,,,,,,,,,,,,,,,,,,914.8299402999692,915.8383838000009,911.4158551000291,911.4158551000291,911.4158551000291,911.4158551000291,old_fruit_34.png,215,4.0,3.4117477000690997,,,035,01,2025-01-14_16h30.49.422,Surprise recog test,2023.1.3,60.0080170762405,
215,0,215,0,,,,,,,,,,,,,,,,,,,,,,,,,,,,,,,,,,918.1306632000487,919.1533510000445,915.8383838000009,915.8383838000009,915.8383838000009,915.8383838000009,new_sceneIn_34.png,216,5.0,2.28765359998215,,,035,01,2025-01-14_16h30.49.422,Surprise recog test,2023.1.3,60.0080170762405,
216,0,216,0,,,,,,,,,,,,,,,,,,,,,,,,,,,,,,,,,,921.2210746000055,,919.1533510000445,919.1533510000445,919.1533510000445,919.1533510000445,old_sceneOut_44.png,217,5.0,2.068626399966888,,,035,01,2025-01-14_16h30.49.422,Surprise recog test,2023.1.3,60.0080170762405,
217,0,217,0,,,,,,,,,,,,,,,,,,,,,,,,,,,,,,,,,,925.3853657,926.3976322000381,922.2428958000382,922.2428958000382,922.2428958000382,922.2428958000382,old_fruit_41.png,218,4.0,3.1382294999202713,,,035,01,2025-01-14_16h30.49.422,Surprise recog test,2023.1.3,60.0080170762405,
218,0,218,0,,,,,,,,,,,,,,,,,,,,,,,,,,,,,,,,,,930.1300599999959,,926.3976322000381,926.3976322000381,926.3976322000381,926.3976322000381,old_sceneIn_3.png,219,4.0,3.7274389000376686,,,035,01,2025-01-14_16h30.49.422,Surprise recog test,2023.1.3,60.0080170762405,
219,0,219,0,,,,,,,,,,,,,,,,,,,,,,,,,,,,,,,,,,932.9294903000118,933.9489223000128,931.1577755999751,931.1577755999751,931.1577755999751,931.1577755999751,new_sceneOut_50.png,220,5.0,1.766653599916026,,,035,01,2025-01-14_16h30.49.422,Surprise recog test,2023.1.3,60.0080170762405,
220,0,220,0,,,,,,,,,,,,,,,,,,,,,,,,,,,,,,,,,,937.7856998000061,,933.9489223000128,933.9489223000128,933.9489223000128,933.9489223000128,old_sceneIn_44.png,221,3.0,3.8364531999686733,,,035,01,2025-01-14_16h30.49.422,Surprise recog test,2023.1.3,60.0080170762405,
221,0,221,0,,,,,,,,,,,,,,,,,,,,,,,,,,,,,,,,,,942.1503970000194,943.171465100022,938.8173137999838,938.8173137999838,938.8173137999838,938.8173137999838,new_sceneIn_12.png,222,3.0,3.332542799995281,,,035,01,2025-01-14_16h30.49.422,Surprise recog test,2023.1.3,60.0080170762405,
222,0,222,0,,,,,,,,,,,,,,,,,,,,,,,,,,,,,,,,,,945.2978815999813,946.3254148999695,943.171465100022,943.171465100022,943.171465100022,943.171465100022,old_stationery_20.png,223,2.0,2.1269970000721514,,,035,01,2025-01-14_16h30.49.422,Surprise recog test,2023.1.3,60.0080170762405,
223,0,223,0,,,,,,,,,,,,,,,,,,,,,,,,,,,,,,,,,,950.3184723999584,951.342992400052,946.3254148999695,946.3254148999695,946.3254148999695,946.3254148999695,old_sceneIn_26.png,224,3.0,3.9924089999403805,,,035,01,2025-01-14_16h30.49.422,Surprise recog test,2023.1.3,60.0080170762405,
224,0,224,0,,,,,,,,,,,,,,,,,,,,,,,,,,,,,,,,,,954.7754191999556,955.7877875999548,951.342992400052,951.342992400052,951.342992400052,951.342992400052,new_stationery_36.png,225,4.0,3.433330199914053,,,035,01,2025-01-14_16h30.49.422,Surprise recog test,2023.1.3,60.0080170762405,
225,0,225,0,,,,,,,,,,,,,,,,,,,,,,,,,,,,,,,,,,957.7183158999542,,955.7877875999548,955.7877875999548,955.7877875999548,955.7877875999548,old_sceneOut_21.png,226,5.0,1.925364200025797,,,035,01,2025-01-14_16h30.49.422,Surprise recog test,2023.1.3,60.0080170762405,
226,0,226,0,,,,,,,,,,,,,,,,,,,,,,,,,,,,,,,,,,962.695006199996,963.7272958999965,958.7474331000121,958.7474331000121,958.7474331000121,958.7474331000121,new_stationery_3.png,227,3.0,3.9486648000311106,,,035,01,2025-01-14_16h30.49.422,Surprise recog test,2023.1.3,60.0080170762405,
227,0,227,0,,,,,,,,,,,,,,,,,,,,,,,,,,,,,,,,,,967.8066606000066,968.8309838999994,963.7272958999965,963.7272958999965,963.7272958999965,963.7272958999965,new_fruit_44.png,228,4.0,4.080272499937564,,,035,01,2025-01-14_16h30.49.422,Surprise recog test,2023.1.3,60.0080170762405,
228,0,228,0,,,,,,,,,,,,,,,,,,,,,,,,,,,,,,,,,,971.0099948999705,972.0180709999986,968.8309838999994,968.8309838999994,968.8309838999994,968.8309838999994,new_fruit_11.png,229,3.0,2.1722577000036836,,,035,01,2025-01-14_16h30.49.422,Surprise recog test,2023.1.3,60.0080170762405,
229,0,229,0,,,,,,,,,,,,,,,,,,,,,,,,,,,,,,,,,,974.8354821000248,975.8553718000185,972.0180709999986,972.0180709999986,972.0180709999986,972.0180709999986,new_sceneIn_46.png,230,5.0,2.810568399960175,,,035,01,2025-01-14_16h30.49.422,Surprise recog test,2023.1.3,60.0080170762405,
230,0,230,0,,,,,,,,,,,,,,,,,,,,,,,,,,,,,,,,,,978.6204369000625,,975.8553718000185,975.8553718000185,975.8553718000185,975.8553718000185,new_fruit_1.png,231,2.0,2.760716799995862,,,035,01,2025-01-14_16h30.49.422,Surprise recog test,2023.1.3,60.0080170762405,
231,0,231,0,,,,,,,,,,,,,,,,,,,,,,,,,,,,,,,,,,980.9961298999842,982.0234823999926,979.6513662000652,979.6513662000652,979.6513662000652,979.6513662000652,old_stationery_16.png,232,1.0,1.3471957999281585,,,035,01,2025-01-14_16h30.49.422,Surprise recog test,2023.1.3,60.0080170762405,
232,0,232,0,,,,,,,,,,,,,,,,,,,,,,,,,,,,,,,,,,985.9391566000413,986.957670200034,982.0234823999926,982.0234823999926,982.0234823999926,982.0234823999926,new_sceneOut_17.png,233,4.0,3.9113194999517873,,,035,01,2025-01-14_16h30.49.422,Surprise recog test,2023.1.3,60.0080170762405,
233,0,233,0,,,,,,,,,,,,,,,,,,,,,,,,,,,,,,,,,,989.5548108000075,990.57760650001,986.957670200034,986.957670200034,986.957670200034,986.957670200034,old_fruit_6.png,234,3.0,2.5979536999948323,,,035,01,2025-01-14_16h30.49.422,Surprise recog test,2023.1.3,60.0080170762405,
234,0,234,0,,,,,,,,,,,,,,,,,,,,,,,,,,,,,,,,,,993.6879134000046,994.714306000038,990.57760650001,990.57760650001,990.57760650001,990.57760650001,old_sceneOut_12.png,235,4.0,3.109489400056191,,,035,01,2025-01-14_16h30.49.422,Surprise recog test,2023.1.3,60.0080170762405,
235,0,235,0,,,,,,,,,,,,,,,,,,,,,,,,,,,,,,,,,,997.5988099999959,998.6126479000086,994.714306000038,994.714306000038,994.714306000038,994.714306000038,old_stationery_45.png,236,3.0,2.879596200073138,,,035,01,2025-01-14_16h30.49.422,Surprise recog test,2023.1.3,60.0080170762405,
236,0,236,0,,,,,,,,,,,,,,,,,,,,,,,,,,,,,,,,,,1000.1304890000029,1001.1560357999988,998.6126479000086,998.6126479000086,998.6126479000086,998.6126479000086,new_stationery_15.png,237,1.0,1.5181964999064803,,,035,01,2025-01-14_16h30.49.422,Surprise recog test,2023.1.3,60.0080170762405,
237,0,237,0,,,,,,,,,,,,,,,,,,,,,,,,,,,,,,,,,,1004.558191100019,,1001.1560357999988,1001.1560357999988,1001.1560357999988,1001.1560357999988,old_sceneOut_43.png,238,2.0,3.401575700030662,,,035,01,2025-01-14_16h30.49.422,Surprise recog test,2023.1.3,60.0080170762405,
238,0,238,0,,,,,,,,,,,,,,,,,,,,,,,,,,,,,,,,,,1007.6264363999944,,1005.593029599986,1005.593029599986,1005.593029599986,1005.593029599986,old_sceneOut_3.png,239,5.0,2.035151300020516,,,035,01,2025-01-14_16h30.49.422,Surprise recog test,2023.1.3,60.0080170762405,
239,0,239,0,,,,,,,,,,,,,,,,,,,,,,,,,,,,,,,,,,1010.8826912000077,1011.915455600014,1008.6660361000104,1008.6660361000104,1008.6660361000104,1008.6660361000104,old_fruit_22.png,240,2.0,2.2255425000330433,,,035,01,2025-01-14_16h30.49.422,Surprise recog test,2023.1.3,60.0080170762405,
240,0,240,0,,,,,,,,,,,,,,,,,,,,,,,,,,,,,,,,,,1014.3883582999697,1015.4035063000629,1011.915455600014,1011.915455600014,1011.915455600014,1011.915455600014,new_stationery_43.png,241,2.0,2.4740583999082446,,,035,01,2025-01-14_16h30.49.422,Surprise recog test,2023.1.3,60.0080170762405,
241,0,241,0,,,,,,,,,,,,,,,,,,,,,,,,,,,,,,,,,,1017.4938818999799,1018.5150366000598,1015.4035063000629,1015.4035063000629,1015.4035063000629,1015.4035063000629,old_fruit_9.png,242,4.0,2.086192599963397,,,035,01,2025-01-14_16h30.49.422,Surprise recog test,2023.1.3,60.0080170762405,
242,0,242,0,,,,,,,,,,,,,,,,,,,,,,,,,,,,,,,,,,1020.2276070000371,1021.2552409999771,1018.5150366000598,1018.5150366000598,1018.5150366000598,1018.5150366000598,new_stationery_28.png,243,3.0,1.7127482999349013,,,035,01,2025-01-14_16h30.49.422,Surprise recog test,2023.1.3,60.0080170762405,
243,0,243,0,,,,,,,,,,,,,,,,,,,,,,,,,,,,,,,,,,1025.1870347000659,1026.205748599954,1021.2552409999771,1021.2552409999771,1021.2552409999771,1021.2552409999771,new_sceneOut_46.png,244,4.0,3.9315678999992087,,,035,01,2025-01-14_16h30.49.422,Surprise recog test,2023.1.3,60.0080170762405,
244,0,244,0,,,,,,,,,,,,,,,,,,,,,,,,,,,,,,,,,,1028.1577766999835,1029.176250700024,1026.205748599954,1026.205748599954,1026.205748599954,1026.205748599954,old_fruit_19.png,245,3.0,1.9545263999607414,,,035,01,2025-01-14_16h30.49.422,Surprise recog test,2023.1.3,60.0080170762405,
245,0,245,0,,,,,,,,,,,,,,,,,,,,,,,,,,,,,,,,,,1030.9540281000081,1031.968241799972,1029.176250700024,1029.176250700024,1029.176250700024,1029.176250700024,old_stationery_46.png,246,1.0,1.7784353999886662,,,035,01,2025-01-14_16h30.49.422,Surprise recog test,2023.1.3,60.0080170762405,
246,0,246,0,,,,,,,,,,,,,,,,,,,,,,,,,,,,,,,,,,1034.883438799996,,1031.968241799972,1031.968241799972,1031.968241799972,1031.968241799972,new_stationery_37.png,247,3.0,2.9110145000740886,,,035,01,2025-01-14_16h30.49.422,Surprise recog test,2023.1.3,60.0080170762405,
247,0,247,0,,,,,,,,,,,,,,,,,,,,,,,,,,,,,,,,,,1038.2540639999788,1039.2838548000436,1035.908724399982,1035.908724399982,1035.908724399982,1035.908724399982,new_sceneOut_4.png,248,4.0,2.345003200112842,,,035,01,2025-01-14_16h30.49.422,Surprise recog test,2023.1.3,60.0080170762405,
248,0,248,0,,,,,,,,,,,,,,,,,,,,,,,,,,,,,,,,,,1041.0745733999647,1042.093196599977,1039.2838548000436,1039.2838548000436,1039.2838548000436,1039.2838548000436,old_stationery_4.png,249,2.0,1.7875063999090344,,,035,01,2025-01-14_16h30.49.422,Surprise recog test,2023.1.3,60.0080170762405,
249,0,249,0,,,,,,,,,,,,,,,,,,,,,,,,,,,,,,,,,,1043.8135482000653,1044.8363953999942,1042.093196599977,1042.093196599977,1042.093196599977,1042.093196599977,old_stationery_14.png,250,1.0,1.7133916000602767,,,035,01,2025-01-14_16h30.49.422,Surprise recog test,2023.1.3,60.0080170762405,
250,0,250,0,,,,,,,,,,,,,,,,,,,,,,,,,,,,,,,,,,1048.8653924999526,1049.9011181000387,1044.8363953999942,1044.8363953999942,1044.8363953999942,1044.8363953999942,old_sceneIn_38.png,251,4.0,4.0294166000094265,,,035,01,2025-01-14_16h30.49.422,Surprise recog test,2023.1.3,60.0080170762405,
251,0,251,0,,,,,,,,,,,,,,,,,,,,,,,,,,,,,,,,,,1053.1135187000036,1054.127210500068,1049.9011181000387,1049.9011181000387,1049.9011181000387,1049.9011181000387,old_sceneOut_30.png,252,3.0,3.213474399992265,,,035,01,2025-01-14_16h30.49.422,Surprise recog test,2023.1.3,60.0080170762405,
252,0,252,0,,,,,,,,,,,,,,,,,,,,,,,,,,,,,,,,,,1058.3590552000096,1059.3737681000493,1054.127210500068,1054.127210500068,1054.127210500068,1054.127210500068,new_stationery_19.png,253,4.0,4.228896399959922,,,035,01,2025-01-14_16h30.49.422,Surprise recog test,2023.1.3,60.0080170762405,
253,0,253,0,,,,,,,,,,,,,,,,,,,,,,,,,,,,,,,,,,1061.7733815000392,1062.8079169000266,1059.3737681000493,1059.3737681000493,1059.3737681000493,1059.3737681000493,new_sceneOut_37.png,254,5.0,2.394488299963996,,,035,01,2025-01-14_16h30.49.422,Surprise recog test,2023.1.3,60.0080170762405,
254,0,254,0,,,,,,,,,,,,,,,,,,,,,,,,,,,,,,,,,,1065.3209235999966,1066.3357639999595,1062.8079169000266,1062.8079169000266,1062.8079169000266,1062.8079169000266,old_sceneOut_35.png,255,5.0,2.516626999946311,,,035,01,2025-01-14_16h30.49.422,Surprise recog test,2023.1.3,60.0080170762405,
255,0,255,0,,,,,,,,,,,,,,,,,,,,,,,,,,,,,,,,,,1067.4238685000455,1068.449213600019,1066.3357639999595,1066.3357639999595,1066.3357639999595,1066.3357639999595,old_sceneOut_27.png,256,5.0,1.0832700999453664,,,035,01,2025-01-14_16h30.49.422,Surprise recog test,2023.1.3,60.0080170762405,
256,0,256,0,,,,,,,,,,,,,,,,,,,,,,,,,,,,,,,,,,1071.131503200042,1072.166708100005,1068.449213600019,1068.449213600019,1068.449213600019,1068.449213600019,new_fruit_18.png,257,3.0,2.6852695000125095,,,035,01,2025-01-14_16h30.49.422,Surprise recog test,2023.1.3,60.0080170762405,
257,0,257,0,,,,,,,,,,,,,,,,,,,,,,,,,,,,,,,,,,1074.3792539000278,1075.3846919999924,1072.166708100005,1072.166708100005,1072.166708100005,1072.166708100005,old_fruit_29.png,258,3.0,2.215250700013712,,,035,01,2025-01-14_16h30.49.422,Surprise recog test,2023.1.3,60.0080170762405,
258,0,258,0,,,,,,,,,,,,,,,,,,,,,,,,,,,,,,,,,,1079.0375533000333,,1075.3846919999924,1075.3846919999924,1075.3846919999924,1075.3846919999924,new_sceneOut_22.png,259,5.0,3.645655500004068,,,035,01,2025-01-14_16h30.49.422,Surprise recog test,2023.1.3,60.0080170762405,
259,0,259,0,,,,,,,,,,,,,,,,,,,,,,,,,,,,,,,,,,1082.9441269000527,1083.9602811000077,1080.057517600013,1080.057517600013,1080.057517600013,1080.057517600013,old_stationery_17.png,260,4.0,2.8827271999325603,,,035,01,2025-01-14_16h30.49.422,Surprise recog test,2023.1.3,60.0080170762405,
260,0,260,0,,,,,,,,,,,,,,,,,,,,,,,,,,,,,,,,,,1086.8349487000378,1087.860709700035,1083.9602811000077,1083.9602811000077,1083.9602811000077,1083.9602811000077,new_sceneIn_37.png,261,5.0,2.86946979991626,,,035,01,2025-01-14_16h30.49.422,Surprise recog test,2023.1.3,60.0080170762405,
261,0,261,0,,,,,,,,,,,,,,,,,,,,,,,,,,,,,,,,,,1090.579064700054,,1087.860709700035,1087.860709700035,1087.860709700035,1087.860709700035,new_sceneOut_7.png,262,5.0,2.7208990999497473,,,035,01,2025-01-14_16h30.49.422,Surprise recog test,2023.1.3,60.0080170762405,
262,0,262,0,,,,,,,,,,,,,,,,,,,,,,,,,,,,,,,,,,1092.930628500064,,1091.6137126999674,1091.6137126999674,1091.6137126999674,1091.6137126999674,new_sceneIn_6.png,263,5.0,1.3168017000425607,,,035,01,2025-01-14_16h30.49.422,Surprise recog test,2023.1.3,60.0080170762405,
263,0,263,0,,,,,,,,,,,,,,,,,,,,,,,,,,,,,,,,,,1096.5631252999883,1097.5798482999671,1093.9659440000542,1093.9659440000542,1093.9659440000542,1093.9659440000542,old_sceneOut_50.png,264,5.0,2.5973985999589786,,,035,01,2025-01-14_16h30.49.422,Surprise recog test,2023.1.3,60.0080170762405,
264,0,264,0,,,,,,,,,,,,,,,,,,,,,,,,,,,,,,,,,,1100.8433081000112,1101.87195229996,1097.5798482999671,1097.5798482999671,1097.5798482999671,1097.5798482999671,old_stationery_37.png,265,3.0,3.2606797999469563,,,035,01,2025-01-14_16h30.49.422,Surprise recog test,2023.1.3,60.0080170762405,
265,0,265,0,,,,,,,,,,,,,,,,,,,,,,,,,,,,,,,,,,1104.018709499971,1105.0351821000222,1101.87195229996,1101.87195229996,1101.87195229996,1101.87195229996,new_fruit_47.png,266,4.0,2.1462689000181854,,,035,01,2025-01-14_16h30.49.422,Surprise recog test,2023.1.3,60.0080170762405,
266,0,266,0,,,,,,,,,,,,,,,,,,,,,,,,,,,,,,,,,,1107.7227652999572,1108.728858300019,1105.0351821000222,1105.0351821000222,1105.0351821000222,1105.0351821000222,old_sceneOut_31.png,267,3.0,2.689662699936889,,,035,01,2025-01-14_16h30.49.422,Surprise recog test,2023.1.3,60.0080170762405,
267,0,267,0,,,,,,,,,,,,,,,,,,,,,,,,,,,,,,,,,,1112.0094596999697,1113.030694999965,1108.728858300019,1108.728858300019,1108.728858300019,1108.728858300019,old_sceneIn_25.png,268,4.0,3.2761592000024393,,,035,01,2025-01-14_16h30.49.422,Surprise recog test,2023.1.3,60.0080170762405,
268,0,268,0,,,,,,,,,,,,,,,,,,,,,,,,,,,,,,,,,,1115.926683000056,1116.9543852000497,1113.030694999965,1113.030694999965,1113.030694999965,1113.030694999965,old_sceneOut_40.png,269,4.0,2.8981183998985216,,,035,01,2025-01-14_16h30.49.422,Surprise recog test,2023.1.3,60.0080170762405,
269,0,269,0,,,,,,,,,,,,,,,,,,,,,,,,,,,,,,,,,,1119.48246129998,1120.5012207999825,1116.9543852000497,1116.9543852000497,1116.9543852000497,1116.9543852000497,old_fruit_27.png,270,3.0,2.527261000010185,,,035,01,2025-01-14_16h30.49.422,Surprise recog test,2023.1.3,60.0080170762405,
270,0,270,0,,,,,,,,,,,,,,,,,,,,,,,,,,,,,,,,,,1123.520004900056,1124.5279835000401,1120.5012207999825,1120.5012207999825,1120.5012207999825,1120.5012207999825,new_sceneOut_34.png,271,4.0,3.017975899972953,,,035,01,2025-01-14_16h30.49.422,Surprise recog test,2023.1.3,60.0080170762405,
271,0,271,0,,,,,,,,,,,,,,,,,,,,,,,,,,,,,,,,,,1128.4883243000368,1129.5004147000145,1124.5279835000401,1124.5279835000401,1124.5279835000401,1124.5279835000401,new_sceneIn_44.png,272,3.0,3.955954800010659,,,035,01,2025-01-14_16h30.49.422,Surprise recog test,2023.1.3,60.0080170762405,
272,0,272,0,,,,,,,,,,,,,,,,,,,,,,,,,,,,,,,,,,1133.135217400035,1134.1669012999628,1129.5004147000145,1129.5004147000145,1129.5004147000145,1129.5004147000145,old_fruit_40.png,273,4.0,3.628110900055617,,,035,01,2025-01-14_16h30.49.422,Surprise recog test,2023.1.3,60.0080170762405,
273,0,273,0,,,,,,,,,,,,,,,,,,,,,,,,,,,,,,,,,,1136.3597308000317,1137.379405100015,1134.1669012999628,1134.1669012999628,1134.1669012999628,1134.1669012999628,old_sceneOut_16.png,274,4.0,2.1951536000706255,,,035,01,2025-01-14_16h30.49.422,Surprise recog test,2023.1.3,60.0080170762405,
274,0,274,0,,,,,,,,,,,,,,,,,,,,,,,,,,,,,,,,,,1139.5729660000652,1140.5935517000034,1137.379405100015,1137.379405100015,1137.379405100015,1137.379405100015,old_sceneIn_42.png,275,4.0,2.1885868000099435,,,035,01,2025-01-14_16h30.49.422,Surprise recog test,2023.1.3,60.0080170762405,
275,0,275,0,,,,,,,,,,,,,,,,,,,,,,,,,,,,,,,,,,1143.7929291999899,1144.8123526000418,1140.5935517000034,1140.5935517000034,1140.5935517000034,1140.5935517000034,new_fruit_30.png,276,3.0,3.1959532001055777,,,035,01,2025-01-14_16h30.49.422,Surprise recog test,2023.1.3,60.0080170762405,
276,0,276,0,,,,,,,,,,,,,,,,,,,,,,,,,,,,,,,,,,1148.4587495999876,1149.47659570002,1144.8123526000418,1144.8123526000418,1144.8123526000418,1144.8123526000418,old_sceneIn_50.png,277,4.0,3.639363000052981,,,035,01,2025-01-14_16h30.49.422,Surprise recog test,2023.1.3,60.0080170762405,
277,0,277,0,,,,,,,,,,,,,,,,,,,,,,,,,,,,,,,,,,1152.2984919999726,,1149.47659570002,1149.47659570002,1149.47659570002,1149.47659570002,new_stationery_48.png,278,3.0,2.823288399958983,,,035,01,2025-01-14_16h30.49.422,Surprise recog test,2023.1.3,60.0080170762405,
278,0,278,0,,,,,,,,,,,,,,,,,,,,,,,,,,,,,,,,,,1156.4976391000673,1157.5062914000591,1153.3305936000543,1153.3305936000543,1153.3305936000543,1153.3305936000543,old_sceneOut_28.png,279,5.0,3.1675257000606507,,,035,01,2025-01-14_16h30.49.422,Surprise recog test,2023.1.3,60.0080170762405,
279,0,279,0,,,,,,,,,,,,,,,,,,,,,,,,,,,,,,,,,,1159.7475912000518,1160.7693123000208,1157.5062914000591,1157.5062914000591,1157.5062914000591,1157.5062914000591,old_sceneOut_9.png,280,5.0,2.234484800021164,,,035,01,2025-01-14_16h30.49.422,Surprise recog test,2023.1.3,60.0080170762405,
280,0,280,0,,,,,,,,,,,,,,,,,,,,,,,,,,,,,,,,,,1163.5569184999913,,1160.7693123000208,1160.7693123000208,1160.7693123000208,1160.7693123000208,new_sceneOut_44.png,281,5.0,2.787233299924992,,,035,01,2025-01-14_16h30.49.422,Surprise recog test,2023.1.3,60.0080170762405,
281,0,281,0,,,,,,,,,,,,,,,,,,,,,,,,,,,,,,,,,,1167.3038065000437,1168.3180181999924,1164.5920156000648,1164.5920156000648,1164.5920156000648,1164.5920156000648,new_sceneIn_28.png,282,1.0,2.7146794999716803,,,035,01,2025-01-14_16h30.49.422,Surprise recog test,2023.1.3,60.0080170762405,
282,0,282,0,,,,,,,,,,,,,,,,,,,,,,,,,,,,,,,,,,1170.359322500066,1171.3796682000393,1168.3180181999924,1168.3180181999924,1168.3180181999924,1168.3180181999924,old_fruit_10.png,283,3.0,2.0359020000323653,,,035,01,2025-01-14_16h30.49.422,Surprise recog test,2023.1.3,60.0080170762405,
283,0,283,0,,,,,,,,,,,,,,,,,,,,,,,,,,,,,,,,,,1173.2868999000639,1174.303832400008,1171.3796682000393,1171.3796682000393,1171.3796682000393,1171.3796682000393,old_stationery_12.png,284,1.0,1.9092071000486612,,,035,01,2025-01-14_16h30.49.422,Surprise recog test,2023.1.3,60.0080170762405,
284,0,284,0,,,,,,,,,,,,,,,,,,,,,,,,,,,,,,,,,,1177.8093659000006,1178.8273429999826,1174.303832400008,1174.303832400008,1174.303832400008,1174.303832400008,old_sceneIn_4.png,285,2.0,3.501229300047271,,,035,01,2025-01-14_16h30.49.422,Surprise recog test,2023.1.3,60.0080170762405,
285,0,285,0,,,,,,,,,,,,,,,,,,,,,,,,,,,,,,,,,,1180.456690400024,1181.4773243999807,1178.8273429999826,1178.8273429999826,1178.8273429999826,1178.8273429999826,old_stationery_29.png,286,1.0,1.623140300041996,,,035,01,2025-01-14_16h30.49.422,Surprise recog test,2023.1.3,60.0080170762405,
286,0,286,0,,,,,,,,,,,,,,,,,,,,,,,,,,,,,,,,,,1183.5690448000096,1184.5799248999683,1181.4773243999807,1181.4773243999807,1181.4773243999807,1181.4773243999807,new_sceneOut_23.png,287,5.0,2.0876646999968216,,,035,01,2025-01-14_16h30.49.422,Surprise recog test,2023.1.3,60.0080170762405,
287,0,287,0,,,,,,,,,,,,,,,,,,,,,,,,,,,,,,,,,,1187.548435500008,1188.5727754000109,1184.5799248999683,1184.5799248999683,1184.5799248999683,1184.5799248999683,new_sceneOut_2.png,288,3.0,2.964920900063589,,,035,01,2025-01-14_16h30.49.422,Surprise recog test,2023.1.3,60.0080170762405,
288,0,288,0,,,,,,,,,,,,,,,,,,,,,,,,,,,,,,,,,,1191.9663532000268,1192.99763290002,1188.5727754000109,1188.5727754000109,1188.5727754000109,1188.5727754000109,new_sceneIn_27.png,289,3.0,3.3909000999992713,,,035,01,2025-01-14_16h30.49.422,Surprise recog test,2023.1.3,60.0080170762405,
289,0,289,0,,,,,,,,,,,,,,,,,,,,,,,,,,,,,,,,,,1195.385655799997,1196.4052008000435,1192.99763290002,1192.99763290002,1192.99763290002,1192.99763290002,old_sceneOut_4.png,290,5.0,2.3893736000172794,,,035,01,2025-01-14_16h30.49.422,Surprise recog test,2023.1.3,60.0080170762405,
290,0,290,0,,,,,,,,,,,,,,,,,,,,,,,,,,,,,,,,,,1199.408476499957,1200.4419125999557,1196.4052008000435,1196.4052008000435,1196.4052008000435,1196.4052008000435,new_stationery_5.png,291,4.0,2.9988754999358207,,,035,01,2025-01-14_16h30.49.422,Surprise recog test,2023.1.3,60.0080170762405,
291,0,291,0,,,,,,,,,,,,,,,,,,,,,,,,,,,,,,,,,,1203.3569378999528,,1200.4419125999557,1200.4419125999557,1200.4419125999557,1200.4419125999557,new_sceneIn_41.png,292,3.0,2.917823900002986,,,035,01,2025-01-14_16h30.49.422,Surprise recog test,2023.1.3,60.0080170762405,
292,0,292,0,,,,,,,,,,,,,,,,,,,,,,,,,,,,,,,,,,1207.0408643999835,1208.0634639000054,1204.3755234000273,1204.3755234000273,1204.3755234000273,1204.3755234000273,old_fruit_21.png,293,3.0,2.658872799947858,,,035,01,2025-01-14_16h30.49.422,Surprise recog test,2023.1.3,60.0080170762405,
293,0,293,0,,,,,,,,,,,,,,,,,,,,,,,,,,,,,,,,,,1212.4278322999598,1213.4503930000355,1208.0634639000054,1208.0634639000054,1208.0634639000054,1208.0634639000054,old_fruit_50.png,294,3.0,4.366044100024737,,,035,01,2025-01-14_16h30.49.422,Surprise recog test,2023.1.3,60.0080170762405,
294,0,294,0,,,,,,,,,,,,,,,,,,,,,,,,,,,,,,,,,,1215.1480192999588,1216.1579778000014,1213.4503930000355,1213.4503930000355,1213.4503930000355,1213.4503930000355,new_sceneOut_47.png,295,5.0,1.697955899988301,,,035,01,2025-01-14_16h30.49.422,Surprise recog test,2023.1.3,60.0080170762405,
295,0,295,0,,,,,,,,,,,,,,,,,,,,,,,,,,,,,,,,,,1219.7532662999583,,1216.1579778000014,1216.1579778000014,1216.1579778000014,1216.1579778000014,old_sceneOut_26.png,296,3.0,3.5915988000342622,,,035,01,2025-01-14_16h30.49.422,Surprise recog test,2023.1.3,60.0080170762405,
296,0,296,0,,,,,,,,,,,,,,,,,,,,,,,,,,,,,,,,,,1223.2124207000015,1224.2369269999908,1220.786156599992,1220.786156599992,1220.786156599992,1220.786156599992,new_sceneIn_20.png,297,5.0,2.4272627999307588,,,035,01,2025-01-14_16h30.49.422,Surprise recog test,2023.1.3,60.0080170762405,
297,0,297,0,,,,,,,,,,,,,,,,,,,,,,,,,,,,,,,,,,1225.6771358000115,1226.7123260999797,1224.2369269999908,1224.2369269999908,1224.2369269999908,1224.2369269999908,old_sceneOut_36.png,298,5.0,1.4420149000361562,,,035,01,2025-01-14_16h30.49.422,Surprise recog test,2023.1.3,60.0080170762405,
298,0,298,0,,,,,,,,,,,,,,,,,,,,,,,,,,,,,,,,,,1229.1586910999613,1230.178829499986,1226.7123260999797,1226.7123260999797,1226.7123260999797,1226.7123260999797,new_fruit_13.png,299,4.0,2.4482370000332594,,,035,01,2025-01-14_16h30.49.422,Surprise recog test,2023.1.3,60.0080170762405,
299,0,299,0,,,,,,,,,,,,,,,,,,,,,,,,,,,,,,,,,,1233.2211446999572,1234.2492513000034,1230.178829499986,1230.178829499986,1230.178829499986,1230.178829499986,old_sceneIn_8.png,300,5.0,3.0414837999269366,,,035,01,2025-01-14_16h30.49.422,Surprise recog test,2023.1.3,60.0080170762405,
300,0,300,0,,,,,,,,,,,,,,,,,,,,,,,,,,,,,,,,,,1236.6530601000413,1237.6843439000659,1234.2492513000034,1234.2492513000034,1234.2492513000034,1234.2492513000034,new_fruit_2.png,301,3.0,2.4061411001021042,,,035,01,2025-01-14_16h30.49.422,Surprise recog test,2023.1.3,60.0080170762405,
301,0,301,0,,,,,,,,,,,,,,,,,,,,,,,,,,,,,,,,,,1239.6816248999676,1240.708583300002,1237.6843439000659,1237.6843439000659,1237.6843439000659,1237.6843439000659,new_stationery_10.png,302,3.0,1.9961842999327928,,,035,01,2025-01-14_16h30.49.422,Surprise recog test,2023.1.3,60.0080170762405,
302,0,302,0,,,,,,,,,,,,,,,,,,,,,,,,,,,,,,,,,,1242.5717172999866,,1240.708583300002,1240.708583300002,1240.708583300002,1240.708583300002,new_sceneOut_18.png,303,5.0,1.863844000035897,,,035,01,2025-01-14_16h30.49.422,Surprise recog test,2023.1.3,60.0080170762405,
303,0,303,0,,,,,,,,,,,,,,,,,,,,,,,,,,,,,,,,,,1247.9405113999965,1248.9611237000208,1243.6115167000098,1243.6115167000098,1243.6115167000098,1243.6115167000098,new_fruit_35.png,304,3.0,4.328167300089262,,,035,01,2025-01-14_16h30.49.422,Surprise recog test,2023.1.3,60.0080170762405,
304,0,304,0,,,,,,,,,,,,,,,,,,,,,,,,,,,,,,,,,,1251.8580365000525,1252.8693753000116,1248.9611237000208,1248.9611237000208,1248.9611237000208,1248.9611237000208,new_stationery_39.png,305,4.0,2.898327699978836,,,035,01,2025-01-14_16h30.49.422,Surprise recog test,2023.1.3,60.0080170762405,
305,0,305,0,,,,,,,,,,,,,,,,,,,,,,,,,,,,,,,,,,1255.544931499986,1256.5629603000125,1252.8693753000116,1252.8693753000116,1252.8693753000116,1252.8693753000116,old_sceneIn_21.png,306,5.0,2.6701097999466583,,,035,01,2025-01-14_16h30.49.422,Surprise recog test,2023.1.3,60.0080170762405,
306,0,306,0,,,,,,,,,,,,,,,,,,,,,,,,,,,,,,,,,,1258.7496912999777,1259.7674162000185,1256.5629603000125,1256.5629603000125,1256.5629603000125,1256.5629603000125,old_sceneOut_45.png,307,5.0,2.182907000067644,,,035,01,2025-01-14_16h30.49.422,Surprise recog test,2023.1.3,60.0080170762405,
307,0,307,0,,,,,,,,,,,,,,,,,,,,,,,,,,,,,,,,,,1262.1564879000653,,1259.7674162000185,1259.7674162000185,1259.7674162000185,1259.7674162000185,new_fruit_31.png,308,3.0,2.3880741000175476,,,035,01,2025-01-14_16h30.49.422,Surprise recog test,2023.1.3,60.0080170762405,
308,0,308,0,,,,,,,,,,,,,,,,,,,,,,,,,,,,,,,,,,1265.8986860000296,1266.920392400003,1263.1829728999874,1263.1829728999874,1263.1829728999874,1263.1829728999874,new_stationery_14.png,309,4.0,2.714806400006637,,,035,01,2025-01-14_16h30.49.422,Surprise recog test,2023.1.3,60.0080170762405,
309,0,309,0,,,,,,,,,,,,,,,,,,,,,,,,,,,,,,,,,,1269.8580194000388,1270.8677912000567,1266.920392400003,1266.920392400003,1266.920392400003,1266.920392400003,new_sceneIn_48.png,310,3.0,2.938424599939026,,,035,01,2025-01-14_16h30.49.422,Surprise recog test,2023.1.3,60.0080170762405,
310,0,310,0,,,,,,,,,,,,,,,,,,,,,,,,,,,,,,,,,,1275.4898457999807,1276.5163327000337,1270.8677912000567,1270.8677912000567,1270.8677912000567,1270.8677912000567,new_sceneIn_16.png,311,3.0,4.617316200048663,,,035,01,2025-01-14_16h30.49.422,Surprise recog test,2023.1.3,60.0080170762405,
311,0,311,0,,,,,,,,,,,,,,,,,,,,,,,,,,,,,,,,,,1278.8894808000186,1279.9207718999824,1276.5163327000337,1276.5163327000337,1276.5163327000337,1276.5163327000337,old_sceneOut_42.png,312,5.0,2.375095500028692,,,035,01,2025-01-14_16h30.49.422,Surprise recog test,2023.1.3,60.0080170762405,
312,0,312,0,,,,,,,,,,,,,,,,,,,,,,,,,,,,,,,,,,1282.7441882999847,1283.7621615000535,1279.9207718999824,1279.9207718999824,1279.9207718999824,1279.9207718999824,old_fruit_16.png,313,3.0,2.821220900048502,,,035,01,2025-01-14_16h30.49.422,Surprise recog test,2023.1.3,60.0080170762405,
313,0,313,0,,,,,,,,,,,,,,,,,,,,,,,,,,,,,,,,,,1285.5087056000484,,1283.7621615000535,1283.7621615000535,1283.7621615000535,1283.7621615000535,old_stationery_13.png,314,1.0,1.745420700055547,,,035,01,2025-01-14_16h30.49.422,Surprise recog test,2023.1.3,60.0080170762405,
314,0,314,0,,,,,,,,,,,,,,,,,,,,,,,,,,,,,,,,,,1290.5646229999838,1291.5941452999832,1286.5336329999845,1286.5336329999845,1286.5336329999845,1286.5336329999845,old_sceneIn_43.png,315,1.0,4.02925789996516,,,035,01,2025-01-14_16h30.49.422,Surprise recog test,2023.1.3,60.0080170762405,
315,0,315,0,,,,,,,,,,,,,,,,,,,,,,,,,,,,,,,,,,1294.6628025000682,1295.6861982999835,1291.5941452999832,1291.5941452999832,1291.5941452999832,1291.5941452999832,new_stationery_31.png,316,4.0,3.06477330008056,,,035,01,2025-01-14_16h30.49.422,Surprise recog test,2023.1.3,60.0080170762405,
316,0,316,0,,,,,,,,,,,,,,,,,,,,,,,,,,,,,,,,,,1298.1569224999985,1299.1742756000021,1295.6861982999835,1295.6861982999835,1295.6861982999835,1295.6861982999835,old_sceneOut_23.png,317,4.0,2.474661299958825,,,035,01,2025-01-14_16h30.49.422,Surprise recog test,2023.1.3,60.0080170762405,
317,0,317,0,,,,,,,,,,,,,,,,,,,,,,,,,,,,,,,,,,1302.3167350000003,1303.3367717000656,1299.1742756000021,1299.1742756000021,1299.1742756000021,1299.1742756000021,old_sceneIn_49.png,318,5.0,3.1378319999203086,,,035,01,2025-01-14_16h30.49.422,Surprise recog test,2023.1.3,60.0080170762405,
318,0,318,0,,,,,,,,,,,,,,,,,,,,,,,,,,,,,,,,,,1305.5642932000337,1306.5865146999713,1303.3367717000656,1303.3367717000656,1303.3367717000656,1303.3367717000656,old_stationery_24.png,319,3.0,2.2265929999994114,,,035,01,2025-01-14_16h30.49.422,Surprise recog test,2023.1.3,60.0080170762405,
319,0,319,0,,,,,,,,,,,,,,,,,,,,,,,,,,,,,,,,,,1309.3249947000295,1310.3335354999872,1306.5865146999713,1306.5865146999713,1306.5865146999713,1306.5865146999713,new_sceneOut_10.png,320,4.0,2.7334886000026017,,,035,01,2025-01-14_16h30.49.422,Surprise recog test,2023.1.3,60.0080170762405,
320,0,320,0,,,,,,,,,,,,,,,,,,,,,,,,,,,,,,,,,,1312.7663138000062,1313.8001145999879,1310.3335354999872,1310.3335354999872,1310.3335354999872,1310.3335354999872,new_fruit_40.png,321,4.0,2.427892600069754,,,035,01,2025-01-14_16h30.49.422,Surprise recog test,2023.1.3,60.0080170762405,
321,0,321,0,,,,,,,,,,,,,,,,,,,,,,,,,,,,,,,,,,1316.5097297000466,1317.535842100042,1313.8001145999879,1313.8001145999879,1313.8001145999879,1313.8001145999879,new_stationery_32.png,322,4.0,2.7127672999631613,,,035,01,2025-01-14_16h30.49.422,Surprise recog test,2023.1.3,60.0080170762405,
322,0,322,0,,,,,,,,,,,,,,,,,,,,,,,,,,,,,,,,,,1320.2226378000341,1321.2403117000358,1317.535842100042,1317.535842100042,1317.535842100042,1317.535842100042,old_sceneOut_38.png,323,4.0,2.683045400073752,,,035,01,2025-01-14_16h30.49.422,Surprise recog test,2023.1.3,60.0080170762405,
323,0,323,0,,,,,,,,,,,,,,,,,,,,,,,,,,,,,,,,,,1323.9146246999735,1324.9396964999614,1321.2403117000358,1321.2403117000358,1321.2403117000358,1321.2403117000358,new_sceneIn_3.png,324,5.0,2.6685585000086576,,,035,01,2025-01-14_16h30.49.422,Surprise recog test,2023.1.3,60.0080170762405,
324,0,324,0,,,,,,,,,,,,,,,,,,,,,,,,,,,,,,,,,,1327.4779038999695,1328.4980608000187,1324.9396964999614,1324.9396964999614,1324.9396964999614,1324.9396964999614,new_stationery_12.png,325,2.0,2.5390044000232592,,,035,01,2025-01-14_16h30.49.422,Surprise recog test,2023.1.3,60.0080170762405,
325,0,325,0,,,,,,,,,,,,,,,,,,,,,,,,,,,,,,,,,,1331.808533100062,1332.8183976999717,1328.4980608000187,1328.4980608000187,1328.4980608000187,1328.4980608000187,new_fruit_42.png,326,4.0,3.3063476000679657,,,035,01,2025-01-14_16h30.49.422,Surprise recog test,2023.1.3,60.0080170762405,
326,0,326,0,,,,,,,,,,,,,,,,,,,,,,,,,,,,,,,,,,1335.8844788999995,,1332.8183976999717,1332.8183976999717,1332.8183976999717,1332.8183976999717,new_fruit_39.png,327,3.0,3.0607249999884516,,,035,01,2025-01-14_16h30.49.422,Surprise recog test,2023.1.3,60.0080170762405,
327,0,327,0,,,,,,,,,,,,,,,,,,,,,,,,,,,,,,,,,,1339.2597695000004,1340.2849212000147,1336.9118712999625,1336.9118712999625,1336.9118712999625,1336.9118712999625,new_sceneIn_13.png,328,5.0,2.348818499944173,,,035,01,2025-01-14_16h30.49.422,Surprise recog test,2023.1.3,60.0080170762405,
328,0,328,0,,,,,,,,,,,,,,,,,,,,,,,,,,,,,,,,,,1342.7100035999902,1343.7366083000088,1340.2849212000147,1340.2849212000147,1340.2849212000147,1340.2849212000147,new_stationery_26.png,329,4.0,2.42274839989841,,,035,01,2025-01-14_16h30.49.422,Surprise recog test,2023.1.3,60.0080170762405,
329,0,329,0,,,,,,,,,,,,,,,,,,,,,,,,,,,,,,,,,,1345.1122282999568,1346.1320419999538,1343.7366083000088,1343.7366083000088,1343.7366083000088,1343.7366083000088,new_stationery_46.png,330,4.0,1.378286199993454,,,035,01,2025-01-14_16h30.49.422,Surprise recog test,2023.1.3,60.0080170762405,
330,0,330,0,,,,,,,,,,,,,,,,,,,,,,,,,,,,,,,,,,1348.2821832000045,1349.3110944000073,1346.1320419999538,1346.1320419999538,1346.1320419999538,1346.1320419999538,old_sceneIn_12.png,331,5.0,2.1467966999625787,,,035,01,2025-01-14_16h30.49.422,Surprise recog test,2023.1.3,60.0080170762405,
331,0,331,0,,,,,,,,,,,,,,,,,,,,,,,,,,,,,,,,,,1351.393554899958,1352.420433799969,1349.3110944000073,1349.3110944000073,1349.3110944000073,1349.3110944000073,new_sceneOut_26.png,332,5.0,2.0783945000730455,,,035,01,2025-01-14_16h30.49.422,Surprise recog test,2023.1.3,60.0080170762405,
332,0,332,0,,,,,,,,,,,,,,,,,,,,,,,,,,,,,,,,,,1356.2148153999588,1357.2251568000065,1352.420433799969,1352.420433799969,1352.420433799969,1352.420433799969,new_sceneIn_31.png,333,3.0,3.7958057000068948,,,035,01,2025-01-14_16h30.49.422,Surprise recog test,2023.1.3,60.0080170762405,
333,0,333,0,,,,,,,,,,,,,,,,,,,,,,,,,,,,,,,,,,1359.6028561999556,,1357.2251568000065,1357.2251568000065,1357.2251568000065,1357.2251568000065,new_stationery_7.png,334,4.0,2.375565000111237,,,035,01,2025-01-14_16h30.49.422,Surprise recog test,2023.1.3,60.0080170762405,
334,0,334,0,,,,,,,,,,,,,,,,,,,,,,,,,,,,,,,,,,1362.5139111999888,1363.5444480000297,1360.6253567000385,1360.6253567000385,1360.6253567000385,1360.6253567000385,new_sceneOut_9.png,335,5.0,1.880111699923873,,,035,01,2025-01-14_16h30.49.422,Surprise recog test,2023.1.3,60.0080170762405,
335,0,335,0,,,,,,,,,,,,,,,,,,,,,,,,,,,,,,,,,,1366.4929957999848,,1363.5444480000297,1363.5444480000297,1363.5444480000297,1363.5444480000297,new_stationery_16.png,336,3.0,2.951145499944687,,,035,01,2025-01-14_16h30.49.422,Surprise recog test,2023.1.3,60.0080170762405,
336,0,336,0,,,,,,,,,,,,,,,,,,,,,,,,,,,,,,,,,,1369.9531548999948,1370.9672027999768,1367.5138637999771,1367.5138637999771,1367.5138637999771,1367.5138637999771,new_fruit_34.png,337,4.0,2.4348801999585703,,,035,01,2025-01-14_16h30.49.422,Surprise recog test,2023.1.3,60.0080170762405,
337,0,337,0,,,,,,,,,,,,,,,,,,,,,,,,,,,,,,,,,,1375.9660461000167,,1370.9672027999768,1370.9672027999768,1370.9672027999768,1370.9672027999768,new_stationery_41.png,338,None,None,1375.9462779000169,,035,01,2025-01-14_16h30.49.422,Surprise recog test,2023.1.3,60.0080170762405,
338,0,338,0,,,,,,,,,,,,,,,,,,,,,,,,,,,,,,,,,,1378.9336646000156,1379.952328399988,1376.9988168999553,1376.9988168999553,1376.9988168999553,1376.9988168999553,old_sceneIn_18.png,339,5.0,1.9345549000427127,,,035,01,2025-01-14_16h30.49.422,Surprise recog test,2023.1.3,60.0080170762405,
339,0,339,0,,,,,,,,,,,,,,,,,,,,,,,,,,,,,,,,,,1382.1549853000324,,1379.952328399988,1379.952328399988,1379.952328399988,1379.952328399988,new_fruit_17.png,340,2.0,2.203085699933581,,,035,01,2025-01-14_16h30.49.422,Surprise recog test,2023.1.3,60.0080170762405,
340,0,340,0,,,,,,,,,,,,,,,,,,,,,,,,,,,,,,,,,,1385.372696000035,1386.39467780001,1383.1757126000011,1383.1757126000011,1383.1757126000011,1383.1757126000011,new_sceneOut_41.png,341,2.0,2.1913229000056162,,,035,01,2025-01-14_16h30.49.422,Surprise recog test,2023.1.3,60.0080170762405,
341,0,341,0,,,,,,,,,,,,,,,,,,,,,,,,,,,,,,,,,,1388.3685645000078,1389.3786463000579,1386.39467780001,1386.39467780001,1386.39467780001,1386.39467780001,old_sceneOut_10.png,342,5.0,1.9767649000277743,,,035,01,2025-01-14_16h30.49.422,Surprise recog test,2023.1.3,60.0080170762405,
342,0,342,0,,,,,,,,,,,,,,,,,,,,,,,,,,,,,,,,,,1393.1982839000411,,1389.3786463000579,1389.3786463000579,1389.3786463000579,1389.3786463000579,new_stationery_40.png,343,3.0,3.816229800111614,,,035,01,2025-01-14_16h30.49.422,Surprise recog test,2023.1.3,60.0080170762405,
343,0,343,0,,,,,,,,,,,,,,,,,,,,,,,,,,,,,,,,,,1396.7286536999745,1397.7453674999997,1394.228736500023,1394.228736500023,1394.228736500023,1394.228736500023,new_sceneIn_25.png,344,5.0,2.4987452999921516,,,035,01,2025-01-14_16h30.49.422,Surprise recog test,2023.1.3,60.0080170762405,
344,0,344,0,,,,,,,,,,,,,,,,,,,,,,,,,,,,,,,,,,1400.35625349998,1401.3889717999846,1397.7453674999997,1397.7453674999997,1397.7453674999997,1397.7453674999997,old_stationery_39.png,345,3.0,2.610987199936062,,,035,01,2025-01-14_16h30.49.422,Surprise recog test,2023.1.3,60.0080170762405,
345,0,345,0,,,,,,,,,,,,,,,,,,,,,,,,,,,,,,,,,,1404.0638211000478,1405.0847493000329,1401.3889717999846,1401.3889717999846,1401.3889717999846,1401.3889717999846,new_fruit_25.png,346,3.0,2.6779768000124022,,,035,01,2025-01-14_16h30.49.422,Surprise recog test,2023.1.3,60.0080170762405,
346,0,346,0,,,,,,,,,,,,,,,,,,,,,,,,,,,,,,,,,,1409.2665730000008,1410.2959205000661,1405.0847493000329,1405.0847493000329,1405.0847493000329,1405.0847493000329,old_sceneIn_19.png,347,3.0,4.1818764000199735,,,035,01,2025-01-14_16h30.49.422,Surprise recog test,2023.1.3,60.0080170762405,
347,0,347,0,,,,,,,,,,,,,,,,,,,,,,,,,,,,,,,,,,1413.4242653000401,1414.4364936000202,1410.2959205000661,1410.2959205000661,1410.2959205000661,1410.2959205000661,old_sceneIn_15.png,348,4.0,3.1316311000846326,,,035,01,2025-01-14_16h30.49.422,Surprise recog test,2023.1.3,60.0080170762405,
348,0,348,0,,,,,,,,,,,,,,,,,,,,,,,,,,,,,,,,,,1415.763555399957,1416.784607999958,1414.4364936000202,1414.4364936000202,1414.4364936000202,1414.4364936000202,new_sceneOut_5.png,349,5.0,1.3225242000771686,,,035,01,2025-01-14_16h30.49.422,Surprise recog test,2023.1.3,60.0080170762405,
349,0,349,0,,,,,,,,,,,,,,,,,,,,,,,,,,,,,,,,,,1419.1269397999858,1420.150885400013,1416.784607999958,1416.784607999958,1416.784607999958,1416.784607999958,old_stationery_21.png,350,3.0,2.346191699965857,,,035,01,2025-01-14_16h30.49.422,Surprise recog test,2023.1.3,60.0080170762405,
350,0,350,0,,,,,,,,,,,,,,,,,,,,,,,,,,,,,,,,,,1423.4038904999616,1424.4286489000078,1420.150885400013,1420.150885400013,1420.150885400013,1420.150885400013,old_fruit_38.png,351,3.0,3.2552260999800637,,,035,01,2025-01-14_16h30.49.422,Surprise recog test,2023.1.3,60.0080170762405,
351,0,351,0,,,,,,,,,,,,,,,,,,,,,,,,,,,,,,,,,,1426.0884903999977,1427.1078944000183,1424.4286489000078,1424.4286489000078,1424.4286489000078,1424.4286489000078,old_stationery_47.png,352,1.0,1.6648642999352887,,,035,01,2025-01-14_16h30.49.422,Surprise recog test,2023.1.3,60.0080170762405,
352,0,352,0,,,,,,,,,,,,,,,,,,,,,,,,,,,,,,,,,,1429.3655368000036,1430.3944295999827,1427.1078944000183,1427.1078944000183,1427.1078944000183,1427.1078944000183,old_stationery_33.png,353,1.0,2.2600349000422284,,,035,01,2025-01-14_16h30.49.422,Surprise recog test,2023.1.3,60.0080170762405,
353,0,353,0,,,,,,,,,,,,,,,,,,,,,,,,,,,,,,,,,,1433.5482531000162,,1430.3944295999827,1430.3944295999827,1430.3944295999827,1430.3944295999827,new_stationery_6.png,354,5.0,3.1555022000102326,,,035,01,2025-01-14_16h30.49.422,Surprise recog test,2023.1.3,60.0080170762405,
