trial_loop.thisRepN,trial_loop.thisTrialN,trial_loop.thisN,trial_loop.thisIndex,VAS_slider.started,VAS_text.started,VAS_notstressed_text.started,VAS_stressed_text.started,continue_input.started,continue_text.started,label0.started,label10.started,label20.started,label30.started,label40.started,label50.started,label60.started,label70.started,label80.started,label90.started,label100.started,VAS_slider.response,VAS_slider.rt,VAS_slider.history,Answer_VAS,continue_input.keys,instruction_text.started,continue_text_2.started,continue_input_2.started,continue_input_2.keys,continue_input_2.rt,continue_input_2.duration,example_text.started,example_slider_2.started,example_image.started,example_slider_2.response,example_slider_2.rt,fixcross.started,fixcross.stopped,front_square.started,stim_images.started,trial_inst_images.started,slider_images.started,thisImg,trial_count,slider_images.response,slider_images.rt,outro.started,participant,condition,date,expName,psychopyVersion,frameRate,
,,,,207.48422919993754,207.48422919993754,207.48422919993754,207.48422919993754,207.48422919993754,207.48422919993754,207.48422919993754,207.48422919993754,207.48422919993754,207.48422919993754,207.48422919993754,207.48422919993754,207.48422919993754,207.48422919993754,207.48422919993754,207.48422919993754,207.48422919993754,0.03333333333333355,11.763616500073113,"[(0.03333333333333355, 11.763616500073113)]",0.03333333333333355,None,,,,,,,,,,,,,,,,,,,,,,,036,01,2025-02-07_14h06.12.714,Surprise recog test,2023.1.3,59.94495852472344,
,,,,,,,,,,,,,,,,,,,,,,,,,,219.3246715000132,219.3246715000132,219.3246715000132,space,29.482970100012608,None,,,,,,,,,,,,,,,,,036,01,2025-02-07_14h06.12.714,Surprise recog test,2023.1.3,59.94495852472344,
0,0,0,0,,,,,,,,,,,,,,,,,,,,,,,,,,,,,248.93365979997907,248.93365979997907,248.93365979997907,4.0,4.428709400002845,256.55719810002483,257.5742268000031,254.334877199959,254.334877199959,254.334877199959,254.334877199959,old_sceneOut_43.png,1,1.0,2.2221807000460103,,036,01,2025-02-07_14h06.12.714,Surprise recog test,2023.1.3,59.94495852472344,
1,0,1,0,,,,,,,,,,,,,,,,,,,,,,,,,,,,,,,,,,259.9178825999843,260.9479882000014,257.5742268000031,257.5742268000031,257.5742268000031,257.5742268000031,new_sceneIn_29.png,2,5.0,2.3434699999634176,,036,01,2025-02-07_14h06.12.714,Surprise recog test,2023.1.3,59.94495852472344,
2,0,2,0,,,,,,,,,,,,,,,,,,,,,,,,,,,,,,,,,,263.39850559993647,,260.9479882000014,260.9479882000014,260.9479882000014,260.9479882000014,old_fruit_39.png,3,1.0,2.4510172000154853,,036,01,2025-02-07_14h06.12.714,Surprise recog test,2023.1.3,59.94495852472344,
3,0,3,0,,,,,,,,,,,,,,,,,,,,,,,,,,,,,,,,,,266.3533478999743,267.3704709999729,264.4323169999989,264.4323169999989,264.4323169999989,264.4323169999989,old_sceneOut_21.png,4,3.0,1.9199813000159338,,036,01,2025-02-07_14h06.12.714,Surprise recog test,2023.1.3,59.94495852472344,
4,0,4,0,,,,,,,,,,,,,,,,,,,,,,,,,,,,,,,,,,270.47770329995546,271.5079202000052,267.3704709999729,267.3704709999729,267.3704709999729,267.3704709999729,new_sceneIn_11.png,5,3.0,3.1041020000120625,,036,01,2025-02-07_14h06.12.714,Surprise recog test,2023.1.3,59.94495852472344,
5,0,5,0,,,,,,,,,,,,,,,,,,,,,,,,,,,,,,,,,,274.4606182000134,275.49238059995696,271.5079202000052,271.5079202000052,271.5079202000052,271.5079202000052,old_fruit_20.png,6,2.0,2.956062400015071,,036,01,2025-02-07_14h06.12.714,Surprise recog test,2023.1.3,59.94495852472344,
6,0,6,0,,,,,,,,,,,,,,,,,,,,,,,,,,,,,,,,,,277.08468980004545,278.1095713999821,275.49238059995696,275.49238059995696,275.49238059995696,275.49238059995696,new_fruit_22.png,7,4.0,1.5958707999670878,,036,01,2025-02-07_14h06.12.714,Surprise recog test,2023.1.3,59.94495852472344,
7,0,7,0,,,,,,,,,,,,,,,,,,,,,,,,,,,,,,,,,,279.776711500017,280.7925575999543,278.1095713999821,278.1095713999821,278.1095713999821,278.1095713999821,old_fruit_40.png,8,1.0,1.6655897999880835,,036,01,2025-02-07_14h06.12.714,Surprise recog test,2023.1.3,59.94495852472344,
8,0,8,0,,,,,,,,,,,,,,,,,,,,,,,,,,,,,,,,,,282.3786771999439,283.39632539998274,280.7925575999543,280.7925575999543,280.7925575999543,280.7925575999543,new_stationery_41.png,9,4.0,1.584733400028199,,036,01,2025-02-07_14h06.12.714,Surprise recog test,2023.1.3,59.94495852472344,
9,0,9,0,,,,,,,,,,,,,,,,,,,,,,,,,,,,,,,,,,285.3759053000249,286.39714729995467,283.39632539998274,283.39632539998274,283.39632539998274,283.39632539998274,old_fruit_37.png,10,2.0,1.9797642000485212,,036,01,2025-02-07_14h06.12.714,Surprise recog test,2023.1.3,59.94495852472344,
10,0,10,0,,,,,,,,,,,,,,,,,,,,,,,,,,,,,,,,,,287.87444569997024,288.9020001000026,286.39714729995467,286.39714729995467,286.39714729995467,286.39714729995467,new_fruit_38.png,11,3.0,1.4759519000072032,,036,01,2025-02-07_14h06.12.714,Surprise recog test,2023.1.3,59.94495852472344,
11,0,11,0,,,,,,,,,,,,,,,,,,,,,,,,,,,,,,,,,,290.3480674000457,291.3566218999913,288.9020001000026,288.9020001000026,288.9020001000026,288.9020001000026,old_fruit_10.png,12,4.0,1.4461232000030577,,036,01,2025-02-07_14h06.12.714,Surprise recog test,2023.1.3,59.94495852472344,
12,0,12,0,,,,,,,,,,,,,,,,,,,,,,,,,,,,,,,,,,293.17630759999156,294.2063792999834,291.3566218999913,291.3566218999913,291.3566218999913,291.3566218999913,new_stationery_50.png,13,2.0,1.813566799974069,,036,01,2025-02-07_14h06.12.714,Surprise recog test,2023.1.3,59.94495852472344,
13,0,13,0,,,,,,,,,,,,,,,,,,,,,,,,,,,,,,,,,,296.5469391000224,297.58141280000564,294.2063792999834,294.2063792999834,294.2063792999834,294.2063792999834,new_sceneIn_5.png,14,5.0,2.3420361999887973,,036,01,2025-02-07_14h06.12.714,Surprise recog test,2023.1.3,59.94495852472344,
14,0,14,0,,,,,,,,,,,,,,,,,,,,,,,,,,,,,,,,,,299.0245916999411,300.0396920000203,297.58141280000564,297.58141280000564,297.58141280000564,297.58141280000564,new_sceneOut_26.png,15,1.0,1.445773100014776,,036,01,2025-02-07_14h06.12.714,Surprise recog test,2023.1.3,59.94495852472344,
15,0,15,0,,,,,,,,,,,,,,,,,,,,,,,,,,,,,,,,,,302.4174641999416,303.449365700013,300.0396920000203,300.0396920000203,300.0396920000203,300.0396920000203,old_fruit_23.png,16,3.0,2.3749600000446662,,036,01,2025-02-07_14h06.12.714,Surprise recog test,2023.1.3,59.94495852472344,
16,0,16,0,,,,,,,,,,,,,,,,,,,,,,,,,,,,,,,,,,305.031454400043,306.0402062999783,303.449365700013,303.449365700013,303.449365700013,303.449365700013,old_sceneOut_2.png,17,1.0,1.5839986000210047,,036,01,2025-02-07_14h06.12.714,Surprise recog test,2023.1.3,59.94495852472344,
17,0,17,0,,,,,,,,,,,,,,,,,,,,,,,,,,,,,,,,,,307.43303890002426,308.4551897000056,306.0402062999783,306.0402062999783,306.0402062999783,306.0402062999783,new_sceneOut_4.png,18,4.0,1.3882494999561459,,036,01,2025-02-07_14h06.12.714,Surprise recog test,2023.1.3,59.94495852472344,
18,0,18,0,,,,,,,,,,,,,,,,,,,,,,,,,,,,,,,,,,311.649756000028,312.66721590003,308.4551897000056,308.4551897000056,308.4551897000056,308.4551897000056,old_sceneOut_40.png,19,4.0,3.1979175000451505,,036,01,2025-02-07_14h06.12.714,Surprise recog test,2023.1.3,59.94495852472344,
19,0,19,0,,,,,,,,,,,,,,,,,,,,,,,,,,,,,,,,,,314.5620236999821,315.5925362999551,312.66721590003,312.66721590003,312.66721590003,312.66721590003,old_sceneIn_46.png,20,5.0,1.8933812000323087,,036,01,2025-02-07_14h06.12.714,Surprise recog test,2023.1.3,59.94495852472344,
20,0,20,0,,,,,,,,,,,,,,,,,,,,,,,,,,,,,,,,,,317.1600808999501,,315.5925362999551,315.5925362999551,315.5925362999551,315.5925362999551,new_sceneOut_37.png,21,4.0,1.5686936000129208,,036,01,2025-02-07_14h06.12.714,Surprise recog test,2023.1.3,59.94495852472344,
21,0,21,0,,,,,,,,,,,,,,,,,,,,,,,,,,,,,,,,,,319.6980239000404,320.7306686999509,318.19302809995133,318.19302809995133,318.19302809995133,318.19302809995133,new_fruit_24.png,22,4.0,1.5031399999279529,,036,01,2025-02-07_14h06.12.714,Surprise recog test,2023.1.3,59.94495852472344,
22,0,22,0,,,,,,,,,,,,,,,,,,,,,,,,,,,,,,,,,,322.1768124999944,323.19079170003533,320.7306686999509,320.7306686999509,320.7306686999509,320.7306686999509,old_sceneOut_42.png,23,2.0,1.448573000030592,,036,01,2025-02-07_14h06.12.714,Surprise recog test,2023.1.3,59.94495852472344,
23,0,23,0,,,,,,,,,,,,,,,,,,,,,,,,,,,,,,,,,,325.1971884999657,326.2028371000197,323.19079170003533,323.19079170003533,323.19079170003533,323.19079170003533,new_fruit_8.png,24,3.0,2.0003732999321073,,036,01,2025-02-07_14h06.12.714,Surprise recog test,2023.1.3,59.94495852472344,
24,0,24,0,,,,,,,,,,,,,,,,,,,,,,,,,,,,,,,,,,328.1663964999607,329.17125320003834,326.2028371000197,326.2028371000197,326.2028371000197,326.2028371000197,old_stationery_37.png,25,1.0,1.9542036999482661,,036,01,2025-02-07_14h06.12.714,Surprise recog test,2023.1.3,59.94495852472344,
25,0,25,0,,,,,,,,,,,,,,,,,,,,,,,,,,,,,,,,,,330.60187210002914,331.6068680000026,329.17125320003834,329.17125320003834,329.17125320003834,329.17125320003834,old_stationery_26.png,26,2.0,1.4201605999842286,,036,01,2025-02-07_14h06.12.714,Surprise recog test,2023.1.3,59.94495852472344,
26,0,26,0,,,,,,,,,,,,,,,,,,,,,,,,,,,,,,,,,,332.98711630003527,333.99213429994415,331.6068680000026,331.6068680000026,331.6068680000026,331.6068680000026,old_fruit_44.png,27,3.0,1.370588699937798,,036,01,2025-02-07_14h06.12.714,Surprise recog test,2023.1.3,59.94495852472344,
27,0,27,0,,,,,,,,,,,,,,,,,,,,,,,,,,,,,,,,,,335.7895254000323,336.7950412000064,333.99213429994415,333.99213429994415,333.99213429994415,333.99213429994415,new_sceneIn_30.png,28,4.0,1.7881519000511616,,036,01,2025-02-07_14h06.12.714,Surprise recog test,2023.1.3,59.94495852472344,
28,0,28,0,,,,,,,,,,,,,,,,,,,,,,,,,,,,,,,,,,338.8753700000234,339.8805447999621,336.7950412000064,336.7950412000064,336.7950412000064,336.7950412000064,old_sceneIn_3.png,29,4.0,2.070666200015694,,036,01,2025-02-07_14h06.12.714,Surprise recog test,2023.1.3,59.94495852472344,
29,0,29,0,,,,,,,,,,,,,,,,,,,,,,,,,,,,,,,,,,341.8443721999647,342.8593400999671,339.8805447999621,339.8805447999621,339.8805447999621,339.8805447999621,old_sceneIn_47.png,30,4.0,1.9544785999460146,,036,01,2025-02-07_14h06.12.714,Surprise recog test,2023.1.3,59.94495852472344,
30,0,30,0,,,,,,,,,,,,,,,,,,,,,,,,,,,,,,,,,,344.7599288999336,345.7882039999822,342.8593400999671,342.8593400999671,342.8593400999671,342.8593400999671,new_sceneIn_32.png,31,4.0,1.8981095999479294,,036,01,2025-02-07_14h06.12.714,Surprise recog test,2023.1.3,59.94495852472344,
31,0,31,0,,,,,,,,,,,,,,,,,,,,,,,,,,,,,,,,,,347.47511659993324,348.4952522999374,345.7882039999822,345.7882039999822,345.7882039999822,345.7882039999822,old_stationery_29.png,32,4.0,1.691489899996668,,036,01,2025-02-07_14h06.12.714,Surprise recog test,2023.1.3,59.94495852472344,
32,0,32,0,,,,,,,,,,,,,,,,,,,,,,,,,,,,,,,,,,350.57076619996224,,348.4952522999374,348.4952522999374,348.4952522999374,348.4952522999374,new_fruit_12.png,33,4.0,2.0709879000205547,,036,01,2025-02-07_14h06.12.714,Surprise recog test,2023.1.3,59.94495852472344,
33,0,33,0,,,,,,,,,,,,,,,,,,,,,,,,,,,,,,,,,,353.72576940001454,354.7617930000415,351.6062261000043,351.6062261000043,351.6062261000043,351.6062261000043,old_sceneOut_26.png,34,4.0,2.118551200022921,,036,01,2025-02-07_14h06.12.714,Surprise recog test,2023.1.3,59.94495852472344,
34,0,34,0,,,,,,,,,,,,,,,,,,,,,,,,,,,,,,,,,,357.20086590002757,358.2263588999631,354.7617930000415,354.7617930000415,354.7617930000415,354.7617930000415,new_stationery_24.png,35,3.0,2.44078870001249,,036,01,2025-02-07_14h06.12.714,Surprise recog test,2023.1.3,59.94495852472344,
35,0,35,0,,,,,,,,,,,,,,,,,,,,,,,,,,,,,,,,,,360.1239430999849,361.14009270002134,358.2263588999631,358.2263588999631,358.2263588999631,358.2263588999631,old_stationery_28.png,36,3.0,1.9000534999649972,,036,01,2025-02-07_14h06.12.714,Surprise recog test,2023.1.3,59.94495852472344,
36,0,36,0,,,,,,,,,,,,,,,,,,,,,,,,,,,,,,,,,,362.8932254000101,363.9172143000178,361.14009270002134,361.14009270002134,361.14009270002134,361.14009270002134,old_stationery_23.png,37,2.0,1.754290399956517,,036,01,2025-02-07_14h06.12.714,Surprise recog test,2023.1.3,59.94495852472344,
37,0,37,0,,,,,,,,,,,,,,,,,,,,,,,,,,,,,,,,,,365.6297741000308,366.6354916000273,363.9172143000178,363.9172143000178,363.9172143000178,363.9172143000178,old_stationery_24.png,38,4.0,1.7149318000301719,,036,01,2025-02-07_14h06.12.714,Surprise recog test,2023.1.3,59.94495852472344,
38,0,38,0,,,,,,,,,,,,,,,,,,,,,,,,,,,,,,,,,,368.7644938000012,369.78362160001416,366.6354916000273,366.6354916000273,366.6354916000273,366.6354916000273,new_sceneIn_28.png,39,3.0,2.122225899947807,,036,01,2025-02-07_14h06.12.714,Surprise recog test,2023.1.3,59.94495852472344,
39,0,39,0,,,,,,,,,,,,,,,,,,,,,,,,,,,,,,,,,,371.4095675999997,372.43807190004736,369.78362160001416,369.78362160001416,369.78362160001416,369.78362160001416,new_fruit_40.png,40,3.0,1.6270561000565067,,036,01,2025-02-07_14h06.12.714,Surprise recog test,2023.1.3,59.94495852472344,
40,0,40,0,,,,,,,,,,,,,,,,,,,,,,,,,,,,,,,,,,374.0981293999357,375.11854359996505,372.43807190004736,372.43807190004736,372.43807190004736,372.43807190004736,new_sceneOut_8.png,41,3.0,1.6617542000021785,,036,01,2025-02-07_14h06.12.714,Surprise recog test,2023.1.3,59.94495852472344,
41,0,41,0,,,,,,,,,,,,,,,,,,,,,,,,,,,,,,,,,,376.5526667999802,377.5649751999881,375.11854359996505,375.11854359996505,375.11854359996505,375.11854359996505,new_fruit_19.png,42,4.0,1.4325300001073629,,036,01,2025-02-07_14h06.12.714,Surprise recog test,2023.1.3,59.94495852472344,
42,0,42,0,,,,,,,,,,,,,,,,,,,,,,,,,,,,,,,,,,378.89632870000787,,377.5649751999881,377.5649751999881,377.5649751999881,377.5649751999881,old_fruit_33.png,43,1.0,1.3261727000353858,,036,01,2025-02-07_14h06.12.714,Surprise recog test,2023.1.3,59.94495852472344,
43,0,43,0,,,,,,,,,,,,,,,,,,,,,,,,,,,,,,,,,,381.56618520000484,382.5998274999438,379.9367709000362,379.9367709000362,379.9367709000362,379.9367709000362,new_sceneIn_43.png,44,4.0,1.6320883000735193,,036,01,2025-02-07_14h06.12.714,Surprise recog test,2023.1.3,59.94495852472344,
44,0,44,0,,,,,,,,,,,,,,,,,,,,,,,,,,,,,,,,,,383.953066600021,384.9844229000155,382.5998274999438,382.5998274999438,382.5998274999438,382.5998274999438,old_sceneIn_33.png,45,4.0,1.3553670999826863,,036,01,2025-02-07_14h06.12.714,Surprise recog test,2023.1.3,59.94495852472344,
45,0,45,0,,,,,,,,,,,,,,,,,,,,,,,,,,,,,,,,,,386.6071579999989,387.6335761999944,384.9844229000155,384.9844229000155,384.9844229000155,384.9844229000155,new_fruit_1.png,46,3.0,1.6246701000491157,,036,01,2025-02-07_14h06.12.714,Surprise recog test,2023.1.3,59.94495852472344,
46,0,46,0,,,,,,,,,,,,,,,,,,,,,,,,,,,,,,,,,,389.30070689995773,390.3092105999822,387.6335761999944,387.6335761999944,387.6335761999944,387.6335761999944,old_sceneOut_29.png,47,2.0,1.6663793999468908,,036,01,2025-02-07_14h06.12.714,Surprise recog test,2023.1.3,59.94495852472344,
47,0,47,0,,,,,,,,,,,,,,,,,,,,,,,,,,,,,,,,,,391.77164339995943,,390.3092105999822,390.3092105999822,390.3092105999822,390.3092105999822,new_fruit_50.png,48,3.0,1.4561360999941826,,036,01,2025-02-07_14h06.12.714,Surprise recog test,2023.1.3,59.94495852472344,
48,0,48,0,,,,,,,,,,,,,,,,,,,,,,,,,,,,,,,,,,394.3095013999846,,392.8070705999853,392.8070705999853,392.8070705999853,392.8070705999853,new_fruit_44.png,49,2.0,1.5050787000218406,,036,01,2025-02-07_14h06.12.714,Surprise recog test,2023.1.3,59.94495852472344,
49,0,49,0,,,,,,,,,,,,,,,,,,,,,,,,,,,,,,,,,,396.5300281000091,397.556607699953,395.3422591999406,395.3422591999406,395.3422591999406,395.3422591999406,new_stationery_21.png,50,4.0,1.188169699977152,,036,01,2025-02-07_14h06.12.714,Surprise recog test,2023.1.3,59.94495852472344,
50,0,50,0,,,,,,,,,,,,,,,,,,,,,,,,,,,,,,,,,,399.23254490003455,400.25534839998,397.556607699953,397.556607699953,397.556607699953,397.556607699953,new_sceneIn_36.png,51,5.0,1.6759311999194324,,036,01,2025-02-07_14h06.12.714,Surprise recog test,2023.1.3,59.94495852472344,
51,0,51,0,,,,,,,,,,,,,,,,,,,,,,,,,,,,,,,,,,401.5546814999543,402.58385379996616,400.25534839998,400.25534839998,400.25534839998,400.25534839998,new_sceneOut_17.png,52,3.0,1.2968236999586225,,036,01,2025-02-07_14h06.12.714,Surprise recog test,2023.1.3,59.94495852472344,
52,0,52,0,,,,,,,,,,,,,,,,,,,,,,,,,,,,,,,,,,404.7243438999867,405.74731350003276,402.58385379996616,402.58385379996616,402.58385379996616,402.58385379996616,old_sceneIn_37.png,53,1.0,2.1425768999615684,,036,01,2025-02-07_14h06.12.714,Surprise recog test,2023.1.3,59.94495852472344,
53,0,53,0,,,,,,,,,,,,,,,,,,,,,,,,,,,,,,,,,,407.63225070002954,408.64163289999124,405.74731350003276,405.74731350003276,405.74731350003276,405.74731350003276,new_fruit_45.png,54,4.0,1.8839570999844,,036,01,2025-02-07_14h06.12.714,Surprise recog test,2023.1.3,59.94495852472344,
54,0,54,0,,,,,,,,,,,,,,,,,,,,,,,,,,,,,,,,,,410.098513099947,411.11001339997165,408.64163289999124,408.64163289999124,408.64163289999124,408.64163289999124,new_sceneIn_10.png,55,3.0,1.4507422999013215,,036,01,2025-02-07_14h06.12.714,Surprise recog test,2023.1.3,59.94495852472344,
55,0,55,0,,,,,,,,,,,,,,,,,,,,,,,,,,,,,,,,,,412.14854319998994,413.16154679993633,411.11001339997165,411.11001339997165,411.11001339997165,411.11001339997165,old_fruit_29.png,56,3.0,1.0346761000109836,,036,01,2025-02-07_14h06.12.714,Surprise recog test,2023.1.3,59.94495852472344,
56,0,56,0,,,,,,,,,,,,,,,,,,,,,,,,,,,,,,,,,,414.55597480002325,415.56286599999294,413.16154679993633,413.16154679993633,413.16154679993633,413.16154679993633,old_sceneOut_36.png,57,2.0,1.3902694999706,,036,01,2025-02-07_14h06.12.714,Surprise recog test,2023.1.3,59.94495852472344,
57,0,57,0,,,,,,,,,,,,,,,,,,,,,,,,,,,,,,,,,,417.578966400004,418.6136109000072,415.56286599999294,415.56286599999294,415.56286599999294,415.56286599999294,old_sceneOut_28.png,58,2.0,2.0117671999614686,,036,01,2025-02-07_14h06.12.714,Surprise recog test,2023.1.3,59.94495852472344,
58,0,58,0,,,,,,,,,,,,,,,,,,,,,,,,,,,,,,,,,,420.24659090000205,,418.6136109000072,418.6136109000072,418.6136109000072,418.6136109000072,new_sceneOut_50.png,59,3.0,1.6367503000656143,,036,01,2025-02-07_14h06.12.714,Surprise recog test,2023.1.3,59.94495852472344,
59,0,59,0,,,,,,,,,,,,,,,,,,,,,,,,,,,,,,,,,,423.72413320001215,424.7421313000377,421.2680408000015,421.2680408000015,421.2680408000015,421.2680408000015,old_sceneOut_19.png,60,4.0,2.451650899951346,,036,01,2025-02-07_14h06.12.714,Surprise recog test,2023.1.3,59.94495852472344,
60,0,60,0,,,,,,,,,,,,,,,,,,,,,,,,,,,,,,,,,,426.1525228000246,427.17290380003396,424.7421313000377,424.7421313000377,424.7421313000377,424.7421313000377,old_stationery_8.png,61,3.0,1.41129550000187,,036,01,2025-02-07_14h06.12.714,Surprise recog test,2023.1.3,59.94495852472344,
61,0,61,0,,,,,,,,,,,,,,,,,,,,,,,,,,,,,,,,,,429.1875918000005,,427.17290380003396,427.17290380003396,427.17290380003396,427.17290380003396,old_sceneIn_5.png,62,5.0,2.0083364999154583,,036,01,2025-02-07_14h06.12.714,Surprise recog test,2023.1.3,59.94495852472344,
62,0,62,0,,,,,,,,,,,,,,,,,,,,,,,,,,,,,,,,,,432.0434274999425,433.06866919994354,430.20831649994943,430.20831649994943,430.20831649994943,430.20831649994943,old_stationery_47.png,63,2.0,1.8330750999739394,,036,01,2025-02-07_14h06.12.714,Surprise recog test,2023.1.3,59.94495852472344,
63,0,63,0,,,,,,,,,,,,,,,,,,,,,,,,,,,,,,,,,,434.3728632000275,435.39219769998454,433.06866919994354,433.06866919994354,433.06866919994354,433.06866919994354,new_sceneIn_37.png,64,3.0,1.3062349000247195,,036,01,2025-02-07_14h06.12.714,Surprise recog test,2023.1.3,59.94495852472344,
64,0,64,0,,,,,,,,,,,,,,,,,,,,,,,,,,,,,,,,,,436.8813055999344,437.9156743999338,435.39219769998454,435.39219769998454,435.39219769998454,435.39219769998454,old_fruit_41.png,65,4.0,1.4907567000482231,,036,01,2025-02-07_14h06.12.714,Surprise recog test,2023.1.3,59.94495852472344,
65,0,65,0,,,,,,,,,,,,,,,,,,,,,,,,,,,,,,,,,,439.94662379997317,,437.9156743999338,437.9156743999338,437.9156743999338,437.9156743999338,new_sceneIn_22.png,66,3.0,2.0321129999356344,,036,01,2025-02-07_14h06.12.714,Surprise recog test,2023.1.3,59.94495852472344,
66,0,66,0,,,,,,,,,,,,,,,,,,,,,,,,,,,,,,,,,,443.54583089996595,444.56448770000134,440.97872270003427,440.97872270003427,440.97872270003427,440.97872270003427,new_sceneIn_27.png,67,3.0,2.5639020000817254,,036,01,2025-02-07_14h06.12.714,Surprise recog test,2023.1.3,59.94495852472344,
67,0,67,0,,,,,,,,,,,,,,,,,,,,,,,,,,,,,,,,,,446.1603259999538,447.18480159994215,444.56448770000134,444.56448770000134,444.56448770000134,444.56448770000134,old_sceneIn_26.png,68,4.0,1.5966870000120252,,036,01,2025-02-07_14h06.12.714,Surprise recog test,2023.1.3,59.94495852472344,
68,0,68,0,,,,,,,,,,,,,,,,,,,,,,,,,,,,,,,,,,448.4886048999615,449.52041699993424,447.18480159994215,447.18480159994215,447.18480159994215,447.18480159994215,old_stationery_18.png,69,2.0,1.3050867000129074,,036,01,2025-02-07_14h06.12.714,Surprise recog test,2023.1.3,59.94495852472344,
69,0,69,0,,,,,,,,,,,,,,,,,,,,,,,,,,,,,,,,,,450.93101069994736,451.95046129997354,449.52041699993424,449.52041699993424,449.52041699993424,449.52041699993424,old_fruit_50.png,70,3.0,1.4114424999570474,,036,01,2025-02-07_14h06.12.714,Surprise recog test,2023.1.3,59.94495852472344,
70,0,70,0,,,,,,,,,,,,,,,,,,,,,,,,,,,,,,,,,,454.1522689999547,455.17437310004607,451.95046129997354,451.95046129997354,451.95046129997354,451.95046129997354,old_fruit_24.png,71,2.0,2.202841200050898,,036,01,2025-02-07_14h06.12.714,Surprise recog test,2023.1.3,59.94495852472344,
71,0,71,0,,,,,,,,,,,,,,,,,,,,,,,,,,,,,,,,,,456.45810329995584,457.4763262999477,455.17437310004607,455.17437310004607,455.17437310004607,455.17437310004607,old_sceneIn_7.png,72,3.0,1.2870275999885052,,036,01,2025-02-07_14h06.12.714,Surprise recog test,2023.1.3,59.94495852472344,
72,0,72,0,,,,,,,,,,,,,,,,,,,,,,,,,,,,,,,,,,459.80484490003437,460.8208952000132,457.4763262999477,457.4763262999477,457.4763262999477,457.4763262999477,new_sceneIn_24.png,73,2.0,2.330939000006765,,036,01,2025-02-07_14h06.12.714,Surprise recog test,2023.1.3,59.94495852472344,
73,0,73,0,,,,,,,,,,,,,,,,,,,,,,,,,,,,,,,,,,462.0628687000135,463.0780467999866,460.8208952000132,460.8208952000132,460.8208952000132,460.8208952000132,old_sceneOut_30.png,74,2.0,1.2396532000275329,,036,01,2025-02-07_14h06.12.714,Surprise recog test,2023.1.3,59.94495852472344,
74,0,74,0,,,,,,,,,,,,,,,,,,,,,,,,,,,,,,,,,,464.5777894000057,465.5890015999321,463.0780467999866,463.0780467999866,463.0780467999866,463.0780467999866,new_sceneIn_9.png,75,4.0,1.4970015999861062,,036,01,2025-02-07_14h06.12.714,Surprise recog test,2023.1.3,59.94495852472344,
75,0,75,0,,,,,,,,,,,,,,,,,,,,,,,,,,,,,,,,,,467.33996959996875,468.36784560000524,465.5890015999321,465.5890015999321,465.5890015999321,465.5890015999321,old_sceneIn_34.png,76,1.0,1.7459117999533191,,036,01,2025-02-07_14h06.12.714,Surprise recog test,2023.1.3,59.94495852472344,
76,0,76,0,,,,,,,,,,,,,,,,,,,,,,,,,,,,,,,,,,469.8392936999444,470.87098799995147,468.36784560000524,468.36784560000524,468.36784560000524,468.36784560000524,new_sceneIn_26.png,77,3.0,1.4725731000071391,,036,01,2025-02-07_14h06.12.714,Surprise recog test,2023.1.3,59.94495852472344,
77,0,77,0,,,,,,,,,,,,,,,,,,,,,,,,,,,,,,,,,,472.4003398999339,473.4237351999618,470.87098799995147,470.87098799995147,470.87098799995147,470.87098799995147,new_stationery_44.png,78,4.0,1.5314732999540865,,036,01,2025-02-07_14h06.12.714,Surprise recog test,2023.1.3,59.94495852472344,
78,0,78,0,,,,,,,,,,,,,,,,,,,,,,,,,,,,,,,,,,474.8770483999979,475.89696010004263,473.4237351999618,473.4237351999618,473.4237351999618,473.4237351999618,old_sceneIn_11.png,79,3.0,1.455195999937132,,036,01,2025-02-07_14h06.12.714,Surprise recog test,2023.1.3,59.94495852472344,
79,0,79,0,,,,,,,,,,,,,,,,,,,,,,,,,,,,,,,,,,477.3496181999799,478.3726930000121,475.89696010004263,475.89696010004263,475.89696010004263,475.89696010004263,old_stationery_50.png,80,2.0,1.448653299943544,,036,01,2025-02-07_14h06.12.714,Surprise recog test,2023.1.3,59.94495852472344,
80,0,80,0,,,,,,,,,,,,,,,,,,,,,,,,,,,,,,,,,,480.42981360002887,,478.3726930000121,478.3726930000121,478.3726930000121,478.3726930000121,old_sceneIn_36.png,81,3.0,2.059129099943675,,036,01,2025-02-07_14h06.12.714,Surprise recog test,2023.1.3,59.94495852472344,
81,0,81,0,,,,,,,,,,,,,,,,,,,,,,,,,,,,,,,,,,482.78703779994976,483.8168967999518,481.46359009994194,481.46359009994194,481.46359009994194,481.46359009994194,new_sceneOut_11.png,82,3.0,1.3248918000608683,,036,01,2025-02-07_14h06.12.714,Surprise recog test,2023.1.3,59.94495852472344,
82,0,82,0,,,,,,,,,,,,,,,,,,,,,,,,,,,,,,,,,,486.0459383999696,487.0561023999471,483.8168967999518,483.8168967999518,483.8168967999518,483.8168967999518,old_stationery_36.png,83,4.0,2.231967300060205,,036,01,2025-02-07_14h06.12.714,Surprise recog test,2023.1.3,59.94495852472344,
83,0,83,0,,,,,,,,,,,,,,,,,,,,,,,,,,,,,,,,,,488.60458819998894,489.6287687999429,487.0561023999471,487.0561023999471,487.0561023999471,487.0561023999471,new_sceneIn_45.png,84,4.0,1.5474942000582814,,036,01,2025-02-07_14h06.12.714,Surprise recog test,2023.1.3,59.94495852472344,
84,0,84,0,,,,,,,,,,,,,,,,,,,,,,,,,,,,,,,,,,490.9687868000474,491.9781766999513,489.6287687999429,489.6287687999429,489.6287687999429,489.6287687999429,new_sceneIn_39.png,85,4.0,1.3391826999140903,,036,01,2025-02-07_14h06.12.714,Surprise recog test,2023.1.3,59.94495852472344,
85,0,85,0,,,,,,,,,,,,,,,,,,,,,,,,,,,,,,,,,,494.4755917999428,,491.9781766999513,491.9781766999513,491.9781766999513,491.9781766999513,new_stationery_34.png,86,2.0,2.491607700008899,,036,01,2025-02-07_14h06.12.714,Surprise recog test,2023.1.3,59.94495852472344,
86,0,86,0,,,,,,,,,,,,,,,,,,,,,,,,,,,,,,,,,,497.85775910003576,498.8753505999921,495.5100084999576,495.5100084999576,495.5100084999576,495.5100084999576,new_fruit_18.png,87,2.0,2.3506697000702843,,036,01,2025-02-07_14h06.12.714,Surprise recog test,2023.1.3,59.94495852472344,
87,0,87,0,,,,,,,,,,,,,,,,,,,,,,,,,,,,,,,,,,500.19279649993405,501.2142930999398,498.8753505999921,498.8753505999921,498.8753505999921,498.8753505999921,old_fruit_15.png,88,3.0,1.3127406999701634,,036,01,2025-02-07_14h06.12.714,Surprise recog test,2023.1.3,59.94495852472344,
88,0,88,0,,,,,,,,,,,,,,,,,,,,,,,,,,,,,,,,,,502.7940273999702,503.81219720002264,501.2142930999398,501.2142930999398,501.2142930999398,501.2142930999398,old_fruit_13.png,89,4.0,1.5819511999143288,,036,01,2025-02-07_14h06.12.714,Surprise recog test,2023.1.3,59.94495852472344,
89,0,89,0,,,,,,,,,,,,,,,,,,,,,,,,,,,,,,,,,,506.1047380999662,507.13462060003076,503.81219720002264,503.81219720002264,503.81219720002264,503.81219720002264,old_sceneIn_32.png,90,3.0,2.2906727000372484,,036,01,2025-02-07_14h06.12.714,Surprise recog test,2023.1.3,59.94495852472344,
90,0,90,0,,,,,,,,,,,,,,,,,,,,,,,,,,,,,,,,,,508.19954639999196,509.21976050001103,507.13462060003076,507.13462060003076,507.13462060003076,507.13462060003076,new_stationery_37.png,91,3.0,1.0608860000502318,,036,01,2025-02-07_14h06.12.714,Surprise recog test,2023.1.3,59.94495852472344,
91,0,91,0,,,,,,,,,,,,,,,,,,,,,,,,,,,,,,,,,,510.97983289998956,512.0100533999503,509.21976050001103,509.21976050001103,509.21976050001103,509.21976050001103,old_sceneIn_10.png,92,3.0,1.7617723000003025,,036,01,2025-02-07_14h06.12.714,Surprise recog test,2023.1.3,59.94495852472344,
92,0,92,0,,,,,,,,,,,,,,,,,,,,,,,,,,,,,,,,,,513.5277875999454,514.5577759000007,512.0100533999503,512.0100533999503,512.0100533999503,512.0100533999503,old_sceneOut_47.png,93,3.0,1.5219257000135258,,036,01,2025-02-07_14h06.12.714,Surprise recog test,2023.1.3,59.94495852472344,
93,0,93,0,,,,,,,,,,,,,,,,,,,,,,,,,,,,,,,,,,516.164037700044,517.1934537999332,514.5577759000007,514.5577759000007,514.5577759000007,514.5577759000007,new_stationery_5.png,94,4.0,1.606615300057456,,036,01,2025-02-07_14h06.12.714,Surprise recog test,2023.1.3,59.94495852472344,
94,0,94,0,,,,,,,,,,,,,,,,,,,,,,,,,,,,,,,,,,518.1700401999988,519.1939026999753,517.1934537999332,517.1934537999332,517.1934537999332,517.1934537999332,new_sceneIn_44.png,95,4.0,0.9776872999500483,,036,01,2025-02-07_14h06.12.714,Surprise recog test,2023.1.3,59.94495852472344,
95,0,95,0,,,,,,,,,,,,,,,,,,,,,,,,,,,,,,,,,,520.7338697999949,521.762207099935,519.1939026999753,519.1939026999753,519.1939026999753,519.1939026999753,old_fruit_48.png,96,4.0,1.5402926999377087,,036,01,2025-02-07_14h06.12.714,Surprise recog test,2023.1.3,59.94495852472344,
96,0,96,0,,,,,,,,,,,,,,,,,,,,,,,,,,,,,,,,,,523.5233051000396,524.536198399961,521.762207099935,521.762207099935,521.762207099935,521.762207099935,new_sceneIn_33.png,97,2.0,1.7621496999636292,,036,01,2025-02-07_14h06.12.714,Surprise recog test,2023.1.3,59.94495852472344,
97,0,97,0,,,,,,,,,,,,,,,,,,,,,,,,,,,,,,,,,,525.9432606999762,526.9664951999439,524.536198399961,524.536198399961,524.536198399961,524.536198399961,new_stationery_10.png,98,2.0,1.4023845000192523,,036,01,2025-02-07_14h06.12.714,Surprise recog test,2023.1.3,59.94495852472344,
98,0,98,0,,,,,,,,,,,,,,,,,,,,,,,,,,,,,,,,,,528.0240136999637,529.0408432999393,526.9664951999439,526.9664951999439,526.9664951999439,526.9664951999439,new_sceneOut_39.png,99,3.0,1.0581963999429718,,036,01,2025-02-07_14h06.12.714,Surprise recog test,2023.1.3,59.94495852472344,
99,0,99,0,,,,,,,,,,,,,,,,,,,,,,,,,,,,,,,,,,530.5239131000126,531.5522642999422,529.0408432999393,529.0408432999393,529.0408432999393,529.0408432999393,old_sceneIn_49.png,100,4.0,1.4764910000376403,,036,01,2025-02-07_14h06.12.714,Surprise recog test,2023.1.3,59.94495852472344,
100,0,100,0,,,,,,,,,,,,,,,,,,,,,,,,,,,,,,,,,,532.6313934000209,533.6490345000057,531.5522642999422,531.5522642999422,531.5522642999422,531.5522642999422,new_sceneIn_18.png,101,4.0,1.0804658000124618,,036,01,2025-02-07_14h06.12.714,Surprise recog test,2023.1.3,59.94495852472344,
101,0,101,0,,,,,,,,,,,,,,,,,,,,,,,,,,,,,,,,,,535.5909454999492,536.5982053999323,533.6490345000057,533.6490345000057,533.6490345000057,533.6490345000057,old_fruit_22.png,102,3.0,1.9425252999644727,,036,01,2025-02-07_14h06.12.714,Surprise recog test,2023.1.3,59.94495852472344,
102,0,102,0,,,,,,,,,,,,,,,,,,,,,,,,,,,,,,,,,,538.154275399982,539.1768751000054,536.5982053999323,536.5982053999323,536.5982053999323,536.5982053999323,new_stationery_18.png,103,3.0,1.5519638999830931,,036,01,2025-02-07_14h06.12.714,Surprise recog test,2023.1.3,59.94495852472344,
103,0,103,0,,,,,,,,,,,,,,,,,,,,,,,,,,,,,,,,,,540.4468740000157,,539.1768751000054,539.1768751000054,539.1768751000054,539.1768751000054,old_sceneIn_15.png,104,4.0,1.270180999999866,,036,01,2025-02-07_14h06.12.714,Surprise recog test,2023.1.3,59.94495852472344,
104,0,104,0,,,,,,,,,,,,,,,,,,,,,,,,,,,,,,,,,,542.8587832000339,543.8711639000103,541.4785006999737,541.4785006999737,541.4785006999737,541.4785006999737,old_fruit_21.png,105,3.0,1.3822573000798002,,036,01,2025-02-07_14h06.12.714,Surprise recog test,2023.1.3,59.94495852472344,
105,0,105,0,,,,,,,,,,,,,,,,,,,,,,,,,,,,,,,,,,545.1812814000295,546.1883372999728,543.8711639000103,543.8711639000103,543.8711639000103,543.8711639000103,old_sceneIn_41.png,106,2.0,1.3075509000336751,,036,01,2025-02-07_14h06.12.714,Surprise recog test,2023.1.3,59.94495852472344,
106,0,106,0,,,,,,,,,,,,,,,,,,,,,,,,,,,,,,,,,,547.2944880999858,548.3219402999384,546.1883372999728,546.1883372999728,546.1883372999728,546.1883372999728,new_sceneOut_45.png,107,2.0,1.1023720999946818,,036,01,2025-02-07_14h06.12.714,Surprise recog test,2023.1.3,59.94495852472344,
107,0,107,0,,,,,,,,,,,,,,,,,,,,,,,,,,,,,,,,,,549.7545592000242,,548.3219402999384,548.3219402999384,548.3219402999384,548.3219402999384,old_fruit_14.png,108,4.0,1.432314799982123,,036,01,2025-02-07_14h06.12.714,Surprise recog test,2023.1.3,59.94495852472344,
108,0,108,0,,,,,,,,,,,,,,,,,,,,,,,,,,,,,,,,,,552.0939387000399,553.110922300024,550.7874195999466,550.7874195999466,550.7874195999466,550.7874195999466,old_sceneOut_33.png,109,3.0,1.3061415000120178,,036,01,2025-02-07_14h06.12.714,Surprise recog test,2023.1.3,59.94495852472344,
109,0,109,0,,,,,,,,,,,,,,,,,,,,,,,,,,,,,,,,,,555.0049949999666,556.0250396999763,553.110922300024,553.110922300024,553.110922300024,553.110922300024,old_stationery_27.png,110,1.0,1.883593500009738,,036,01,2025-02-07_14h06.12.714,Surprise recog test,2023.1.3,59.94495852472344,
110,0,110,0,,,,,,,,,,,,,,,,,,,,,,,,,,,,,,,,,,557.6665001999354,558.6918763000285,556.0250396999763,556.0250396999763,556.0250396999763,556.0250396999763,new_sceneIn_46.png,111,3.0,1.6443578999023885,,036,01,2025-02-07_14h06.12.714,Surprise recog test,2023.1.3,59.94495852472344,
111,0,111,0,,,,,,,,,,,,,,,,,,,,,,,,,,,,,,,,,,560.0035023000091,561.0305345000234,558.6918763000285,558.6918763000285,558.6918763000285,558.6918763000285,old_fruit_28.png,112,3.0,1.3125319000100717,,036,01,2025-02-07_14h06.12.714,Surprise recog test,2023.1.3,59.94495852472344,
112,0,112,0,,,,,,,,,,,,,,,,,,,,,,,,,,,,,,,,,,562.5420361999422,563.5532128999475,561.0305345000234,561.0305345000234,561.0305345000234,561.0305345000234,old_sceneIn_27.png,113,4.0,1.513809800031595,,036,01,2025-02-07_14h06.12.714,Surprise recog test,2023.1.3,59.94495852472344,
113,0,113,0,,,,,,,,,,,,,,,,,,,,,,,,,,,,,,,,,,565.7642638999969,566.7728798999451,563.5532128999475,563.5532128999475,563.5532128999475,563.5532128999475,old_fruit_36.png,114,3.0,2.204449599958025,,036,01,2025-02-07_14h06.12.714,Surprise recog test,2023.1.3,59.94495852472344,
114,0,114,0,,,,,,,,,,,,,,,,,,,,,,,,,,,,,,,,,,568.0472331999335,569.0654396000318,566.7728798999451,566.7728798999451,566.7728798999451,566.7728798999451,old_sceneOut_20.png,115,4.0,1.2699380000121891,,036,01,2025-02-07_14h06.12.714,Surprise recog test,2023.1.3,59.94495852472344,
115,0,115,0,,,,,,,,,,,,,,,,,,,,,,,,,,,,,,,,,,570.2130132999737,571.2382511999458,569.0654396000318,569.0654396000318,569.0654396000318,569.0654396000318,old_stationery_6.png,116,4.0,1.1453912999713793,,036,01,2025-02-07_14h06.12.714,Surprise recog test,2023.1.3,59.94495852472344,
116,0,116,0,,,,,,,,,,,,,,,,,,,,,,,,,,,,,,,,,,572.9365864000283,573.954941199976,571.2382511999458,571.2382511999458,571.2382511999458,571.2382511999458,old_sceneIn_23.png,117,2.0,1.6970090999966487,,036,01,2025-02-07_14h06.12.714,Surprise recog test,2023.1.3,59.94495852472344,
117,0,117,0,,,,,,,,,,,,,,,,,,,,,,,,,,,,,,,,,,575.5642402999802,576.5802335999906,573.954941199976,573.954941199976,573.954941199976,573.954941199976,new_sceneOut_18.png,118,4.0,1.6085012000985444,,036,01,2025-02-07_14h06.12.714,Surprise recog test,2023.1.3,59.94495852472344,
118,0,118,0,,,,,,,,,,,,,,,,,,,,,,,,,,,,,,,,,,578.218092199997,579.2394015999744,576.5802335999906,576.5802335999906,576.5802335999906,576.5802335999906,new_stationery_19.png,119,3.0,1.6337941999081522,,036,01,2025-02-07_14h06.12.714,Surprise recog test,2023.1.3,59.94495852472344,
119,0,119,0,,,,,,,,,,,,,,,,,,,,,,,,,,,,,,,,,,580.8864505999954,581.9113409999991,579.2394015999744,579.2394015999744,579.2394015999744,579.2394015999744,new_fruit_17.png,120,4.0,1.6424231000710279,,036,01,2025-02-07_14h06.12.714,Surprise recog test,2023.1.3,59.94495852472344,
120,0,120,0,,,,,,,,,,,,,,,,,,,,,,,,,,,,,,,,,,583.3272385000018,584.336801999947,581.9113409999991,581.9113409999991,581.9113409999991,581.9113409999991,old_stationery_20.png,121,3.0,1.4171645999886096,,036,01,2025-02-07_14h06.12.714,Surprise recog test,2023.1.3,59.94495852472344,
121,0,121,0,,,,,,,,,,,,,,,,,,,,,,,,,,,,,,,,,,586.1717890000436,587.1899984999327,584.336801999947,584.336801999947,584.336801999947,584.336801999947,old_stationery_32.png,122,2.0,1.8307063999818638,,036,01,2025-02-07_14h06.12.714,Surprise recog test,2023.1.3,59.94495852472344,
122,0,122,0,,,,,,,,,,,,,,,,,,,,,,,,,,,,,,,,,,588.9938472999493,590.0182396000018,587.1899984999327,587.1899984999327,587.1899984999327,587.1899984999327,old_sceneIn_22.png,123,4.0,1.7977902999846265,,036,01,2025-02-07_14h06.12.714,Surprise recog test,2023.1.3,59.94495852472344,
123,0,123,0,,,,,,,,,,,,,,,,,,,,,,,,,,,,,,,,,,591.5413659999613,592.5701469000196,590.0182396000018,590.0182396000018,590.0182396000018,590.0182396000018,new_fruit_34.png,124,4.0,1.5220086999470368,,036,01,2025-02-07_14h06.12.714,Surprise recog test,2023.1.3,59.94495852472344,
124,0,124,0,,,,,,,,,,,,,,,,,,,,,,,,,,,,,,,,,,593.5136907999404,594.5412477999926,592.5701469000196,592.5701469000196,592.5701469000196,592.5701469000196,new_stationery_43.png,125,4.0,0.9468361999606714,,036,01,2025-02-07_14h06.12.714,Surprise recog test,2023.1.3,59.94495852472344,
125,0,125,0,,,,,,,,,,,,,,,,,,,,,,,,,,,,,,,,,,595.9423384999391,,594.5412477999926,594.5412477999926,594.5412477999926,594.5412477999926,old_stationery_3.png,126,4.0,1.400852599996142,,036,01,2025-02-07_14h06.12.714,Surprise recog test,2023.1.3,59.94495852472344,
126,0,126,0,,,,,,,,,,,,,,,,,,,,,,,,,,,,,,,,,,598.26903700002,599.2973557999358,596.9692900000373,596.9692900000373,596.9692900000373,596.9692900000373,new_stationery_11.png,127,4.0,1.301136700087227,,036,01,2025-02-07_14h06.12.714,Surprise recog test,2023.1.3,59.94495852472344,
127,0,127,0,,,,,,,,,,,,,,,,,,,,,,,,,,,,,,,,,,600.8610026999377,601.8839153000154,599.2973557999358,599.2973557999358,599.2973557999358,599.2973557999358,old_sceneOut_45.png,128,3.0,1.566045599989593,,036,01,2025-02-07_14h06.12.714,Surprise recog test,2023.1.3,59.94495852472344,
128,0,128,0,,,,,,,,,,,,,,,,,,,,,,,,,,,,,,,,,,603.0497972000157,604.0807363999775,601.8839153000154,601.8839153000154,601.8839153000154,601.8839153000154,new_sceneOut_3.png,129,3.0,1.1703225000528619,,036,01,2025-02-07_14h06.12.714,Surprise recog test,2023.1.3,59.94495852472344,
129,0,129,0,,,,,,,,,,,,,,,,,,,,,,,,,,,,,,,,,,605.9022818999365,606.9233276000014,604.0807363999775,604.0807363999775,604.0807363999775,604.0807363999775,new_sceneIn_25.png,130,4.0,1.8239331000950187,,036,01,2025-02-07_14h06.12.714,Surprise recog test,2023.1.3,59.94495852472344,
130,0,130,0,,,,,,,,,,,,,,,,,,,,,,,,,,,,,,,,,,608.0662831999362,609.0892753000371,606.9233276000014,606.9233276000014,606.9233276000014,606.9233276000014,new_stationery_26.png,131,4.0,1.1383286999771371,,036,01,2025-02-07_14h06.12.714,Surprise recog test,2023.1.3,59.94495852472344,
131,0,131,0,,,,,,,,,,,,,,,,,,,,,,,,,,,,,,,,,,610.7294940999709,611.7547699999996,609.0892753000371,609.0892753000371,609.0892753000371,609.0892753000371,new_fruit_28.png,132,2.0,1.643597099930048,,036,01,2025-02-07_14h06.12.714,Surprise recog test,2023.1.3,59.94495852472344,
132,0,132,0,,,,,,,,,,,,,,,,,,,,,,,,,,,,,,,,,,613.1737617000472,,611.7547699999996,611.7547699999996,611.7547699999996,611.7547699999996,new_stationery_7.png,133,4.0,1.4210438000736758,,036,01,2025-02-07_14h06.12.714,Surprise recog test,2023.1.3,59.94495852472344,
133,0,133,0,,,,,,,,,,,,,,,,,,,,,,,,,,,,,,,,,,616.1138028999558,617.143698800006,614.2047236999497,614.2047236999497,614.2047236999497,614.2047236999497,old_sceneIn_48.png,134,2.0,1.9106853998964652,,036,01,2025-02-07_14h06.12.714,Surprise recog test,2023.1.3,59.94495852472344,
134,0,134,0,,,,,,,,,,,,,,,,,,,,,,,,,,,,,,,,,,619.4100975999609,620.429279700038,617.143698800006,617.143698800006,617.143698800006,617.143698800006,old_sceneIn_20.png,135,3.0,2.268240600009449,,036,01,2025-02-07_14h06.12.714,Surprise recog test,2023.1.3,59.94495852472344,
135,0,135,0,,,,,,,,,,,,,,,,,,,,,,,,,,,,,,,,,,621.5074059000472,622.5184353999794,620.429279700038,620.429279700038,620.429279700038,620.429279700038,new_fruit_41.png,136,4.0,1.080785600002855,,036,01,2025-02-07_14h06.12.714,Surprise recog test,2023.1.3,59.94495852472344,
136,0,136,0,,,,,,,,,,,,,,,,,,,,,,,,,,,,,,,,,,623.5797449999955,624.5869133999804,622.5184353999794,622.5184353999794,622.5184353999794,622.5184353999794,new_fruit_11.png,137,4.0,1.0574690999928862,,036,01,2025-02-07_14h06.12.714,Surprise recog test,2023.1.3,59.94495852472344,
137,0,137,0,,,,,,,,,,,,,,,,,,,,,,,,,,,,,,,,,,625.382214799989,626.3990800000029,624.5869133999804,624.5869133999804,624.5869133999804,624.5869133999804,old_fruit_3.png,138,4.0,0.789350000093691,,036,01,2025-02-07_14h06.12.714,Surprise recog test,2023.1.3,59.94495852472344,
138,0,138,0,,,,,,,,,,,,,,,,,,,,,,,,,,,,,,,,,,628.3774398999522,629.4045967999846,626.3990800000029,626.3990800000029,626.3990800000029,626.3990800000029,old_fruit_32.png,139,4.0,1.9819074999541044,,036,01,2025-02-07_14h06.12.714,Surprise recog test,2023.1.3,59.94495852472344,
139,0,139,0,,,,,,,,,,,,,,,,,,,,,,,,,,,,,,,,,,631.0148018000182,632.0233069999376,629.4045967999846,629.4045967999846,629.4045967999846,629.4045967999846,old_stationery_16.png,140,1.0,1.6127632999559864,,036,01,2025-02-07_14h06.12.714,Surprise recog test,2023.1.3,59.94495852472344,
140,0,140,0,,,,,,,,,,,,,,,,,,,,,,,,,,,,,,,,,,634.2231175999623,,632.0233069999376,632.0233069999376,632.0233069999376,632.0233069999376,old_fruit_43.png,141,3.0,2.1952225000131875,,036,01,2025-02-07_14h06.12.714,Surprise recog test,2023.1.3,59.94495852472344,
141,0,141,0,,,,,,,,,,,,,,,,,,,,,,,,,,,,,,,,,,636.766322899959,637.8028593999334,635.2581217000261,635.2581217000261,635.2581217000261,635.2581217000261,new_fruit_26.png,142,4.0,1.5089201999362558,,036,01,2025-02-07_14h06.12.714,Surprise recog test,2023.1.3,59.94495852472344,
142,0,142,0,,,,,,,,,,,,,,,,,,,,,,,,,,,,,,,,,,638.8834955999628,639.9100924000377,637.8028593999334,637.8028593999334,637.8028593999334,637.8028593999334,old_fruit_19.png,143,4.0,1.086212099995464,,036,01,2025-02-07_14h06.12.714,Surprise recog test,2023.1.3,59.94495852472344,
143,0,143,0,,,,,,,,,,,,,,,,,,,,,,,,,,,,,,,,,,642.5053008999676,643.5361688999692,639.9100924000377,639.9100924000377,639.9100924000377,639.9100924000377,new_sceneOut_29.png,144,4.0,2.5947621000232175,,036,01,2025-02-07_14h06.12.714,Surprise recog test,2023.1.3,59.94495852472344,
144,0,144,0,,,,,,,,,,,,,,,,,,,,,,,,,,,,,,,,,,645.0458614999661,646.0666036000475,643.5361688999692,643.5361688999692,643.5361688999692,643.5361688999692,old_fruit_1.png,145,2.0,1.5104485999327153,,036,01,2025-02-07_14h06.12.714,Surprise recog test,2023.1.3,59.94495852472344,
145,0,145,0,,,,,,,,,,,,,,,,,,,,,,,,,,,,,,,,,,647.1620187000372,648.1868781000376,646.0666036000475,646.0666036000475,646.0666036000475,646.0666036000475,new_sceneOut_31.png,146,3.0,1.0970575000392273,,036,01,2025-02-07_14h06.12.714,Surprise recog test,2023.1.3,59.94495852472344,
146,0,146,0,,,,,,,,,,,,,,,,,,,,,,,,,,,,,,,,,,650.5483946000459,651.572994899936,648.1868781000376,648.1868781000376,648.1868781000376,648.1868781000376,old_fruit_38.png,147,1.0,2.361964499927126,,036,01,2025-02-07_14h06.12.714,Surprise recog test,2023.1.3,59.94495852472344,
147,0,147,0,,,,,,,,,,,,,,,,,,,,,,,,,,,,,,,,,,653.0510157999815,654.0744632999413,651.572994899936,651.572994899936,651.572994899936,651.572994899936,new_sceneIn_20.png,148,3.0,1.4801773000508547,,036,01,2025-02-07_14h06.12.714,Surprise recog test,2023.1.3,59.94495852472344,
148,0,148,0,,,,,,,,,,,,,,,,,,,,,,,,,,,,,,,,,,655.8761574999662,,654.0744632999413,654.0744632999413,654.0744632999413,654.0744632999413,new_sceneIn_8.png,149,3.0,1.804377300082706,,036,01,2025-02-07_14h06.12.714,Surprise recog test,2023.1.3,59.94495852472344,
149,0,149,0,,,,,,,,,,,,,,,,,,,,,,,,,,,,,,,,,,658.4174945999403,659.433638599934,656.9087337999372,656.9087337999372,656.9087337999372,656.9087337999372,old_sceneIn_16.png,150,4.0,1.5091494999360293,,036,01,2025-02-07_14h06.12.714,Surprise recog test,2023.1.3,59.94495852472344,
150,0,150,0,,,,,,,,,,,,,,,,,,,,,,,,,,,,,,,,,,660.5907708000159,661.599948399933,659.433638599934,659.433638599934,659.433638599934,659.433638599934,old_sceneOut_10.png,151,4.0,1.1530727000208572,,036,01,2025-02-07_14h06.12.714,Surprise recog test,2023.1.3,59.94495852472344,
151,0,151,0,,,,,,,,,,,,,,,,,,,,,,,,,,,,,,,,,,662.9199805000098,663.9494985999772,661.599948399933,661.599948399933,661.599948399933,661.599948399933,old_sceneOut_22.png,152,4.0,1.3164166999049485,,036,01,2025-02-07_14h06.12.714,Surprise recog test,2023.1.3,59.94495852472344,
152,0,152,0,,,,,,,,,,,,,,,,,,,,,,,,,,,,,,,,,,665.3465507000219,666.3518344999757,663.9494985999772,663.9494985999772,663.9494985999772,663.9494985999772,old_stationery_45.png,153,4.0,1.3982630000682548,,036,01,2025-02-07_14h06.12.714,Surprise recog test,2023.1.3,59.94495852472344,
153,0,153,0,,,,,,,,,,,,,,,,,,,,,,,,,,,,,,,,,,668.1556715000188,669.1915276999352,666.3518344999757,666.3518344999757,666.3518344999757,666.3518344999757,old_fruit_2.png,154,4.0,1.7987609000410885,,036,01,2025-02-07_14h06.12.714,Surprise recog test,2023.1.3,59.94495852472344,
154,0,154,0,,,,,,,,,,,,,,,,,,,,,,,,,,,,,,,,,,670.186470799963,,669.1915276999352,669.1915276999352,669.1915276999352,669.1915276999352,new_sceneOut_23.png,155,4.0,0.9982949999393895,,036,01,2025-02-07_14h06.12.714,Surprise recog test,2023.1.3,59.94495852472344,
155,0,155,0,,,,,,,,,,,,,,,,,,,,,,,,,,,,,,,,,,672.0524491999531,673.0729951999383,671.2088597000111,671.2088597000111,671.2088597000111,671.2088597000111,new_sceneOut_35.png,156,4.0,0.8346722999121994,,036,01,2025-02-07_14h06.12.714,Surprise recog test,2023.1.3,59.94495852472344,
156,0,156,0,,,,,,,,,,,,,,,,,,,,,,,,,,,,,,,,,,676.6909479999449,677.7040366999572,673.0729951999383,673.0729951999383,673.0729951999383,673.0729951999383,new_fruit_3.png,157,4.0,3.6213820000411943,,036,01,2025-02-07_14h06.12.714,Surprise recog test,2023.1.3,59.94495852472344,
157,0,157,0,,,,,,,,,,,,,,,,,,,,,,,,,,,,,,,,,,678.8580382999498,679.8693096999777,677.7040366999572,677.7040366999572,677.7040366999572,677.7040366999572,new_sceneOut_14.png,158,4.0,1.1479890000773594,,036,01,2025-02-07_14h06.12.714,Surprise recog test,2023.1.3,59.94495852472344,
158,0,158,0,,,,,,,,,,,,,,,,,,,,,,,,,,,,,,,,,,681.8356156999944,682.8667964999331,679.8693096999777,679.8693096999777,679.8693096999777,679.8693096999777,old_stationery_38.png,159,3.0,1.9642292000353336,,036,01,2025-02-07_14h06.12.714,Surprise recog test,2023.1.3,59.94495852472344,
159,0,159,0,,,,,,,,,,,,,,,,,,,,,,,,,,,,,,,,,,684.2999339000089,,682.8667964999331,682.8667964999331,682.8667964999331,682.8667964999331,new_fruit_14.png,160,4.0,1.4362369999289513,,036,01,2025-02-07_14h06.12.714,Surprise recog test,2023.1.3,59.94495852472344,
160,0,160,0,,,,,,,,,,,,,,,,,,,,,,,,,,,,,,,,,,686.5863901999546,687.6151176999556,685.3194497999502,685.3194497999502,685.3194497999502,685.3194497999502,old_stationery_34.png,161,3.0,1.2635767000028864,,036,01,2025-02-07_14h06.12.714,Surprise recog test,2023.1.3,59.94495852472344,
161,0,161,0,,,,,,,,,,,,,,,,,,,,,,,,,,,,,,,,,,689.2080242999364,690.2260384999681,687.6151176999556,687.6151176999556,687.6151176999556,687.6151176999556,new_stationery_47.png,162,3.0,1.5939362000208348,,036,01,2025-02-07_14h06.12.714,Surprise recog test,2023.1.3,59.94495852472344,
162,0,162,0,,,,,,,,,,,,,,,,,,,,,,,,,,,,,,,,,,692.1024308999768,693.1111072000349,690.2260384999681,690.2260384999681,690.2260384999681,690.2260384999681,old_sceneIn_14.png,163,2.0,1.871696999995038,,036,01,2025-02-07_14h06.12.714,Surprise recog test,2023.1.3,59.94495852472344,
163,0,163,0,,,,,,,,,,,,,,,,,,,,,,,,,,,,,,,,,,694.8828791000415,695.9092039000243,693.1111072000349,693.1111072000349,693.1111072000349,693.1111072000349,old_sceneIn_19.png,164,3.0,1.76701419998426,,036,01,2025-02-07_14h06.12.714,Surprise recog test,2023.1.3,59.94495852472344,
164,0,164,0,,,,,,,,,,,,,,,,,,,,,,,,,,,,,,,,,,697.1133836000226,698.1426202999428,695.9092039000243,695.9092039000243,695.9092039000243,695.9092039000243,new_stationery_22.png,165,3.0,1.2047081999480724,,036,01,2025-02-07_14h06.12.714,Surprise recog test,2023.1.3,59.94495852472344,
165,0,165,0,,,,,,,,,,,,,,,,,,,,,,,,,,,,,,,,,,700.3108494000044,701.3181392999832,698.1426202999428,698.1426202999428,698.1426202999428,698.1426202999428,old_sceneOut_17.png,166,4.0,2.1693350999848917,,036,01,2025-02-07_14h06.12.714,Surprise recog test,2023.1.3,59.94495852472344,
166,0,166,0,,,,,,,,,,,,,,,,,,,,,,,,,,,,,,,,,,703.5546191999456,704.5715251000365,701.3181392999832,701.3181392999832,701.3181392999832,701.3181392999832,old_sceneIn_4.png,167,4.0,2.232683500042185,,036,01,2025-02-07_14h06.12.714,Surprise recog test,2023.1.3,59.94495852472344,
167,0,167,0,,,,,,,,,,,,,,,,,,,,,,,,,,,,,,,,,,706.0636586999753,707.0864556999877,704.5715251000365,704.5715251000365,704.5715251000365,704.5715251000365,old_sceneIn_8.png,168,2.0,1.4878220999380574,,036,01,2025-02-07_14h06.12.714,Surprise recog test,2023.1.3,59.94495852472344,
168,0,168,0,,,,,,,,,,,,,,,,,,,,,,,,,,,,,,,,,,708.186728599947,,707.0864556999877,707.0864556999877,707.0864556999877,707.0864556999877,old_sceneOut_44.png,169,2.0,1.1034962000558153,,036,01,2025-02-07_14h06.12.714,Surprise recog test,2023.1.3,59.94495852472344,
169,0,169,0,,,,,,,,,,,,,,,,,,,,,,,,,,,,,,,,,,710.701260700007,711.7102577999467,709.2067469999893,709.2067469999893,709.2067469999893,709.2067469999893,old_stationery_1.png,170,3.0,1.487663200008683,,036,01,2025-02-07_14h06.12.714,Surprise recog test,2023.1.3,59.94495852472344,
170,0,170,0,,,,,,,,,,,,,,,,,,,,,,,,,,,,,,,,,,714.1334969999734,715.1518249999499,711.7102577999467,711.7102577999467,711.7102577999467,711.7102577999467,new_fruit_16.png,171,4.0,2.418902299948968,,036,01,2025-02-07_14h06.12.714,Surprise recog test,2023.1.3,59.94495852472344,
171,0,171,0,,,,,,,,,,,,,,,,,,,,,,,,,,,,,,,,,,716.3622425999492,717.3924192000413,715.1518249999499,715.1518249999499,715.1518249999499,715.1518249999499,old_stationery_33.png,172,4.0,1.2075878999894485,,036,01,2025-02-07_14h06.12.714,Surprise recog test,2023.1.3,59.94495852472344,
172,0,172,0,,,,,,,,,,,,,,,,,,,,,,,,,,,,,,,,,,719.3071547000436,720.3273541999515,717.3924192000413,717.3924192000413,717.3924192000413,717.3924192000413,old_sceneIn_18.png,173,4.0,1.9144557999679819,,036,01,2025-02-07_14h06.12.714,Surprise recog test,2023.1.3,59.94495852472344,
173,0,173,0,,,,,,,,,,,,,,,,,,,,,,,,,,,,,,,,,,722.2269038000377,723.2363770999946,720.3273541999515,720.3273541999515,720.3273541999515,720.3273541999515,new_stationery_36.png,174,4.0,1.899183899979107,,036,01,2025-02-07_14h06.12.714,Surprise recog test,2023.1.3,59.94495852472344,
174,0,174,0,,,,,,,,,,,,,,,,,,,,,,,,,,,,,,,,,,724.463072399958,725.4853291000472,723.2363770999946,723.2363770999946,723.2363770999946,723.2363770999946,new_sceneIn_21.png,175,4.0,1.2230375000508502,,036,01,2025-02-07_14h06.12.714,Surprise recog test,2023.1.3,59.94495852472344,
175,0,175,0,,,,,,,,,,,,,,,,,,,,,,,,,,,,,,,,,,726.80294590001,727.8230839000316,725.4853291000472,725.4853291000472,725.4853291000472,725.4853291000472,old_sceneIn_2.png,176,4.0,1.3206836000317708,,036,01,2025-02-07_14h06.12.714,Surprise recog test,2023.1.3,59.94495852472344,
176,0,176,0,,,,,,,,,,,,,,,,,,,,,,,,,,,,,,,,,,729.6970341999549,730.7233264000388,727.8230839000316,727.8230839000316,727.8230839000316,727.8230839000316,new_sceneOut_10.png,177,4.0,1.8694637999869883,,036,01,2025-02-07_14h06.12.714,Surprise recog test,2023.1.3,59.94495852472344,
177,0,177,0,,,,,,,,,,,,,,,,,,,,,,,,,,,,,,,,,,732.0825496999314,733.1052393999416,730.7233264000388,730.7233264000388,730.7233264000388,730.7233264000388,old_sceneOut_48.png,178,3.0,1.3624422999564558,,036,01,2025-02-07_14h06.12.714,Surprise recog test,2023.1.3,59.94495852472344,
178,0,178,0,,,,,,,,,,,,,,,,,,,,,,,,,,,,,,,,,,734.7457374000223,735.7624173000222,733.1052393999416,733.1052393999416,733.1052393999416,733.1052393999416,new_sceneIn_19.png,179,4.0,1.6406704999972135,,036,01,2025-02-07_14h06.12.714,Surprise recog test,2023.1.3,59.94495852472344,
179,0,179,0,,,,,,,,,,,,,,,,,,,,,,,,,,,,,,,,,,736.8426486999961,,735.7624173000222,735.7624173000222,735.7624173000222,735.7624173000222,new_sceneOut_5.png,180,4.0,1.0755948999430984,,036,01,2025-02-07_14h06.12.714,Surprise recog test,2023.1.3,59.94495852472344,
180,0,180,0,,,,,,,,,,,,,,,,,,,,,,,,,,,,,,,,,,738.973939999938,739.9975125000346,737.8802992999554,737.8802992999554,737.8802992999554,737.8802992999554,new_sceneIn_31.png,181,4.0,1.0978539999341592,,036,01,2025-02-07_14h06.12.714,Surprise recog test,2023.1.3,59.94495852472344,
181,0,181,0,,,,,,,,,,,,,,,,,,,,,,,,,,,,,,,,,,741.1505811000243,742.1812333000125,739.9975125000346,739.9975125000346,739.9975125000346,739.9975125000346,old_stationery_30.png,182,4.0,1.1548341000452638,,036,01,2025-02-07_14h06.12.714,Surprise recog test,2023.1.3,59.94495852472344,
182,0,182,0,,,,,,,,,,,,,,,,,,,,,,,,,,,,,,,,,,744.3294599000365,745.3499405999901,742.1812333000125,742.1812333000125,742.1812333000125,742.1812333000125,old_sceneOut_5.png,183,3.0,2.1500461000250652,,036,01,2025-02-07_14h06.12.714,Surprise recog test,2023.1.3,59.94495852472344,
183,0,183,0,,,,,,,,,,,,,,,,,,,,,,,,,,,,,,,,,,746.7083402000135,747.7338315999368,745.3499405999901,745.3499405999901,745.3499405999901,745.3499405999901,old_sceneIn_31.png,184,4.0,1.360832899925299,,036,01,2025-02-07_14h06.12.714,Surprise recog test,2023.1.3,59.94495852472344,
184,0,184,0,,,,,,,,,,,,,,,,,,,,,,,,,,,,,,,,,,749.3555298999418,750.3869395999936,747.7338315999368,747.7338315999368,747.7338315999368,747.7338315999368,old_sceneIn_40.png,185,4.0,1.6207234000321478,,036,01,2025-02-07_14h06.12.714,Surprise recog test,2023.1.3,59.94495852472344,
185,0,185,0,,,,,,,,,,,,,,,,,,,,,,,,,,,,,,,,,,751.5033292999724,752.5290335000027,750.3869395999936,750.3869395999936,750.3869395999936,750.3869395999936,old_fruit_31.png,186,4.0,1.1102455999935046,,036,01,2025-02-07_14h06.12.714,Surprise recog test,2023.1.3,59.94495852472344,
186,0,186,0,,,,,,,,,,,,,,,,,,,,,,,,,,,,,,,,,,753.6538754999638,754.6737775999354,752.5290335000027,752.5290335000027,752.5290335000027,752.5290335000027,new_sceneOut_16.png,187,4.0,1.1212431999156252,,036,01,2025-02-07_14h06.12.714,Surprise recog test,2023.1.3,59.94495852472344,
187,0,187,0,,,,,,,,,,,,,,,,,,,,,,,,,,,,,,,,,,755.9272405999945,756.9479697999777,754.6737775999354,754.6737775999354,754.6737775999354,754.6737775999354,old_sceneOut_24.png,188,4.0,1.256353500066325,,036,01,2025-02-07_14h06.12.714,Surprise recog test,2023.1.3,59.94495852472344,
188,0,188,0,,,,,,,,,,,,,,,,,,,,,,,,,,,,,,,,,,759.6551365000196,760.6670174000319,756.9479697999777,756.9479697999777,756.9479697999777,756.9479697999777,old_fruit_46.png,189,3.0,2.7008524999255314,,036,01,2025-02-07_14h06.12.714,Surprise recog test,2023.1.3,59.94495852472344,
189,0,189,0,,,,,,,,,,,,,,,,,,,,,,,,,,,,,,,,,,762.1778298999416,763.203274999978,760.6670174000319,760.6670174000319,760.6670174000319,760.6670174000319,new_fruit_5.png,190,4.0,1.503655800013803,,036,01,2025-02-07_14h06.12.714,Surprise recog test,2023.1.3,59.94495852472344,
190,0,190,0,,,,,,,,,,,,,,,,,,,,,,,,,,,,,,,,,,764.6022579999408,765.6339780000271,763.203274999978,763.203274999978,763.203274999978,763.203274999978,new_fruit_29.png,191,4.0,1.4027134999632835,,036,01,2025-02-07_14h06.12.714,Surprise recog test,2023.1.3,59.94495852472344,
191,0,191,0,,,,,,,,,,,,,,,,,,,,,,,,,,,,,,,,,,767.0002985999454,,765.6339780000271,765.6339780000271,765.6339780000271,765.6339780000271,old_sceneOut_16.png,192,4.0,1.3662310000509024,,036,01,2025-02-07_14h06.12.714,Surprise recog test,2023.1.3,59.94495852472344,
192,0,192,0,,,,,,,,,,,,,,,,,,,,,,,,,,,,,,,,,,770.1830751999514,771.2040221999632,768.0346732999897,768.0346732999897,768.0346732999897,768.0346732999897,old_sceneIn_38.png,193,4.0,2.1485472000204027,,036,01,2025-02-07_14h06.12.714,Surprise recog test,2023.1.3,59.94495852472344,
193,0,193,0,,,,,,,,,,,,,,,,,,,,,,,,,,,,,,,,,,772.5549732999643,,771.2040221999632,771.2040221999632,771.2040221999632,771.2040221999632,new_sceneIn_42.png,194,4.0,1.3530385000631213,,036,01,2025-02-07_14h06.12.714,Surprise recog test,2023.1.3,59.94495852472344,
194,0,194,0,,,,,,,,,,,,,,,,,,,,,,,,,,,,,,,,,,774.7644417999545,775.7916810000315,773.5888909000205,773.5888909000205,773.5888909000205,773.5888909000205,new_fruit_6.png,195,4.0,1.1759444000199437,,036,01,2025-02-07_14h06.12.714,Surprise recog test,2023.1.3,59.94495852472344,
195,0,195,0,,,,,,,,,,,,,,,,,,,,,,,,,,,,,,,,,,777.2999128999654,778.3250574000413,775.7916810000315,775.7916810000315,775.7916810000315,775.7916810000315,old_sceneIn_25.png,196,4.0,1.509554799995385,,036,01,2025-02-07_14h06.12.714,Surprise recog test,2023.1.3,59.94495852472344,
196,0,196,0,,,,,,,,,,,,,,,,,,,,,,,,,,,,,,,,,,779.4567779999925,780.4761842000298,778.3250574000413,778.3250574000413,778.3250574000413,778.3250574000413,old_fruit_5.png,197,4.0,1.1348174000158906,,036,01,2025-02-07_14h06.12.714,Surprise recog test,2023.1.3,59.94495852472344,
197,0,197,0,,,,,,,,,,,,,,,,,,,,,,,,,,,,,,,,,,781.5064460999565,782.5315708999988,780.4761842000298,780.4761842000298,780.4761842000298,780.4761842000298,new_sceneOut_22.png,198,4.0,1.0291323000565171,,036,01,2025-02-07_14h06.12.714,Surprise recog test,2023.1.3,59.94495852472344,
198,0,198,0,,,,,,,,,,,,,,,,,,,,,,,,,,,,,,,,,,785.2090621000389,786.2215937000001,782.5315708999988,782.5315708999988,782.5315708999988,782.5315708999988,old_fruit_12.png,199,4.0,2.678491899976507,,036,01,2025-02-07_14h06.12.714,Surprise recog test,2023.1.3,59.94495852472344,
199,0,199,0,,,,,,,,,,,,,,,,,,,,,,,,,,,,,,,,,,788.592385899974,789.60472199996,786.2215937000001,786.2215937000001,786.2215937000001,786.2215937000001,new_stationery_16.png,200,4.0,2.365692500025034,,036,01,2025-02-07_14h06.12.714,Surprise recog test,2023.1.3,59.94495852472344,
200,0,200,0,,,,,,,,,,,,,,,,,,,,,,,,,,,,,,,,,,792.1383115999633,,789.60472199996,789.60472199996,789.60472199996,789.60472199996,new_stationery_40.png,201,4.0,2.5213318000314757,,036,01,2025-02-07_14h06.12.714,Surprise recog test,2023.1.3,59.94495852472344,
201,0,201,0,,,,,,,,,,,,,,,,,,,,,,,,,,,,,,,,,,794.6314277999336,795.6580330999568,793.1594071999425,793.1594071999425,793.1594071999425,793.1594071999425,new_sceneIn_3.png,202,4.0,1.465735899982974,,036,01,2025-02-07_14h06.12.714,Surprise recog test,2023.1.3,59.94495852472344,
202,0,202,0,,,,,,,,,,,,,,,,,,,,,,,,,,,,,,,,,,797.5539474999532,798.5843387999339,795.6580330999568,795.6580330999568,795.6580330999568,795.6580330999568,new_sceneOut_15.png,203,4.0,1.8985964000457898,,036,01,2025-02-07_14h06.12.714,Surprise recog test,2023.1.3,59.94495852472344,
203,0,203,0,,,,,,,,,,,,,,,,,,,,,,,,,,,,,,,,,,799.617697800044,800.6429429999553,798.5843387999339,798.5843387999339,798.5843387999339,798.5843387999339,new_sceneIn_41.png,204,4.0,1.0372974999481812,,036,01,2025-02-07_14h06.12.714,Surprise recog test,2023.1.3,59.94495852472344,
204,0,204,0,,,,,,,,,,,,,,,,,,,,,,,,,,,,,,,,,,803.1981478999369,,800.6429429999553,800.6429429999553,800.6429429999553,800.6429429999553,new_fruit_10.png,205,4.0,2.55722719989717,,036,01,2025-02-07_14h06.12.714,Surprise recog test,2023.1.3,59.94495852472344,
205,0,205,0,,,,,,,,,,,,,,,,,,,,,,,,,,,,,,,,,,805.7160548999673,,804.2320814999985,804.2320814999985,804.2320814999985,804.2320814999985,old_sceneOut_8.png,206,3.0,1.485277900006622,,036,01,2025-02-07_14h06.12.714,Surprise recog test,2023.1.3,59.94495852472344,
206,0,206,0,,,,,,,,,,,,,,,,,,,,,,,,,,,,,,,,,,809.6475013999734,810.658868700033,806.7440454999451,806.7440454999451,806.7440454999451,806.7440454999451,new_sceneIn_48.png,207,4.0,2.9014304999727756,,036,01,2025-02-07_14h06.12.714,Surprise recog test,2023.1.3,59.94495852472344,
207,0,207,0,,,,,,,,,,,,,,,,,,,,,,,,,,,,,,,,,,811.6237213000422,812.6576927000424,810.658868700033,810.658868700033,810.658868700033,810.658868700033,new_fruit_32.png,208,4.0,0.9608495000284165,,036,01,2025-02-07_14h06.12.714,Surprise recog test,2023.1.3,59.94495852472344,
208,0,208,0,,,,,,,,,,,,,,,,,,,,,,,,,,,,,,,,,,815.2742685000412,,812.6576927000424,812.6576927000424,812.6576927000424,812.6576927000424,new_sceneOut_36.png,209,4.0,2.6191686000674963,,036,01,2025-02-07_14h06.12.714,Surprise recog test,2023.1.3,59.94495852472344,
209,0,209,0,,,,,,,,,,,,,,,,,,,,,,,,,,,,,,,,,,817.3311794999754,818.3553785999538,816.2961297000293,816.2961297000293,816.2961297000293,816.2961297000293,new_fruit_13.png,210,4.0,1.0304791999515146,,036,01,2025-02-07_14h06.12.714,Surprise recog test,2023.1.3,59.94495852472344,
210,0,210,0,,,,,,,,,,,,,,,,,,,,,,,,,,,,,,,,,,819.8568936999654,820.8685281999642,818.3553785999538,818.3553785999538,818.3553785999538,818.3553785999538,new_stationery_15.png,211,4.0,1.5023882000241429,,036,01,2025-02-07_14h06.12.714,Surprise recog test,2023.1.3,59.94495852472344,
211,0,211,0,,,,,,,,,,,,,,,,,,,,,,,,,,,,,,,,,,821.9645395999542,,820.8685281999642,820.8685281999642,820.8685281999642,820.8685281999642,new_sceneOut_34.png,212,4.0,1.092096200096421,,036,01,2025-02-07_14h06.12.714,Surprise recog test,2023.1.3,59.94495852472344,
212,0,212,0,,,,,,,,,,,,,,,,,,,,,,,,,,,,,,,,,,824.2057591000339,825.234235699987,822.9966952999821,822.9966952999821,822.9966952999821,822.9966952999821,new_fruit_46.png,213,4.0,1.210613499977626,,036,01,2025-02-07_14h06.12.714,Surprise recog test,2023.1.3,59.94495852472344,
213,0,213,0,,,,,,,,,,,,,,,,,,,,,,,,,,,,,,,,,,826.889858599985,827.9191736000357,825.234235699987,825.234235699987,825.234235699987,825.234235699987,new_stationery_17.png,214,4.0,1.656900699948892,,036,01,2025-02-07_14h06.12.714,Surprise recog test,2023.1.3,59.94495852472344,
214,0,214,0,,,,,,,,,,,,,,,,,,,,,,,,,,,,,,,,,,829.3191555000376,,827.9191736000357,827.9191736000357,827.9191736000357,827.9191736000357,new_sceneOut_20.png,215,3.0,1.4024782000342384,,036,01,2025-02-07_14h06.12.714,Surprise recog test,2023.1.3,59.94495852472344,
215,0,215,0,,,,,,,,,,,,,,,,,,,,,,,,,,,,,,,,,,831.3303398999851,832.3564138000365,830.3531553000212,830.3531553000212,830.3531553000212,830.3531553000212,old_stationery_43.png,216,3.0,0.979341399972327,,036,01,2025-02-07_14h06.12.714,Surprise recog test,2023.1.3,59.94495852472344,
216,0,216,0,,,,,,,,,,,,,,,,,,,,,,,,,,,,,,,,,,834.8292652999517,835.8579398000147,832.3564138000365,832.3564138000365,832.3564138000365,832.3564138000365,old_sceneIn_21.png,217,4.0,2.4748217000160366,,036,01,2025-02-07_14h06.12.714,Surprise recog test,2023.1.3,59.94495852472344,
217,0,217,0,,,,,,,,,,,,,,,,,,,,,,,,,,,,,,,,,,836.9483860000037,837.9651375999674,835.8579398000147,835.8579398000147,835.8579398000147,835.8579398000147,old_sceneOut_31.png,218,4.0,1.0928637000033632,,036,01,2025-02-07_14h06.12.714,Surprise recog test,2023.1.3,59.94495852472344,
218,0,218,0,,,,,,,,,,,,,,,,,,,,,,,,,,,,,,,,,,839.4708760000067,840.4966392000206,837.9651375999674,837.9651375999674,837.9651375999674,837.9651375999674,new_sceneOut_48.png,219,4.0,1.5016444000648335,,036,01,2025-02-07_14h06.12.714,Surprise recog test,2023.1.3,59.94495852472344,
219,0,219,0,,,,,,,,,,,,,,,,,,,,,,,,,,,,,,,,,,842.6955717999954,843.7114848999772,840.4966392000206,840.4966392000206,840.4966392000206,840.4966392000206,old_sceneOut_23.png,220,3.0,2.201984200044535,,036,01,2025-02-07_14h06.12.714,Surprise recog test,2023.1.3,59.94495852472344,
220,0,220,0,,,,,,,,,,,,,,,,,,,,,,,,,,,,,,,,,,844.9754541999428,846.0013022000203,843.7114848999772,843.7114848999772,843.7114848999772,843.7114848999772,old_sceneIn_12.png,221,3.0,1.2652007999131456,,036,01,2025-02-07_14h06.12.714,Surprise recog test,2023.1.3,59.94495852472344,
221,0,221,0,,,,,,,,,,,,,,,,,,,,,,,,,,,,,,,,,,847.4701492999448,848.5028581999941,846.0013022000203,846.0013022000203,846.0013022000203,846.0013022000203,new_sceneOut_6.png,222,3.0,1.4698882000520825,,036,01,2025-02-07_14h06.12.714,Surprise recog test,2023.1.3,59.94495852472344,
222,0,222,0,,,,,,,,,,,,,,,,,,,,,,,,,,,,,,,,,,850.8187426000368,851.8396096000215,848.5028581999941,848.5028581999941,848.5028581999941,848.5028581999941,old_fruit_45.png,223,2.0,2.318324899999425,,036,01,2025-02-07_14h06.12.714,Surprise recog test,2023.1.3,59.94495852472344,
223,0,223,0,,,,,,,,,,,,,,,,,,,,,,,,,,,,,,,,,,853.571328699938,854.5920610999456,851.8396096000215,851.8396096000215,851.8396096000215,851.8396096000215,old_stationery_2.png,224,2.0,1.7346171999815851,,036,01,2025-02-07_14h06.12.714,Surprise recog test,2023.1.3,59.94495852472344,
224,0,224,0,,,,,,,,,,,,,,,,,,,,,,,,,,,,,,,,,,856.0430498999776,,854.5920610999456,854.5920610999456,854.5920610999456,854.5920610999456,new_sceneIn_16.png,225,3.0,1.4532225999282673,,036,01,2025-02-07_14h06.12.714,Surprise recog test,2023.1.3,59.94495852472344,
225,0,225,0,,,,,,,,,,,,,,,,,,,,,,,,,,,,,,,,,,858.474086000002,859.4929734999314,857.074507100042,857.074507100042,857.074507100042,857.074507100042,new_fruit_25.png,226,4.0,1.3985202999319881,,036,01,2025-02-07_14h06.12.714,Surprise recog test,2023.1.3,59.94495852472344,
226,0,226,0,,,,,,,,,,,,,,,,,,,,,,,,,,,,,,,,,,860.4889255999587,861.513306900044,859.4929734999314,859.4929734999314,859.4929734999314,859.4929734999314,old_stationery_7.png,227,4.0,0.9940910000586882,,036,01,2025-02-07_14h06.12.714,Surprise recog test,2023.1.3,59.94495852472344,
227,0,227,0,,,,,,,,,,,,,,,,,,,,,,,,,,,,,,,,,,863.171645800001,864.195435600006,861.513306900044,861.513306900044,861.513306900044,861.513306900044,new_fruit_21.png,228,4.0,1.659581599989906,,036,01,2025-02-07_14h06.12.714,Surprise recog test,2023.1.3,59.94495852472344,
228,0,228,0,,,,,,,,,,,,,,,,,,,,,,,,,,,,,,,,,,865.1797092999332,866.2026919999626,864.195435600006,864.195435600006,864.195435600006,864.195435600006,old_fruit_27.png,229,4.0,0.9796386999078095,,036,01,2025-02-07_14h06.12.714,Surprise recog test,2023.1.3,59.94495852472344,
229,0,229,0,,,,,,,,,,,,,,,,,,,,,,,,,,,,,,,,,,867.2705999000464,868.3029268999817,866.2026919999626,866.2026919999626,866.2026919999626,866.2026919999626,new_fruit_15.png,230,4.0,1.0695675000315532,,036,01,2025-02-07_14h06.12.714,Surprise recog test,2023.1.3,59.94495852472344,
230,0,230,0,,,,,,,,,,,,,,,,,,,,,,,,,,,,,,,,,,869.3437713000458,870.3711646000156,868.3029268999817,868.3029268999817,868.3029268999817,868.3029268999817,new_sceneOut_49.png,231,4.0,1.0437735000159591,,036,01,2025-02-07_14h06.12.714,Surprise recog test,2023.1.3,59.94495852472344,
231,0,231,0,,,,,,,,,,,,,,,,,,,,,,,,,,,,,,,,,,871.3600614999887,872.3907641000114,870.3711646000156,870.3711646000156,870.3711646000156,870.3711646000156,old_sceneIn_45.png,232,4.0,0.9913511000340804,,036,01,2025-02-07_14h06.12.714,Surprise recog test,2023.1.3,59.94495852472344,
232,0,232,0,,,,,,,,,,,,,,,,,,,,,,,,,,,,,,,,,,873.6820520999609,874.7092635999434,872.3907641000114,872.3907641000114,872.3907641000114,872.3907641000114,new_sceneOut_44.png,233,4.0,1.2923832000233233,,036,01,2025-02-07_14h06.12.714,Surprise recog test,2023.1.3,59.94495852472344,
233,0,233,0,,,,,,,,,,,,,,,,,,,,,,,,,,,,,,,,,,876.3422485999763,,874.7092635999434,874.7092635999434,874.7092635999434,874.7092635999434,new_sceneIn_38.png,234,4.0,1.634704599971883,,036,01,2025-02-07_14h06.12.714,Surprise recog test,2023.1.3,59.94495852472344,
234,0,234,0,,,,,,,,,,,,,,,,,,,,,,,,,,,,,,,,,,879.1918110999977,880.200464900001,877.3759808000177,877.3759808000177,877.3759808000177,877.3759808000177,old_stationery_39.png,235,4.0,1.8184182000113651,,036,01,2025-02-07_14h06.12.714,Surprise recog test,2023.1.3,59.94495852472344,
235,0,235,0,,,,,,,,,,,,,,,,,,,,,,,,,,,,,,,,,,881.9486917000031,882.9819498000434,880.200464900001,880.200464900001,880.200464900001,880.200464900001,old_stationery_14.png,236,1.0,1.7446482999948785,,036,01,2025-02-07_14h06.12.714,Surprise recog test,2023.1.3,59.94495852472344,
236,0,236,0,,,,,,,,,,,,,,,,,,,,,,,,,,,,,,,,,,884.3672191000078,885.3990023999941,882.9819498000434,882.9819498000434,882.9819498000434,882.9819498000434,new_sceneOut_28.png,237,3.0,1.3873745000455528,,036,01,2025-02-07_14h06.12.714,Surprise recog test,2023.1.3,59.94495852472344,
237,0,237,0,,,,,,,,,,,,,,,,,,,,,,,,,,,,,,,,,,887.3494578000391,888.3663581999717,885.3990023999941,885.3990023999941,885.3990023999941,885.3990023999941,old_sceneIn_42.png,238,4.0,1.9519880000734702,,036,01,2025-02-07_14h06.12.714,Surprise recog test,2023.1.3,59.94495852472344,
238,0,238,0,,,,,,,,,,,,,,,,,,,,,,,,,,,,,,,,,,889.5163505999371,890.5404806999722,888.3663581999717,888.3663581999717,888.3663581999717,888.3663581999717,new_fruit_20.png,239,4.0,1.151505000074394,,036,01,2025-02-07_14h06.12.714,Surprise recog test,2023.1.3,59.94495852472344,
239,0,239,0,,,,,,,,,,,,,,,,,,,,,,,,,,,,,,,,,,891.6571378000081,892.6928811999969,890.5404806999722,890.5404806999722,890.5404806999722,890.5404806999722,new_stationery_39.png,240,4.0,1.1202548999572173,,036,01,2025-02-07_14h06.12.714,Surprise recog test,2023.1.3,59.94495852472344,
240,0,240,0,,,,,,,,,,,,,,,,,,,,,,,,,,,,,,,,,,894.0692748000147,895.0915348000126,892.6928811999969,892.6928811999969,892.6928811999969,892.6928811999969,new_fruit_31.png,241,4.0,1.3789587001083419,,036,01,2025-02-07_14h06.12.714,Surprise recog test,2023.1.3,59.94495852472344,
241,0,241,0,,,,,,,,,,,,,,,,,,,,,,,,,,,,,,,,,,896.1973954000277,897.2193721999647,895.0915348000126,895.0915348000126,895.0915348000126,895.0915348000126,new_sceneOut_38.png,242,4.0,1.1082511000568047,,036,01,2025-02-07_14h06.12.714,Surprise recog test,2023.1.3,59.94495852472344,
242,0,242,0,,,,,,,,,,,,,,,,,,,,,,,,,,,,,,,,,,898.7621228999924,,897.2193721999647,897.2193721999647,897.2193721999647,897.2193721999647,new_stationery_14.png,243,3.0,1.5430236998945475,,036,01,2025-02-07_14h06.12.714,Surprise recog test,2023.1.3,59.94495852472344,
243,0,243,0,,,,,,,,,,,,,,,,,,,,,,,,,,,,,,,,,,901.1782723999349,,899.7957802000456,899.7957802000456,899.7957802000456,899.7957802000456,new_stationery_33.png,244,3.0,1.3825385000091046,,036,01,2025-02-07_14h06.12.714,Surprise recog test,2023.1.3,59.94495852472344,
244,0,244,0,,,,,,,,,,,,,,,,,,,,,,,,,,,,,,,,,,904.0110837999964,905.0206952999579,902.2004693000345,902.2004693000345,902.2004693000345,902.2004693000345,old_fruit_47.png,245,1.0,1.8058499000035226,,036,01,2025-02-07_14h06.12.714,Surprise recog test,2023.1.3,59.94495852472344,
245,0,245,0,,,,,,,,,,,,,,,,,,,,,,,,,,,,,,,,,,906.1470204000361,907.1693940999685,905.0206952999579,905.0206952999579,905.0206952999579,905.0206952999579,new_stationery_32.png,246,3.0,1.1174798000138253,,036,01,2025-02-07_14h06.12.714,Surprise recog test,2023.1.3,59.94495852472344,
246,0,246,0,,,,,,,,,,,,,,,,,,,,,,,,,,,,,,,,,,908.4661870000418,909.472866200027,907.1693940999685,907.1693940999685,907.1693940999685,907.1693940999685,old_sceneOut_25.png,247,3.0,1.2969623999670148,,036,01,2025-02-07_14h06.12.714,Surprise recog test,2023.1.3,59.94495852472344,
247,0,247,0,,,,,,,,,,,,,,,,,,,,,,,,,,,,,,,,,,911.3343836000422,912.3531365999952,909.472866200027,909.472866200027,909.472866200027,909.472866200027,old_fruit_4.png,248,4.0,1.8589524000417441,,036,01,2025-02-07_14h06.12.714,Surprise recog test,2023.1.3,59.94495852472344,
248,0,248,0,,,,,,,,,,,,,,,,,,,,,,,,,,,,,,,,,,914.3396043999819,,912.3531365999952,912.3531365999952,912.3531365999952,912.3531365999952,new_stationery_45.png,249,4.0,1.9852964000310749,,036,01,2025-02-07_14h06.12.714,Surprise recog test,2023.1.3,59.94495852472344,
249,0,249,0,,,,,,,,,,,,,,,,,,,,,,,,,,,,,,,,,,916.6276420999784,917.6594835999422,915.3698909999803,915.3698909999803,915.3698909999803,915.3698909999803,old_stationery_49.png,250,2.0,1.2576507000485435,,036,01,2025-02-07_14h06.12.714,Surprise recog test,2023.1.3,59.94495852472344,
250,0,250,0,,,,,,,,,,,,,,,,,,,,,,,,,,,,,,,,,,918.5751319000265,919.582848399994,917.6594835999422,917.6594835999422,917.6594835999422,917.6594835999422,new_sceneIn_15.png,251,3.0,0.9170681999530643,,036,01,2025-02-07_14h06.12.714,Surprise recog test,2023.1.3,59.94495852472344,
251,0,251,0,,,,,,,,,,,,,,,,,,,,,,,,,,,,,,,,,,921.0731710999971,922.0936722999904,919.582848399994,919.582848399994,919.582848399994,919.582848399994,new_stationery_27.png,252,2.0,1.4861414999468252,,036,01,2025-02-07_14h06.12.714,Surprise recog test,2023.1.3,59.94495852472344,
252,0,252,0,,,,,,,,,,,,,,,,,,,,,,,,,,,,,,,,,,923.4980815999443,,922.0936722999904,922.0936722999904,922.0936722999904,922.0936722999904,new_sceneIn_2.png,253,4.0,1.4064755999715999,,036,01,2025-02-07_14h06.12.714,Surprise recog test,2023.1.3,59.94495852472344,
253,0,253,0,,,,,,,,,,,,,,,,,,,,,,,,,,,,,,,,,,925.5519300999586,926.5864117000019,924.521048799972,924.521048799972,924.521048799972,924.521048799972,new_sceneOut_19.png,254,4.0,1.0284432000480592,,036,01,2025-02-07_14h06.12.714,Surprise recog test,2023.1.3,59.94495852472344,
254,0,254,0,,,,,,,,,,,,,,,,,,,,,,,,,,,,,,,,,,928.4409255000064,929.4693777000066,926.5864117000019,926.5864117000019,926.5864117000019,926.5864117000019,old_stationery_44.png,255,4.0,1.8570492999861017,,036,01,2025-02-07_14h06.12.714,Surprise recog test,2023.1.3,59.94495852472344,
255,0,255,0,,,,,,,,,,,,,,,,,,,,,,,,,,,,,,,,,,930.8955126999645,931.9294516999507,929.4693777000066,929.4693777000066,929.4693777000066,929.4693777000066,old_fruit_35.png,256,4.0,1.4284062999067828,,036,01,2025-02-07_14h06.12.714,Surprise recog test,2023.1.3,59.94495852472344,
256,0,256,0,,,,,,,,,,,,,,,,,,,,,,,,,,,,,,,,,,933.5401834000368,,931.9294516999507,931.9294516999507,931.9294516999507,931.9294516999507,old_sceneOut_46.png,257,4.0,1.613929699989967,,036,01,2025-02-07_14h06.12.714,Surprise recog test,2023.1.3,59.94495852472344,
257,0,257,0,,,,,,,,,,,,,,,,,,,,,,,,,,,,,,,,,,936.8249392999569,,934.5758344000205,934.5758344000205,934.5758344000205,934.5758344000205,new_stationery_23.png,258,4.0,2.25197860004846,,036,01,2025-02-07_14h06.12.714,Surprise recog test,2023.1.3,59.94495852472344,
258,0,258,0,,,,,,,,,,,,,,,,,,,,,,,,,,,,,,,,,,940.458940600045,941.4768982999958,937.8520866000326,937.8520866000326,937.8520866000326,937.8520866000326,new_stationery_35.png,259,4.0,2.606892599957064,,036,01,2025-02-07_14h06.12.714,Surprise recog test,2023.1.3,59.94495852472344,
259,0,259,0,,,,,,,,,,,,,,,,,,,,,,,,,,,,,,,,,,942.3188767000102,943.3466656999663,941.4768982999958,941.4768982999958,941.4768982999958,941.4768982999958,new_sceneOut_25.png,260,4.0,0.84472289995756,,036,01,2025-02-07_14h06.12.714,Surprise recog test,2023.1.3,59.94495852472344,
260,0,260,0,,,,,,,,,,,,,,,,,,,,,,,,,,,,,,,,,,945.8033402999863,946.8228501999984,943.3466656999663,943.3466656999663,943.3466656999663,943.3466656999663,new_fruit_42.png,261,4.0,2.459172800066881,,036,01,2025-02-07_14h06.12.714,Surprise recog test,2023.1.3,59.94495852472344,
261,0,261,0,,,,,,,,,,,,,,,,,,,,,,,,,,,,,,,,,,948.3787140999921,949.3914256000426,946.8228501999984,946.8228501999984,946.8228501999984,946.8228501999984,old_sceneOut_4.png,262,5.0,1.5521972000133246,,036,01,2025-02-07_14h06.12.714,Surprise recog test,2023.1.3,59.94495852472344,
262,0,262,0,,,,,,,,,,,,,,,,,,,,,,,,,,,,,,,,,,950.4894981000107,951.5204386999831,949.3914256000426,949.3914256000426,949.3914256000426,949.3914256000426,new_sceneOut_13.png,263,5.0,1.093862900044769,,036,01,2025-02-07_14h06.12.714,Surprise recog test,2023.1.3,59.94495852472344,
263,0,263,0,,,,,,,,,,,,,,,,,,,,,,,,,,,,,,,,,,952.8128474999685,953.8275120999897,951.5204386999831,951.5204386999831,951.5204386999831,951.5204386999831,new_stationery_8.png,264,5.0,1.2941539000021294,,036,01,2025-02-07_14h06.12.714,Surprise recog test,2023.1.3,59.94495852472344,
264,0,264,0,,,,,,,,,,,,,,,,,,,,,,,,,,,,,,,,,,954.9074175000424,,953.8275120999897,953.8275120999897,953.8275120999897,953.8275120999897,new_sceneOut_46.png,265,5.0,1.0759809000883251,,036,01,2025-02-07_14h06.12.714,Surprise recog test,2023.1.3,59.94495852472344,
265,0,265,0,,,,,,,,,,,,,,,,,,,,,,,,,,,,,,,,,,957.1549348999979,958.1784595999634,955.9405868999893,955.9405868999893,955.9405868999893,955.9405868999893,new_sceneIn_14.png,266,5.0,1.2145929000107571,,036,01,2025-02-07_14h06.12.714,Surprise recog test,2023.1.3,59.94495852472344,
266,0,266,0,,,,,,,,,,,,,,,,,,,,,,,,,,,,,,,,,,959.7063853000291,960.7241268999642,958.1784595999634,958.1784595999634,958.1784595999634,958.1784595999634,new_sceneIn_47.png,267,5.0,1.5284572000382468,,036,01,2025-02-07_14h06.12.714,Surprise recog test,2023.1.3,59.94495852472344,
267,0,267,0,,,,,,,,,,,,,,,,,,,,,,,,,,,,,,,,,,961.5821934000123,962.6021579999942,960.7241268999642,960.7241268999642,960.7241268999642,960.7241268999642,new_sceneOut_32.png,268,5.0,0.8603259000228718,,036,01,2025-02-07_14h06.12.714,Surprise recog test,2023.1.3,59.94495852472344,
268,0,268,0,,,,,,,,,,,,,,,,,,,,,,,,,,,,,,,,,,963.6057394000236,964.6341045999434,962.6021579999942,962.6021579999942,962.6021579999942,962.6021579999942,old_sceneOut_49.png,269,5.0,0.9989294999977574,,036,01,2025-02-07_14h06.12.714,Surprise recog test,2023.1.3,59.94495852472344,
269,0,269,0,,,,,,,,,,,,,,,,,,,,,,,,,,,,,,,,,,965.6154225999489,,964.6341045999434,964.6341045999434,964.6341045999434,964.6341045999434,new_fruit_43.png,270,5.0,0.9848624999867752,,036,01,2025-02-07_14h06.12.714,Surprise recog test,2023.1.3,59.94495852472344,
270,0,270,0,,,,,,,,,,,,,,,,,,,,,,,,,,,,,,,,,,967.9491632999852,968.9567482999992,966.6531955000246,966.6531955000246,966.6531955000246,966.6531955000246,new_stationery_31.png,271,5.0,1.2998253999976441,,036,01,2025-02-07_14h06.12.714,Surprise recog test,2023.1.3,59.94495852472344,
271,0,271,0,,,,,,,,,,,,,,,,,,,,,,,,,,,,,,,,,,970.2028139999602,,968.9567482999992,968.9567482999992,968.9567482999992,968.9567482999992,old_sceneOut_32.png,272,5.0,1.2424148001009598,,036,01,2025-02-07_14h06.12.714,Surprise recog test,2023.1.3,59.94495852472344,
272,0,272,0,,,,,,,,,,,,,,,,,,,,,,,,,,,,,,,,,,972.2648764000041,973.288860199973,971.2251504999585,971.2251504999585,971.2251504999585,971.2251504999585,old_sceneIn_24.png,273,5.0,1.035386500065215,,036,01,2025-02-07_14h06.12.714,Surprise recog test,2023.1.3,59.94495852472344,
273,0,273,0,,,,,,,,,,,,,,,,,,,,,,,,,,,,,,,,,,974.8865819999482,975.9072790000355,973.288860199973,973.288860199973,973.288860199973,973.288860199973,new_sceneIn_1.png,274,5.0,1.5992351999739185,,036,01,2025-02-07_14h06.12.714,Surprise recog test,2023.1.3,59.94495852472344,
274,0,274,0,,,,,,,,,,,,,,,,,,,,,,,,,,,,,,,,,,976.7638043999905,977.795922899968,975.9072790000355,975.9072790000355,975.9072790000355,975.9072790000355,old_sceneOut_37.png,275,5.0,0.8584642000496387,,036,01,2025-02-07_14h06.12.714,Surprise recog test,2023.1.3,59.94495852472344,
275,0,275,0,,,,,,,,,,,,,,,,,,,,,,,,,,,,,,,,,,979.8313956999918,980.864379900042,977.795922899968,977.795922899968,977.795922899968,977.795922899968,old_sceneIn_39.png,276,5.0,2.0383569999830797,,036,01,2025-02-07_14h06.12.714,Surprise recog test,2023.1.3,59.94495852472344,
276,0,276,0,,,,,,,,,,,,,,,,,,,,,,,,,,,,,,,,,,983.2407945999876,984.2650718999794,980.864379900042,980.864379900042,980.864379900042,980.864379900042,old_sceneOut_14.png,277,5.0,2.3795326999388635,,036,01,2025-02-07_14h06.12.714,Surprise recog test,2023.1.3,59.94495852472344,
277,0,277,0,,,,,,,,,,,,,,,,,,,,,,,,,,,,,,,,,,986.291310200002,987.3051409999607,984.2650718999794,984.2650718999794,984.2650718999794,984.2650718999794,old_sceneOut_18.png,278,5.0,2.0290129999630153,,036,01,2025-02-07_14h06.12.714,Surprise recog test,2023.1.3,59.94495852472344,
278,0,278,0,,,,,,,,,,,,,,,,,,,,,,,,,,,,,,,,,,989.8083604000276,990.8252557000378,987.3051409999607,987.3051409999607,987.3051409999607,987.3051409999607,old_sceneOut_13.png,279,4.0,2.49883019994013,,036,01,2025-02-07_14h06.12.714,Surprise recog test,2023.1.3,59.94495852472344,
279,0,279,0,,,,,,,,,,,,,,,,,,,,,,,,,,,,,,,,,,993.6737465999322,,990.8252557000378,990.8252557000378,990.8252557000378,990.8252557000378,old_sceneOut_12.png,280,4.0,2.8445027000270784,,036,01,2025-02-07_14h06.12.714,Surprise recog test,2023.1.3,59.94495852472344,
280,0,280,0,,,,,,,,,,,,,,,,,,,,,,,,,,,,,,,,,,995.7848397999769,996.8052467999514,994.6951061999425,994.6951061999425,994.6951061999425,994.6951061999425,new_sceneOut_47.png,281,4.0,1.0851178000448272,,036,01,2025-02-07_14h06.12.714,Surprise recog test,2023.1.3,59.94495852472344,
281,0,281,0,,,,,,,,,,,,,,,,,,,,,,,,,,,,,,,,,,997.6497494999785,998.6653011000017,996.8052467999514,996.8052467999514,996.8052467999514,996.8052467999514,new_stationery_3.png,282,4.0,0.8405661000870168,,036,01,2025-02-07_14h06.12.714,Surprise recog test,2023.1.3,59.94495852472344,
282,0,282,0,,,,,,,,,,,,,,,,,,,,,,,,,,,,,,,,,,1000.4812108000042,1001.5165177000454,998.6653011000017,998.6653011000017,998.6653011000017,998.6653011000017,old_sceneIn_9.png,283,5.0,1.8094428000040352,,036,01,2025-02-07_14h06.12.714,Surprise recog test,2023.1.3,59.94495852472344,
283,0,283,0,,,,,,,,,,,,,,,,,,,,,,,,,,,,,,,,,,1002.6515730000101,1003.6815244000172,1001.5165177000454,1001.5165177000454,1001.5165177000454,1001.5165177000454,new_sceneIn_12.png,284,5.0,1.1396761999931186,,036,01,2025-02-07_14h06.12.714,Surprise recog test,2023.1.3,59.94495852472344,
284,0,284,0,,,,,,,,,,,,,,,,,,,,,,,,,,,,,,,,,,1005.4327442999929,,1003.6815244000172,1003.6815244000172,1003.6815244000172,1003.6815244000172,old_fruit_42.png,285,3.0,1.751598999951966,,036,01,2025-02-07_14h06.12.714,Surprise recog test,2023.1.3,59.94495852472344,
285,0,285,0,,,,,,,,,,,,,,,,,,,,,,,,,,,,,,,,,,1009.4632110999664,1010.4856515999418,1006.461468799971,1006.461468799971,1006.461468799971,1006.461468799971,old_sceneOut_39.png,286,4.0,2.9968721999321133,,036,01,2025-02-07_14h06.12.714,Surprise recog test,2023.1.3,59.94495852472344,
286,0,286,0,,,,,,,,,,,,,,,,,,,,,,,,,,,,,,,,,,1011.8665364999324,1012.8894784000004,1010.4856515999418,1010.4856515999418,1010.4856515999418,1010.4856515999418,new_stationery_13.png,287,3.0,1.3804257999872789,,036,01,2025-02-07_14h06.12.714,Surprise recog test,2023.1.3,59.94495852472344,
287,0,287,0,,,,,,,,,,,,,,,,,,,,,,,,,,,,,,,,,,1014.5963620999828,1015.6253916999558,1012.8894784000004,1012.8894784000004,1012.8894784000004,1012.8894784000004,old_sceneIn_29.png,288,4.0,1.7064044000580907,,036,01,2025-02-07_14h06.12.714,Surprise recog test,2023.1.3,59.94495852472344,
288,0,288,0,,,,,,,,,,,,,,,,,,,,,,,,,,,,,,,,,,1017.6822463000426,1018.7093472999986,1015.6253916999558,1015.6253916999558,1015.6253916999558,1015.6253916999558,new_sceneOut_41.png,289,4.0,2.0604714000364766,,036,01,2025-02-07_14h06.12.714,Surprise recog test,2023.1.3,59.94495852472344,
289,0,289,0,,,,,,,,,,,,,,,,,,,,,,,,,,,,,,,,,,1020.0823943000287,1021.1107343999902,1018.7093472999986,1018.7093472999986,1018.7093472999986,1018.7093472999986,new_sceneOut_40.png,290,4.0,1.3753647999837995,,036,01,2025-02-07_14h06.12.714,Surprise recog test,2023.1.3,59.94495852472344,
290,0,290,0,,,,,,,,,,,,,,,,,,,,,,,,,,,,,,,,,,1022.1930504000047,1023.2068111000117,1021.1107343999902,1021.1107343999902,1021.1107343999902,1021.1107343999902,old_sceneIn_43.png,291,4.0,1.084227400016971,,036,01,2025-02-07_14h06.12.714,Surprise recog test,2023.1.3,59.94495852472344,
291,0,291,0,,,,,,,,,,,,,,,,,,,,,,,,,,,,,,,,,,1024.056128700031,1025.0835382000078,1023.2068111000117,1023.2068111000117,1023.2068111000117,1023.2068111000117,new_sceneOut_7.png,292,4.0,0.8453428999055177,,036,01,2025-02-07_14h06.12.714,Surprise recog test,2023.1.3,59.94495852472344,
292,0,292,0,,,,,,,,,,,,,,,,,,,,,,,,,,,,,,,,,,1026.5387803999474,1027.5666859999765,1025.0835382000078,1025.0835382000078,1025.0835382000078,1025.0835382000078,new_fruit_4.png,293,4.0,1.456508000032045,,036,01,2025-02-07_14h06.12.714,Surprise recog test,2023.1.3,59.94495852472344,
293,0,293,0,,,,,,,,,,,,,,,,,,,,,,,,,,,,,,,,,,1028.2666620999807,1029.274187700008,1027.5666859999765,1027.5666859999765,1027.5666859999765,1027.5666859999765,old_sceneOut_35.png,294,4.0,0.7023509000428021,,036,01,2025-02-07_14h06.12.714,Surprise recog test,2023.1.3,59.94495852472344,
294,0,294,0,,,,,,,,,,,,,,,,,,,,,,,,,,,,,,,,,,1030.0424356999574,1031.071413800004,1029.274187700008,1029.274187700008,1029.274187700008,1029.274187700008,new_fruit_39.png,295,4.0,0.764341100002639,,036,01,2025-02-07_14h06.12.714,Surprise recog test,2023.1.3,59.94495852472344,
295,0,295,0,,,,,,,,,,,,,,,,,,,,,,,,,,,,,,,,,,1031.9516061999602,1032.9600689000217,1031.071413800004,1031.071413800004,1031.071413800004,1031.071413800004,old_sceneIn_1.png,296,4.0,0.8820632999995723,,036,01,2025-02-07_14h06.12.714,Surprise recog test,2023.1.3,59.94495852472344,
296,0,296,0,,,,,,,,,,,,,,,,,,,,,,,,,,,,,,,,,,1034.5915302999783,,1032.9600689000217,1032.9600689000217,1032.9600689000217,1032.9600689000217,old_fruit_16.png,297,4.0,1.6249211999820545,,036,01,2025-02-07_14h06.12.714,Surprise recog test,2023.1.3,59.94495852472344,
297,0,297,0,,,,,,,,,,,,,,,,,,,,,,,,,,,,,,,,,,1036.4741807000246,,1035.623609900009,1035.623609900009,1035.623609900009,1035.623609900009,new_sceneIn_49.png,298,4.0,0.851520900032483,,036,01,2025-02-07_14h06.12.714,Surprise recog test,2023.1.3,59.94495852472344,
298,0,298,0,,,,,,,,,,,,,,,,,,,,,,,,,,,,,,,,,,1038.985624199966,1039.9976637000218,1037.4963389999466,1037.4963389999466,1037.4963389999466,1037.4963389999466,new_stationery_42.png,299,4.0,1.486184599925764,,036,01,2025-02-07_14h06.12.714,Surprise recog test,2023.1.3,59.94495852472344,
299,0,299,0,,,,,,,,,,,,,,,,,,,,,,,,,,,,,,,,,,1041.092635900015,1042.113477100036,1039.9976637000218,1039.9976637000218,1039.9976637000218,1039.9976637000218,new_stationery_30.png,300,4.0,1.0897988999495283,,036,01,2025-02-07_14h06.12.714,Surprise recog test,2023.1.3,59.94495852472344,
300,0,300,0,,,,,,,,,,,,,,,,,,,,,,,,,,,,,,,,,,1045.1554527999833,1046.181853099959,1042.113477100036,1042.113477100036,1042.113477100036,1042.113477100036,new_stationery_2.png,301,3.0,3.043780400068499,,036,01,2025-02-07_14h06.12.714,Surprise recog test,2023.1.3,59.94495852472344,
301,0,301,0,,,,,,,,,,,,,,,,,,,,,,,,,,,,,,,,,,1048.5797408999642,1049.60785879998,1046.181853099959,1046.181853099959,1046.181853099959,1046.181853099959,old_sceneIn_35.png,302,2.0,2.3972997000673786,,036,01,2025-02-07_14h06.12.714,Surprise recog test,2023.1.3,59.94495852472344,
302,0,302,0,,,,,,,,,,,,,,,,,,,,,,,,,,,,,,,,,,1050.943904899992,1051.9581361999735,1049.60785879998,1049.60785879998,1049.60785879998,1049.60785879998,old_stationery_40.png,303,3.0,1.3410403999732807,,036,01,2025-02-07_14h06.12.714,Surprise recog test,2023.1.3,59.94495852472344,
303,0,303,0,,,,,,,,,,,,,,,,,,,,,,,,,,,,,,,,,,1053.1848915000446,1054.2083607999375,1051.9581361999735,1051.9581361999735,1051.9581361999735,1051.9581361999735,new_fruit_37.png,304,4.0,1.2212428000057116,,036,01,2025-02-07_14h06.12.714,Surprise recog test,2023.1.3,59.94495852472344,
304,0,304,0,,,,,,,,,,,,,,,,,,,,,,,,,,,,,,,,,,1055.604726999998,1056.622528900043,1054.2083607999375,1054.2083607999375,1054.2083607999375,1054.2083607999375,old_sceneOut_50.png,305,4.0,1.395369700039737,,036,01,2025-02-07_14h06.12.714,Surprise recog test,2023.1.3,59.94495852472344,
305,0,305,0,,,,,,,,,,,,,,,,,,,,,,,,,,,,,,,,,,1057.5048343000235,1058.514444499975,1056.622528900043,1056.622528900043,1056.622528900043,1056.622528900043,new_sceneOut_2.png,306,4.0,0.8841007999144495,,036,01,2025-02-07_14h06.12.714,Surprise recog test,2023.1.3,59.94495852472344,
306,0,306,0,,,,,,,,,,,,,,,,,,,,,,,,,,,,,,,,,,1059.7373825999675,1060.7579900999554,1058.514444499975,1058.514444499975,1058.514444499975,1058.514444499975,new_stationery_9.png,307,4.0,1.2160692000761628,,036,01,2025-02-07_14h06.12.714,Surprise recog test,2023.1.3,59.94495852472344,
307,0,307,0,,,,,,,,,,,,,,,,,,,,,,,,,,,,,,,,,,1062.7569934999337,1063.7817048999714,1060.7579900999554,1060.7579900999554,1060.7579900999554,1060.7579900999554,old_fruit_9.png,308,4.0,1.9998912999872118,,036,01,2025-02-07_14h06.12.714,Surprise recog test,2023.1.3,59.94495852472344,
308,0,308,0,,,,,,,,,,,,,,,,,,,,,,,,,,,,,,,,,,1065.6455193000147,1066.6691516999854,1063.7817048999714,1063.7817048999714,1063.7817048999714,1063.7817048999714,old_fruit_8.png,309,5.0,1.86608539998997,,036,01,2025-02-07_14h06.12.714,Surprise recog test,2023.1.3,59.94495852472344,
309,0,309,0,,,,,,,,,,,,,,,,,,,,,,,,,,,,,,,,,,1067.9553802999435,1068.9830988999456,1066.6691516999854,1066.6691516999854,1066.6691516999854,1066.6691516999854,old_fruit_11.png,310,4.0,1.2879088000627235,,036,01,2025-02-07_14h06.12.714,Surprise recog test,2023.1.3,59.94495852472344,
310,0,310,0,,,,,,,,,,,,,,,,,,,,,,,,,,,,,,,,,,1070.4171007999685,1071.422091000015,1068.9830988999456,1068.9830988999456,1068.9830988999456,1068.9830988999456,new_fruit_49.png,311,3.0,1.4305070999544114,,036,01,2025-02-07_14h06.12.714,Surprise recog test,2023.1.3,59.94495852472344,
311,0,311,0,,,,,,,,,,,,,,,,,,,,,,,,,,,,,,,,,,1072.437889899942,,1071.422091000015,1071.422091000015,1071.422091000015,1071.422091000015,old_sceneOut_34.png,312,4.0,1.012301899958402,,036,01,2025-02-07_14h06.12.714,Surprise recog test,2023.1.3,59.94495852472344,
312,0,312,0,,,,,,,,,,,,,,,,,,,,,,,,,,,,,,,,,,1074.5247133999364,,1073.4672549000243,1073.4672549000243,1073.4672549000243,1073.4672549000243,new_sceneIn_17.png,313,4.0,1.059481899952516,,036,01,2025-02-07_14h06.12.714,Surprise recog test,2023.1.3,59.94495852472344,
313,0,313,0,,,,,,,,,,,,,,,,,,,,,,,,,,,,,,,,,,1076.5484681000235,1077.5755132000195,1075.5578748999396,1075.5578748999396,1075.5578748999396,1075.5578748999396,new_fruit_47.png,314,4.0,0.9913413999602199,,036,01,2025-02-07_14h06.12.714,Surprise recog test,2023.1.3,59.94495852472344,
314,0,314,0,,,,,,,,,,,,,,,,,,,,,,,,,,,,,,,,,,1078.3664768999442,1079.3917926000431,1077.5755132000195,1077.5755132000195,1077.5755132000195,1077.5755132000195,old_sceneIn_28.png,315,4.0,0.7940782000077888,,036,01,2025-02-07_14h06.12.714,Surprise recog test,2023.1.3,59.94495852472344,
315,0,315,0,,,,,,,,,,,,,,,,,,,,,,,,,,,,,,,,,,1080.5281865999568,,1079.3917926000431,1079.3917926000431,1079.3917926000431,1079.3917926000431,old_stationery_11.png,316,4.0,1.137855999986641,,036,01,2025-02-07_14h06.12.714,Surprise recog test,2023.1.3,59.94495852472344,
316,0,316,0,,,,,,,,,,,,,,,,,,,,,,,,,,,,,,,,,,1082.351861299947,1083.3806369999656,1081.565305099939,1081.565305099939,1081.565305099939,1081.565305099939,old_fruit_34.png,317,4.0,0.7905733999796212,,036,01,2025-02-07_14h06.12.714,Surprise recog test,2023.1.3,59.94495852472344,
317,0,317,0,,,,,,,,,,,,,,,,,,,,,,,,,,,,,,,,,,1084.4074042999418,1085.4346166000469,1083.3806369999656,1083.3806369999656,1083.3806369999656,1083.3806369999656,new_stationery_1.png,318,4.0,1.0284667999949306,,036,01,2025-02-07_14h06.12.714,Surprise recog test,2023.1.3,59.94495852472344,
318,0,318,0,,,,,,,,,,,,,,,,,,,,,,,,,,,,,,,,,,1087.8876082999632,1088.918813599972,1085.4346166000469,1085.4346166000469,1085.4346166000469,1085.4346166000469,old_stationery_31.png,319,4.0,2.455398799967952,,036,01,2025-02-07_14h06.12.714,Surprise recog test,2023.1.3,59.94495852472344,
319,0,319,0,,,,,,,,,,,,,,,,,,,,,,,,,,,,,,,,,,1090.5371050999966,,1088.918813599972,1088.918813599972,1088.918813599972,1088.918813599972,new_stationery_29.png,320,4.0,1.6196596999652684,,036,01,2025-02-07_14h06.12.714,Surprise recog test,2023.1.3,59.94495852472344,
320,0,320,0,,,,,,,,,,,,,,,,,,,,,,,,,,,,,,,,,,1094.0088331999723,1095.024786700029,1091.5663818999892,1091.5663818999892,1091.5663818999892,1091.5663818999892,new_stationery_4.png,321,3.0,2.4441698000300676,,036,01,2025-02-07_14h06.12.714,Surprise recog test,2023.1.3,59.94495852472344,
321,0,321,0,,,,,,,,,,,,,,,,,,,,,,,,,,,,,,,,,,1097.389536499977,1098.4133804000448,1095.024786700029,1095.024786700029,1095.024786700029,1095.024786700029,new_stationery_6.png,322,3.0,2.3607482000952587,,036,01,2025-02-07_14h06.12.714,Surprise recog test,2023.1.3,59.94495852472344,
322,0,322,0,,,,,,,,,,,,,,,,,,,,,,,,,,,,,,,,,,1099.6380580000114,1100.6594135999912,1098.4133804000448,1098.4133804000448,1098.4133804000448,1098.4133804000448,old_sceneIn_44.png,323,4.0,1.2274972000159323,,036,01,2025-02-07_14h06.12.714,Surprise recog test,2023.1.3,59.94495852472344,
323,0,323,0,,,,,,,,,,,,,,,,,,,,,,,,,,,,,,,,,,1101.8027438999852,1102.8262036000378,1100.6594135999912,1100.6594135999912,1100.6594135999912,1100.6594135999912,new_sceneIn_13.png,324,4.0,1.1447690000059083,,036,01,2025-02-07_14h06.12.714,Surprise recog test,2023.1.3,59.94495852472344,
324,0,324,0,,,,,,,,,,,,,,,,,,,,,,,,,,,,,,,,,,1103.7135016999673,,1102.8262036000378,1102.8262036000378,1102.8262036000378,1102.8262036000378,old_sceneOut_7.png,325,4.0,0.8863204999361187,,036,01,2025-02-07_14h06.12.714,Surprise recog test,2023.1.3,59.94495852472344,
325,0,325,0,,,,,,,,,,,,,,,,,,,,,,,,,,,,,,,,,,1105.4171302999603,,1104.736156299943,1104.736156299943,1104.736156299943,1104.736156299943,new_sceneOut_33.png,326,4.0,0.6756858000298962,,036,01,2025-02-07_14h06.12.714,Surprise recog test,2023.1.3,59.94495852472344,
326,0,326,0,,,,,,,,,,,,,,,,,,,,,,,,,,,,,,,,,,1107.0893703999463,1108.1210813999642,1106.4506351000164,1106.4506351000164,1106.4506351000164,1106.4506351000164,new_sceneOut_30.png,327,4.0,0.6410606000572443,,036,01,2025-02-07_14h06.12.714,Surprise recog test,2023.1.3,59.94495852472344,
327,0,327,0,,,,,,,,,,,,,,,,,,,,,,,,,,,,,,,,,,1109.366046500043,1110.3931238999357,1108.1210813999642,1108.1210813999642,1108.1210813999642,1108.1210813999642,new_sceneIn_6.png,328,4.0,1.2410130000207573,,036,01,2025-02-07_14h06.12.714,Surprise recog test,2023.1.3,59.94495852472344,
328,0,328,0,,,,,,,,,,,,,,,,,,,,,,,,,,,,,,,,,,1111.4015765000368,1112.4231698999647,1110.3931238999357,1110.3931238999357,1110.3931238999357,1110.3931238999357,old_fruit_30.png,329,4.0,1.009995499975048,,036,01,2025-02-07_14h06.12.714,Surprise recog test,2023.1.3,59.94495852472344,
329,0,329,0,,,,,,,,,,,,,,,,,,,,,,,,,,,,,,,,,,1113.9515177999856,1114.9637323999777,1112.4231698999647,1112.4231698999647,1112.4231698999647,1112.4231698999647,old_fruit_18.png,330,3.0,1.5291944000637159,,036,01,2025-02-07_14h06.12.714,Surprise recog test,2023.1.3,59.94495852472344,
330,0,330,0,,,,,,,,,,,,,,,,,,,,,,,,,,,,,,,,,,1115.9394132000161,1116.9606002999935,1114.9637323999777,1114.9637323999777,1114.9637323999777,1114.9637323999777,new_sceneIn_7.png,331,4.0,0.9709758999524638,,036,01,2025-02-07_14h06.12.714,Surprise recog test,2023.1.3,59.94495852472344,
331,0,331,0,,,,,,,,,,,,,,,,,,,,,,,,,,,,,,,,,,1118.0364903999725,1119.0623569999589,1116.9606002999935,1116.9606002999935,1116.9606002999935,1116.9606002999935,new_stationery_48.png,332,4.0,1.0782253000652418,,036,01,2025-02-07_14h06.12.714,Surprise recog test,2023.1.3,59.94495852472344,
332,0,332,0,,,,,,,,,,,,,,,,,,,,,,,,,,,,,,,,,,1122.680333700031,,1119.0623569999589,1119.0623569999589,1119.0623569999589,1119.0623569999589,old_stationery_9.png,333,4.0,3.6211293999804184,,036,01,2025-02-07_14h06.12.714,Surprise recog test,2023.1.3,59.94495852472344,
333,0,333,0,,,,,,,,,,,,,,,,,,,,,,,,,,,,,,,,,,1126.6357233000454,1127.6555746999802,1123.713738600025,1123.713738600025,1123.713738600025,1123.713738600025,old_sceneOut_9.png,334,4.0,2.9222203000681475,,036,01,2025-02-07_14h06.12.714,Surprise recog test,2023.1.3,59.94495852472344,
334,0,334,0,,,,,,,,,,,,,,,,,,,,,,,,,,,,,,,,,,1131.9441826000111,1132.973708000034,1127.6555746999802,1127.6555746999802,1127.6555746999802,1127.6555746999802,old_sceneOut_27.png,335,4.0,4.283739499980584,,036,01,2025-02-07_14h06.12.714,Surprise recog test,2023.1.3,59.94495852472344,
335,0,335,0,,,,,,,,,,,,,,,,,,,,,,,,,,,,,,,,,,1134.7674389999593,1135.7892617000034,1132.973708000034,1132.973708000034,1132.973708000034,1132.973708000034,old_sceneIn_6.png,336,2.0,1.7954117000335827,,036,01,2025-02-07_14h06.12.714,Surprise recog test,2023.1.3,59.94495852472344,
336,0,336,0,,,,,,,,,,,,,,,,,,,,,,,,,,,,,,,,,,1137.392413900001,,1135.7892617000034,1135.7892617000034,1135.7892617000034,1135.7892617000034,new_fruit_2.png,337,4.0,1.6031677999999374,,036,01,2025-02-07_14h06.12.714,Surprise recog test,2023.1.3,59.94495852472344,
337,0,337,0,,,,,,,,,,,,,,,,,,,,,,,,,,,,,,,,,,1139.7033455999335,1140.727325499989,1138.414602200035,1138.414602200035,1138.414602200035,1138.414602200035,new_sceneIn_40.png,338,4.0,1.284032900002785,,036,01,2025-02-07_14h06.12.714,Surprise recog test,2023.1.3,59.94495852472344,
338,0,338,0,,,,,,,,,,,,,,,,,,,,,,,,,,,,,,,,,,1141.5653553999728,1142.5974931999808,1140.727325499989,1140.727325499989,1140.727325499989,1140.727325499989,new_sceneOut_21.png,339,4.0,0.8402680000290275,,036,01,2025-02-07_14h06.12.714,Surprise recog test,2023.1.3,59.94495852472344,
339,0,339,0,,,,,,,,,,,,,,,,,,,,,,,,,,,,,,,,,,1143.2335895999568,1144.2531181999948,1142.5974931999808,1142.5974931999808,1142.5974931999808,1142.5974931999808,old_sceneOut_38.png,340,4.0,0.6345752999186516,,036,01,2025-02-07_14h06.12.714,Surprise recog test,2023.1.3,59.94495852472344,
340,0,340,0,,,,,,,,,,,,,,,,,,,,,,,,,,,,,,,,,,1145.1723075000336,1146.1988563999766,1144.2531181999948,1144.2531181999948,1144.2531181999948,1144.2531181999948,old_stationery_21.png,341,4.0,0.9156004999531433,,036,01,2025-02-07_14h06.12.714,Surprise recog test,2023.1.3,59.94495852472344,
341,0,341,0,,,,,,,,,,,,,,,,,,,,,,,,,,,,,,,,,,1147.8662019999465,1148.873049399932,1146.1988563999766,1146.1988563999766,1146.1988563999766,1146.1988563999766,old_stationery_12.png,342,2.0,1.668536499957554,,036,01,2025-02-07_14h06.12.714,Surprise recog test,2023.1.3,59.94495852472344,
342,0,342,0,,,,,,,,,,,,,,,,,,,,,,,,,,,,,,,,,,1150.2383859000402,1151.271659799968,1148.873049399932,1148.873049399932,1148.873049399932,1148.873049399932,old_sceneOut_15.png,343,3.0,1.361839900026098,,036,01,2025-02-07_14h06.12.714,Surprise recog test,2023.1.3,59.94495852472344,
343,0,343,0,,,,,,,,,,,,,,,,,,,,,,,,,,,,,,,,,,1152.575302500045,1153.60287469998,1151.271659799968,1151.271659799968,1151.271659799968,1151.271659799968,new_sceneIn_34.png,344,4.0,1.30601070006378,,036,01,2025-02-07_14h06.12.714,Surprise recog test,2023.1.3,59.94495852472344,
344,0,344,0,,,,,,,,,,,,,,,,,,,,,,,,,,,,,,,,,,1154.450006900006,1155.4633568000281,1153.60287469998,1153.60287469998,1153.60287469998,1153.60287469998,new_fruit_30.png,345,4.0,0.8439146999735385,,036,01,2025-02-07_14h06.12.714,Surprise recog test,2023.1.3,59.94495852472344,
345,0,345,0,,,,,,,,,,,,,,,,,,,,,,,,,,,,,,,,,,1157.2300701999338,1158.2639833999565,1155.4633568000281,1155.4633568000281,1155.4633568000281,1155.4633568000281,old_sceneOut_1.png,346,2.0,1.7642386000370607,,036,01,2025-02-07_14h06.12.714,Surprise recog test,2023.1.3,59.94495852472344,
346,0,346,0,,,,,,,,,,,,,,,,,,,,,,,,,,,,,,,,,,1159.5929880000185,1160.6141455000034,1158.2639833999565,1158.2639833999565,1158.2639833999565,1158.2639833999565,old_sceneIn_50.png,347,3.0,1.331954300054349,,036,01,2025-02-07_14h06.12.714,Surprise recog test,2023.1.3,59.94495852472344,
347,0,347,0,,,,,,,,,,,,,,,,,,,,,,,,,,,,,,,,,,1162.1848230999894,1163.2193129999796,1160.6141455000034,1160.6141455000034,1160.6141455000034,1160.6141455000034,old_sceneIn_17.png,348,4.0,1.5739475999725983,,036,01,2025-02-07_14h06.12.714,Surprise recog test,2023.1.3,59.94495852472344,
348,0,348,0,,,,,,,,,,,,,,,,,,,,,,,,,,,,,,,,,,1165.095910300035,1166.1155358999968,1163.2193129999796,1163.2193129999796,1163.2193129999796,1163.2193129999796,new_stationery_28.png,349,3.0,1.8789825999410823,,036,01,2025-02-07_14h06.12.714,Surprise recog test,2023.1.3,59.94495852472344,
349,0,349,0,,,,,,,,,,,,,,,,,,,,,,,,,,,,,,,,,,1167.7801324999891,1168.791189200012,1166.1155358999968,1166.1155358999968,1166.1155358999968,1166.1155358999968,old_stationery_19.png,350,2.0,1.66260489996057,,036,01,2025-02-07_14h06.12.714,Surprise recog test,2023.1.3,59.94495852472344,
350,0,350,0,,,,,,,,,,,,,,,,,,,,,,,,,,,,,,,,,,1170.1050242999336,1171.1210203999653,1168.791189200012,1168.791189200012,1168.791189200012,1168.791189200012,new_stationery_12.png,351,3.0,1.3097851000493392,,036,01,2025-02-07_14h06.12.714,Surprise recog test,2023.1.3,59.94495852472344,
351,0,351,0,,,,,,,,,,,,,,,,,,,,,,,,,,,,,,,,,,1172.714181700023,1173.7439421999734,1171.1210203999653,1171.1210203999653,1171.1210203999653,1171.1210203999653,new_stationery_49.png,352,3.0,1.5891909999772906,,036,01,2025-02-07_14h06.12.714,Surprise recog test,2023.1.3,59.94495852472344,
352,0,352,0,,,,,,,,,,,,,,,,,,,,,,,,,,,,,,,,,,1175.159605099936,1176.1936127999797,1173.7439421999734,1173.7439421999734,1173.7439421999734,1173.7439421999734,old_stationery_41.png,353,3.0,1.4180126999272034,,036,01,2025-02-07_14h06.12.714,Surprise recog test,2023.1.3,59.94495852472344,
353,0,353,0,,,,,,,,,,,,,,,,,,,,,,,,,,,,,,,,,,1179.3580267999787,1180.3811763999984,1176.1936127999797,1176.1936127999797,1176.1936127999797,1176.1936127999797,new_fruit_9.png,354,4.0,3.166190499905497,,036,01,2025-02-07_14h06.12.714,Surprise recog test,2023.1.3,59.94495852472344,
354,0,354,0,,,,,,,,,,,,,,,,,,,,,,,,,,,,,,,,,,1181.7107634999556,1182.7299160000402,1180.3811763999984,1180.3811763999984,1180.3811763999984,1180.3811763999984,old_stationery_15.png,355,4.0,1.333163799950853,,036,01,2025-02-07_14h06.12.714,Surprise recog test,2023.1.3,59.94495852472344,
