trial_loop.thisRepN,trial_loop.thisTrialN,trial_loop.thisN,trial_loop.thisIndex,VAS_slider.started,VAS_text.started,VAS_notstressed_text.started,VAS_stressed_text.started,continue_input.started,continue_text.started,label0.started,label10.started,label20.started,label30.started,label40.started,label50.started,label60.started,label70.started,label80.started,label90.started,label100.started,VAS_slider.response,VAS_slider.rt,VAS_slider.history,Answer_VAS,continue_input.keys,instruction_text.started,continue_text_2.started,continue_input_2.started,continue_input_2.keys,continue_input_2.rt,continue_input_2.duration,example_text.started,example_slider_2.started,example_image.started,example_slider_2.response,example_slider_2.rt,fixcross.started,fixcross.stopped,front_square.started,stim_images.started,trial_inst_images.started,slider_images.started,thisImg,trial_count,slider_images.response,slider_images.rt,slider_images.stopped,outro.started,participant,condition,date,expName,psychopyVersion,frameRate,
,,,,34.90635629999997,34.90635629999997,34.90635629999997,34.90635629999997,34.90635629999997,34.90635629999997,34.90635629999997,34.90635629999997,34.90635629999997,34.90635629999997,34.90635629999997,34.90635629999997,34.90635629999997,34.90635629999997,34.90635629999997,34.90635629999997,34.90635629999997,1.0111111111111104,9.147525200000018,"[(1.0111111111111104, 9.147525200000018)]",1.0111111111111104,None,,,,,,,,,,,,,,,,,,,,,,,,037,11,2025-01-16_16h34.20.782,Surprise recog test,2023.1.3,59.94801308346879,
,,,,,,,,,,,,,,,,,,,,,,,,,,44.08432829999947,44.08432829999947,44.08432829999947,space,13.816760200001227,None,,,,,,,,,,,,,,,,,,037,11,2025-01-16_16h34.20.782,Surprise recog test,2023.1.3,59.94801308346879,
0,0,0,0,,,,,,,,,,,,,,,,,,,,,,,,,,,,,58.038756199999625,58.038756199999625,58.038756199999625,1.0,5.596958699999959,66.38374219999969,67.39090269999906,64.5910100000001,64.5910100000001,64.5910100000001,64.5910100000001,new_sceneOut_50.png,1,1.0,1.78552259999924,,,037,11,2025-01-16_16h34.20.782,Surprise recog test,2023.1.3,59.94801308346879,
1,0,1,0,,,,,,,,,,,,,,,,,,,,,,,,,,,,,,,,,,69.7303269999993,70.74535169999945,67.39090269999906,67.39090269999906,67.39090269999906,67.39090269999906,old_sceneIn_22.png,2,5.0,2.3334770999990724,,,037,11,2025-01-16_16h34.20.782,Surprise recog test,2023.1.3,59.94801308346879,
2,0,2,0,,,,,,,,,,,,,,,,,,,,,,,,,,,,,,,,,,71.84143259999837,,70.74535169999945,70.74535169999945,70.74535169999945,70.74535169999945,old_stationery_32.png,3,5.0,1.0933557999996992,,,037,11,2025-01-16_16h34.20.782,Surprise recog test,2023.1.3,59.94801308346879,
3,0,3,0,,,,,,,,,,,,,,,,,,,,,,,,,,,,,,,,,,74.56128309999986,,72.87186909999946,72.87186909999946,72.87186909999946,72.87186909999946,new_fruit_35.png,4,1.0,1.6896431000004668,,,037,11,2025-01-16_16h34.20.782,Surprise recog test,2023.1.3,59.94801308346879,
4,0,4,0,,,,,,,,,,,,,,,,,,,,,,,,,,,,,,,,,,76.49211209999885,77.50200179999956,75.59017639999911,75.59017639999911,75.59017639999911,75.59017639999911,old_fruit_32.png,5,1.0,0.8996518999992986,,,037,11,2025-01-16_16h34.20.782,Surprise recog test,2023.1.3,59.94801308346879,
5,0,5,0,,,,,,,,,,,,,,,,,,,,,,,,,,,,,,,,,,79.4025905999988,80.43213189999915,77.50200179999956,77.50200179999956,77.50200179999956,77.50200179999956,old_sceneIn_5.png,6,5.0,1.8982144000001426,,,037,11,2025-01-16_16h34.20.782,Surprise recog test,2023.1.3,59.94801308346879,
6,0,6,0,,,,,,,,,,,,,,,,,,,,,,,,,,,,,,,,,,85.41606079999838,,80.43213189999915,80.43213189999915,80.43213189999915,80.43213189999915,old_sceneOut_31.png,7,None,None,85.4011690999996,,037,11,2025-01-16_16h34.20.782,Surprise recog test,2023.1.3,59.94801308346879,
7,0,7,0,,,,,,,,,,,,,,,,,,,,,,,,,,,,,,,,,,88.23665989999972,89.24222239999835,86.42709429999923,86.42709429999923,86.42709429999923,86.42709429999923,old_sceneOut_42.png,8,1.0,1.8098122000010335,,,037,11,2025-01-16_16h34.20.782,Surprise recog test,2023.1.3,59.94801308346879,
8,0,8,0,,,,,,,,,,,,,,,,,,,,,,,,,,,,,,,,,,91.23890609999944,92.25655069999993,89.24222239999835,89.24222239999835,89.24222239999835,89.24222239999835,old_sceneOut_41.png,9,5.0,1.991247800000565,,,037,11,2025-01-16_16h34.20.782,Surprise recog test,2023.1.3,59.94801308346879,
9,0,9,0,,,,,,,,,,,,,,,,,,,,,,,,,,,,,,,,,,93.80787569999848,94.82185629999913,92.25655069999993,92.25655069999993,92.25655069999993,92.25655069999993,old_stationery_33.png,10,5.0,1.5537602999993396,,,037,11,2025-01-16_16h34.20.782,Surprise recog test,2023.1.3,59.94801308346879,
10,0,10,0,,,,,,,,,,,,,,,,,,,,,,,,,,,,,,,,,,96.29738769999858,97.31690639999943,94.82185629999913,94.82185629999913,94.82185629999913,94.82185629999913,old_sceneIn_45.png,11,5.0,1.4736104999992676,,,037,11,2025-01-16_16h34.20.782,Surprise recog test,2023.1.3,59.94801308346879,
11,0,11,0,,,,,,,,,,,,,,,,,,,,,,,,,,,,,,,,,,98.68812179999986,99.70303619999868,97.31690639999943,97.31690639999943,97.31690639999943,97.31690639999943,old_sceneOut_11.png,12,1.0,1.364518099999259,,,037,11,2025-01-16_16h34.20.782,Surprise recog test,2023.1.3,59.94801308346879,
12,0,12,0,,,,,,,,,,,,,,,,,,,,,,,,,,,,,,,,,,101.41716429999906,,99.70303619999868,99.70303619999868,99.70303619999868,99.70303619999868,old_sceneOut_40.png,13,5.0,1.7095934000008128,,,037,11,2025-01-16_16h34.20.782,Surprise recog test,2023.1.3,59.94801308346879,
13,0,13,0,,,,,,,,,,,,,,,,,,,,,,,,,,,,,,,,,,103.773932099999,104.78993189999892,102.43501909999941,102.43501909999941,102.43501909999941,102.43501909999941,old_fruit_23.png,14,1.0,1.3348708000012266,,,037,11,2025-01-16_16h34.20.782,Surprise recog test,2023.1.3,59.94801308346879,
14,0,14,0,,,,,,,,,,,,,,,,,,,,,,,,,,,,,,,,,,106.90336009999919,,104.78993189999892,104.78993189999892,104.78993189999892,104.78993189999892,new_sceneIn_7.png,15,5.0,2.1071305999994365,,,037,11,2025-01-16_16h34.20.782,Surprise recog test,2023.1.3,59.94801308346879,
15,0,15,0,,,,,,,,,,,,,,,,,,,,,,,,,,,,,,,,,,108.82187469999917,,107.92486859999917,107.92486859999917,107.92486859999917,107.92486859999917,new_sceneOut_18.png,16,5.0,0.8923493000002054,,,037,11,2025-01-16_16h34.20.782,Surprise recog test,2023.1.3,59.94801308346879,
16,0,16,0,,,,,,,,,,,,,,,,,,,,,,,,,,,,,,,,,,111.08071899999959,112.09366689999842,109.8517781999999,109.8517781999999,109.8517781999999,109.8517781999999,new_stationery_44.png,17,5.0,1.2255822000006447,,,037,11,2025-01-16_16h34.20.782,Surprise recog test,2023.1.3,59.94801308346879,
17,0,17,0,,,,,,,,,,,,,,,,,,,,,,,,,,,,,,,,,,113.68360219999886,114.69800779999969,112.09366689999842,112.09366689999842,112.09366689999842,112.09366689999842,new_stationery_33.png,18,5.0,1.585159799999019,,,037,11,2025-01-16_16h34.20.782,Surprise recog test,2023.1.3,59.94801308346879,
18,0,18,0,,,,,,,,,,,,,,,,,,,,,,,,,,,,,,,,,,116.376145799999,117.39640519999921,114.69800779999969,114.69800779999969,114.69800779999969,114.69800779999969,new_sceneOut_10.png,19,1.0,1.671859800000675,,,037,11,2025-01-16_16h34.20.782,Surprise recog test,2023.1.3,59.94801308346879,
19,0,19,0,,,,,,,,,,,,,,,,,,,,,,,,,,,,,,,,,,119.11580969999886,120.13618369999858,117.39640519999921,117.39640519999921,117.39640519999921,117.39640519999921,new_sceneOut_49.png,20,5.0,1.7215169000010064,,,037,11,2025-01-16_16h34.20.782,Surprise recog test,2023.1.3,59.94801308346879,
20,0,20,0,,,,,,,,,,,,,,,,,,,,,,,,,,,,,,,,,,121.27206259999912,122.29936199999975,120.13618369999858,120.13618369999858,120.13618369999858,120.13618369999858,old_sceneIn_46.png,21,5.0,1.131178200001159,,,037,11,2025-01-16_16h34.20.782,Surprise recog test,2023.1.3,59.94801308346879,
21,0,21,0,,,,,,,,,,,,,,,,,,,,,,,,,,,,,,,,,,123.15949069999988,124.17282329999944,122.29936199999975,122.29936199999975,122.29936199999975,122.29936199999975,old_sceneOut_39.png,22,5.0,0.8618021000002045,,,037,11,2025-01-16_16h34.20.782,Surprise recog test,2023.1.3,59.94801308346879,
22,0,22,0,,,,,,,,,,,,,,,,,,,,,,,,,,,,,,,,,,126.23347179999837,127.23877569999968,124.17282329999944,124.17282329999944,124.17282329999944,124.17282329999944,new_fruit_45.png,23,5.0,2.0510192000001553,,,037,11,2025-01-16_16h34.20.782,Surprise recog test,2023.1.3,59.94801308346879,
23,0,23,0,,,,,,,,,,,,,,,,,,,,,,,,,,,,,,,,,,129.3297247999999,130.34371589999864,127.23877569999968,127.23877569999968,127.23877569999968,127.23877569999968,new_stationery_24.png,24,1.0,2.087284199998976,,,037,11,2025-01-16_16h34.20.782,Surprise recog test,2023.1.3,59.94801308346879,
24,0,24,0,,,,,,,,,,,,,,,,,,,,,,,,,,,,,,,,,,131.95486919999894,132.97167699999954,130.34371589999864,130.34371589999864,130.34371589999864,130.34371589999864,old_sceneIn_3.png,25,5.0,1.602062100000694,,,037,11,2025-01-16_16h34.20.782,Surprise recog test,2023.1.3,59.94801308346879,
25,0,25,0,,,,,,,,,,,,,,,,,,,,,,,,,,,,,,,,,,133.7063202999998,134.715435099999,132.97167699999954,132.97167699999954,132.97167699999954,132.97167699999954,new_sceneOut_39.png,26,5.0,0.7354365999999573,,,037,11,2025-01-16_16h34.20.782,Surprise recog test,2023.1.3,59.94801308346879,
26,0,26,0,,,,,,,,,,,,,,,,,,,,,,,,,,,,,,,,,,136.03134819999832,137.06381819999842,134.715435099999,134.715435099999,134.715435099999,134.715435099999,old_stationery_8.png,27,1.0,1.3126389000008203,,,037,11,2025-01-16_16h34.20.782,Surprise recog test,2023.1.3,59.94801308346879,
27,0,27,0,,,,,,,,,,,,,,,,,,,,,,,,,,,,,,,,,,137.80966369999987,138.81644469999992,137.06381819999842,137.06381819999842,137.06381819999842,137.06381819999842,old_sceneOut_6.png,28,1.0,0.742608199998358,,,037,11,2025-01-16_16h34.20.782,Surprise recog test,2023.1.3,59.94801308346879,
28,0,28,0,,,,,,,,,,,,,,,,,,,,,,,,,,,,,,,,,,139.79004179999902,140.81001019999894,138.81644469999992,138.81644469999992,138.81644469999992,138.81644469999992,old_stationery_3.png,29,1.0,0.9712577999998757,,,037,11,2025-01-16_16h34.20.782,Surprise recog test,2023.1.3,59.94801308346879,
29,0,29,0,,,,,,,,,,,,,,,,,,,,,,,,,,,,,,,,,,142.62226869999904,143.65231519999907,140.81001019999894,140.81001019999894,140.81001019999894,140.81001019999894,new_sceneOut_35.png,30,5.0,1.8114847999986523,,,037,11,2025-01-16_16h34.20.782,Surprise recog test,2023.1.3,59.94801308346879,
30,0,30,0,,,,,,,,,,,,,,,,,,,,,,,,,,,,,,,,,,144.43533969999953,,143.65231519999907,143.65231519999907,143.65231519999907,143.65231519999907,new_sceneIn_16.png,31,5.0,0.7853969000007055,,,037,11,2025-01-16_16h34.20.782,Surprise recog test,2023.1.3,59.94801308346879,
31,0,31,0,,,,,,,,,,,,,,,,,,,,,,,,,,,,,,,,,,147.21659889999864,148.23764549999942,145.46909659999983,145.46909659999983,145.46909659999983,145.46909659999983,old_sceneOut_9.png,32,1.0,1.7494617000011203,,,037,11,2025-01-16_16h34.20.782,Surprise recog test,2023.1.3,59.94801308346879,
32,0,32,0,,,,,,,,,,,,,,,,,,,,,,,,,,,,,,,,,,149.0012900999991,150.02253289999862,148.23764549999942,148.23764549999942,148.23764549999942,148.23764549999942,new_fruit_39.png,33,1.0,0.7666518000005453,,,037,11,2025-01-16_16h34.20.782,Surprise recog test,2023.1.3,59.94801308346879,
33,0,33,0,,,,,,,,,,,,,,,,,,,,,,,,,,,,,,,,,,150.69127809999918,,150.02253289999862,150.02253289999862,150.02253289999862,150.02253289999862,old_fruit_17.png,34,1.0,0.6711596999994072,,,037,11,2025-01-16_16h34.20.782,Surprise recog test,2023.1.3,59.94801308346879,
34,0,34,0,,,,,,,,,,,,,,,,,,,,,,,,,,,,,,,,,,153.30592869999964,154.31051839999964,151.71301099999982,151.71301099999982,151.71301099999982,151.71301099999982,old_sceneIn_43.png,35,5.0,1.5853700999996363,,,037,11,2025-01-16_16h34.20.782,Surprise recog test,2023.1.3,59.94801308346879,
35,0,35,0,,,,,,,,,,,,,,,,,,,,,,,,,,,,,,,,,,155.99910969999837,157.0168122999985,154.31051839999964,154.31051839999964,154.31051839999964,154.31051839999964,new_sceneIn_47.png,36,5.0,1.6850471999987349,,,037,11,2025-01-16_16h34.20.782,Surprise recog test,2023.1.3,59.94801308346879,
36,0,36,0,,,,,,,,,,,,,,,,,,,,,,,,,,,,,,,,,,159.51641019999988,160.54543229999945,157.0168122999985,157.0168122999985,157.0168122999985,157.0168122999985,new_fruit_21.png,37,1.0,2.4956935999998677,,,037,11,2025-01-16_16h34.20.782,Surprise recog test,2023.1.3,59.94801308346879,
37,0,37,0,,,,,,,,,,,,,,,,,,,,,,,,,,,,,,,,,,162.4916831999999,163.50553819999914,160.54543229999945,160.54543229999945,160.54543229999945,160.54543229999945,old_fruit_15.png,38,1.0,1.9486639000006107,,,037,11,2025-01-16_16h34.20.782,Surprise recog test,2023.1.3,59.94801308346879,
38,0,38,0,,,,,,,,,,,,,,,,,,,,,,,,,,,,,,,,,,165.08399949999875,166.1003039999996,163.50553819999914,163.50553819999914,163.50553819999914,163.50553819999914,old_stationery_38.png,39,5.0,1.571639799998593,,,037,11,2025-01-16_16h34.20.782,Surprise recog test,2023.1.3,59.94801308346879,
39,0,39,0,,,,,,,,,,,,,,,,,,,,,,,,,,,,,,,,,,168.35497189999842,,166.1003039999996,166.1003039999996,166.1003039999996,166.1003039999996,new_fruit_20.png,40,5.0,2.254008600000816,,,037,11,2025-01-16_16h34.20.782,Surprise recog test,2023.1.3,59.94801308346879,
40,0,40,0,,,,,,,,,,,,,,,,,,,,,,,,,,,,,,,,,,171.14925330000005,172.1623258999989,169.38359539999874,169.38359539999874,169.38359539999874,169.38359539999874,new_sceneOut_47.png,41,5.0,1.7641612999996141,,,037,11,2025-01-16_16h34.20.782,Surprise recog test,2023.1.3,59.94801308346879,
41,0,41,0,,,,,,,,,,,,,,,,,,,,,,,,,,,,,,,,,,173.92312309999943,174.94674599999962,172.1623258999989,172.1623258999989,172.1623258999989,172.1623258999989,old_fruit_39.png,42,1.0,1.755683899998985,,,037,11,2025-01-16_16h34.20.782,Surprise recog test,2023.1.3,59.94801308346879,
42,0,42,0,,,,,,,,,,,,,,,,,,,,,,,,,,,,,,,,,,177.04239289999896,178.05815549999897,174.94674599999962,174.94674599999962,174.94674599999962,174.94674599999962,new_stationery_22.png,43,5.0,2.0914496000004874,,,037,11,2025-01-16_16h34.20.782,Surprise recog test,2023.1.3,59.94801308346879,
43,0,43,0,,,,,,,,,,,,,,,,,,,,,,,,,,,,,,,,,,178.8521843999988,179.86840859999938,178.05815549999897,178.05815549999897,178.05815549999897,178.05815549999897,old_fruit_46.png,44,5.0,0.7943718999995326,,,037,11,2025-01-16_16h34.20.782,Surprise recog test,2023.1.3,59.94801308346879,
44,0,44,0,,,,,,,,,,,,,,,,,,,,,,,,,,,,,,,,,,181.23861119999856,182.2618795999988,179.86840859999938,179.86840859999938,179.86840859999938,179.86840859999938,new_stationery_30.png,45,1.0,1.365025400000377,,,037,11,2025-01-16_16h34.20.782,Surprise recog test,2023.1.3,59.94801308346879,
45,0,45,0,,,,,,,,,,,,,,,,,,,,,,,,,,,,,,,,,,184.0030147999987,185.03169229999912,182.2618795999988,182.2618795999988,182.2618795999988,182.2618795999988,old_sceneOut_30.png,46,1.0,1.7406487000007473,,,037,11,2025-01-16_16h34.20.782,Surprise recog test,2023.1.3,59.94801308346879,
46,0,46,0,,,,,,,,,,,,,,,,,,,,,,,,,,,,,,,,,,185.9664630999996,186.98732349999955,185.03169229999912,185.03169229999912,185.03169229999912,185.03169229999912,old_fruit_1.png,47,1.0,0.9291828999994323,,,037,11,2025-01-16_16h34.20.782,Surprise recog test,2023.1.3,59.94801308346879,
47,0,47,0,,,,,,,,,,,,,,,,,,,,,,,,,,,,,,,,,,188.76886879999984,189.7886921999998,186.98732349999955,186.98732349999955,186.98732349999955,186.98732349999955,new_stationery_28.png,48,1.0,1.7788424999998824,,,037,11,2025-01-16_16h34.20.782,Surprise recog test,2023.1.3,59.94801308346879,
48,0,48,0,,,,,,,,,,,,,,,,,,,,,,,,,,,,,,,,,,191.30424429999948,192.32345309999982,189.7886921999998,189.7886921999998,189.7886921999998,189.7886921999998,old_stationery_6.png,49,1.0,1.5145396999996592,,,037,11,2025-01-16_16h34.20.782,Surprise recog test,2023.1.3,59.94801308346879,
49,0,49,0,,,,,,,,,,,,,,,,,,,,,,,,,,,,,,,,,,194.54207739999947,195.5487065999987,192.32345309999982,192.32345309999982,192.32345309999982,192.32345309999982,new_sceneOut_13.png,50,5.0,2.2191980999996304,,,037,11,2025-01-16_16h34.20.782,Surprise recog test,2023.1.3,59.94801308346879,
50,0,50,0,,,,,,,,,,,,,,,,,,,,,,,,,,,,,,,,,,197.45658120000007,198.47413629999937,195.5487065999987,195.5487065999987,195.5487065999987,195.5487065999987,new_stationery_47.png,51,5.0,1.9025366000005306,,,037,11,2025-01-16_16h34.20.782,Surprise recog test,2023.1.3,59.94801308346879,
51,0,51,0,,,,,,,,,,,,,,,,,,,,,,,,,,,,,,,,,,200.87167619999855,201.8978909999987,198.47413629999937,198.47413629999937,198.47413629999937,198.47413629999937,new_fruit_11.png,52,5.0,2.394296700000268,,,037,11,2025-01-16_16h34.20.782,Surprise recog test,2023.1.3,59.94801308346879,
52,0,52,0,,,,,,,,,,,,,,,,,,,,,,,,,,,,,,,,,,203.51746379999895,,201.8978909999987,201.8978909999987,201.8978909999987,201.8978909999987,new_stationery_45.png,53,5.0,1.6222319999997126,,,037,11,2025-01-16_16h34.20.782,Surprise recog test,2023.1.3,59.94801308346879,
53,0,53,0,,,,,,,,,,,,,,,,,,,,,,,,,,,,,,,,,,207.30626279999888,208.33791439999914,204.53839639999933,204.53839639999933,204.53839639999933,204.53839639999933,old_sceneIn_14.png,54,1.0,2.761491400000523,,,037,11,2025-01-16_16h34.20.782,Surprise recog test,2023.1.3,59.94801308346879,
54,0,54,0,,,,,,,,,,,,,,,,,,,,,,,,,,,,,,,,,,210.95205600000008,211.97196379999878,208.33791439999914,208.33791439999914,208.33791439999914,208.33791439999914,old_fruit_13.png,55,1.0,2.603378199999497,,,037,11,2025-01-16_16h34.20.782,Surprise recog test,2023.1.3,59.94801308346879,
55,0,55,0,,,,,,,,,,,,,,,,,,,,,,,,,,,,,,,,,,213.8497998999992,214.87787989999924,211.97196379999878,211.97196379999878,211.97196379999878,211.97196379999878,new_stationery_3.png,56,5.0,1.8789085000007617,,,037,11,2025-01-16_16h34.20.782,Surprise recog test,2023.1.3,59.94801308346879,
56,0,56,0,,,,,,,,,,,,,,,,,,,,,,,,,,,,,,,,,,215.66017139999894,,214.87787989999924,214.87787989999924,214.87787989999924,214.87787989999924,new_stationery_29.png,57,5.0,0.7853946999985055,,,037,11,2025-01-16_16h34.20.782,Surprise recog test,2023.1.3,59.94801308346879,
57,0,57,0,,,,,,,,,,,,,,,,,,,,,,,,,,,,,,,,,,218.11615589999928,219.14286259999972,216.69753919999857,216.69753919999857,216.69753919999857,216.69753919999857,old_stationery_36.png,58,1.0,1.4209344999999303,,,037,11,2025-01-16_16h34.20.782,Surprise recog test,2023.1.3,59.94801308346879,
58,0,58,0,,,,,,,,,,,,,,,,,,,,,,,,,,,,,,,,,,221.3793560999984,222.39847419999933,219.14286259999972,219.14286259999972,219.14286259999972,219.14286259999972,new_sceneIn_50.png,59,4.0,2.239414300000135,,,037,11,2025-01-16_16h34.20.782,Surprise recog test,2023.1.3,59.94801308346879,
59,0,59,0,,,,,,,,,,,,,,,,,,,,,,,,,,,,,,,,,,223.9046774999988,224.9287865999995,222.39847419999933,222.39847419999933,222.39847419999933,222.39847419999933,old_stationery_35.png,60,1.0,1.5050036999982694,,,037,11,2025-01-16_16h34.20.782,Surprise recog test,2023.1.3,59.94801308346879,
60,0,60,0,,,,,,,,,,,,,,,,,,,,,,,,,,,,,,,,,,226.9111723999995,227.92512089999946,224.9287865999995,224.9287865999995,224.9287865999995,224.9287865999995,new_fruit_31.png,61,1.0,1.9804046000008384,,,037,11,2025-01-16_16h34.20.782,Surprise recog test,2023.1.3,59.94801308346879,
61,0,61,0,,,,,,,,,,,,,,,,,,,,,,,,,,,,,,,,,,229.38586649999888,230.40668839999853,227.92512089999946,227.92512089999946,227.92512089999946,227.92512089999946,new_fruit_41.png,62,1.0,1.4525825000000623,,,037,11,2025-01-16_16h34.20.782,Surprise recog test,2023.1.3,59.94801308346879,
62,0,62,0,,,,,,,,,,,,,,,,,,,,,,,,,,,,,,,,,,231.80475639999895,232.81982609999977,230.40668839999853,230.40668839999853,230.40668839999853,230.40668839999853,new_sceneOut_26.png,63,5.0,1.400443799999266,,,037,11,2025-01-16_16h34.20.782,Surprise recog test,2023.1.3,59.94801308346879,
63,0,63,0,,,,,,,,,,,,,,,,,,,,,,,,,,,,,,,,,,233.77829309999834,234.79801289999887,232.81982609999977,232.81982609999977,232.81982609999977,232.81982609999977,new_stationery_42.png,64,5.0,0.9522378000001481,,,037,11,2025-01-16_16h34.20.782,Surprise recog test,2023.1.3,59.94801308346879,
64,0,64,0,,,,,,,,,,,,,,,,,,,,,,,,,,,,,,,,,,236.11255229999915,237.1330586999993,234.79801289999887,234.79801289999887,234.79801289999887,234.79801289999887,old_sceneIn_15.png,65,5.0,1.3104103000005125,,,037,11,2025-01-16_16h34.20.782,Surprise recog test,2023.1.3,59.94801308346879,
65,0,65,0,,,,,,,,,,,,,,,,,,,,,,,,,,,,,,,,,,239.15034679999917,240.16838969999844,237.1330586999993,237.1330586999993,237.1330586999993,237.1330586999993,old_fruit_9.png,66,5.0,2.0124778999997943,,,037,11,2025-01-16_16h34.20.782,Surprise recog test,2023.1.3,59.94801308346879,
66,0,66,0,,,,,,,,,,,,,,,,,,,,,,,,,,,,,,,,,,241.82953619999898,242.83819249999942,240.16838969999844,240.16838969999844,240.16838969999844,240.16838969999844,new_fruit_15.png,67,1.0,1.655898499999239,,,037,11,2025-01-16_16h34.20.782,Surprise recog test,2023.1.3,59.94801308346879,
67,0,67,0,,,,,,,,,,,,,,,,,,,,,,,,,,,,,,,,,,244.8027562999996,,242.83819249999942,242.83819249999942,242.83819249999942,242.83819249999942,old_stationery_16.png,68,5.0,1.9576196999987587,,,037,11,2025-01-16_16h34.20.782,Surprise recog test,2023.1.3,59.94801308346879,
68,0,68,0,,,,,,,,,,,,,,,,,,,,,,,,,,,,,,,,,,248.8133005999989,249.83990039999844,245.82803599999897,245.82803599999897,245.82803599999897,245.82803599999897,new_fruit_12.png,69,5.0,2.9854792000005546,,,037,11,2025-01-16_16h34.20.782,Surprise recog test,2023.1.3,59.94801308346879,
69,0,69,0,,,,,,,,,,,,,,,,,,,,,,,,,,,,,,,,,,251.6061428999983,252.6125764999997,249.83990039999844,249.83990039999844,249.83990039999844,249.83990039999844,old_sceneIn_35.png,70,5.0,1.7663968000015302,,,037,11,2025-01-16_16h34.20.782,Surprise recog test,2023.1.3,59.94801308346879,
70,0,70,0,,,,,,,,,,,,,,,,,,,,,,,,,,,,,,,,,,254.6233745999998,255.64238729999852,252.6125764999997,252.6125764999997,252.6125764999997,252.6125764999997,new_fruit_27.png,71,1.0,2.0066710999999486,,,037,11,2025-01-16_16h34.20.782,Surprise recog test,2023.1.3,59.94801308346879,
71,0,71,0,,,,,,,,,,,,,,,,,,,,,,,,,,,,,,,,,,258.53419199999917,259.5640304999997,255.64238729999852,255.64238729999852,255.64238729999852,255.64238729999852,old_sceneOut_46.png,72,3.0,2.8926215000010416,,,037,11,2025-01-16_16h34.20.782,Surprise recog test,2023.1.3,59.94801308346879,
72,0,72,0,,,,,,,,,,,,,,,,,,,,,,,,,,,,,,,,,,261.03259909999906,,259.5640304999997,259.5640304999997,259.5640304999997,259.5640304999997,new_stationery_16.png,73,4.0,1.4697414999991452,,,037,11,2025-01-16_16h34.20.782,Surprise recog test,2023.1.3,59.94801308346879,
73,0,73,0,,,,,,,,,,,,,,,,,,,,,,,,,,,,,,,,,,263.7051498000001,264.73365879999983,262.053116699999,262.053116699999,262.053116699999,262.053116699999,new_sceneIn_28.png,74,4.0,1.647372200000973,,,037,11,2025-01-16_16h34.20.782,Surprise recog test,2023.1.3,59.94801308346879,
74,0,74,0,,,,,,,,,,,,,,,,,,,,,,,,,,,,,,,,,,265.7662135999999,266.7704507999988,264.73365879999983,264.73365879999983,264.73365879999983,264.73365879999983,new_stationery_10.png,75,5.0,1.033154900000227,,,037,11,2025-01-16_16h34.20.782,Surprise recog test,2023.1.3,59.94801308346879,
75,0,75,0,,,,,,,,,,,,,,,,,,,,,,,,,,,,,,,,,,268.048968699999,269.0568902999985,266.7704507999988,266.7704507999988,266.7704507999988,266.7704507999988,old_fruit_35.png,76,1.0,1.2743768000000273,,,037,11,2025-01-16_16h34.20.782,Surprise recog test,2023.1.3,59.94801308346879,
76,0,76,0,,,,,,,,,,,,,,,,,,,,,,,,,,,,,,,,,,270.35163379999904,271.36844139999994,269.0568902999985,269.0568902999985,269.0568902999985,269.0568902999985,old_sceneOut_45.png,77,4.0,1.2908406000005925,,,037,11,2025-01-16_16h34.20.782,Surprise recog test,2023.1.3,59.94801308346879,
77,0,77,0,,,,,,,,,,,,,,,,,,,,,,,,,,,,,,,,,,272.4869473999988,273.4969975999993,271.36844139999994,271.36844139999994,271.36844139999994,271.36844139999994,new_sceneIn_13.png,78,5.0,1.1191736999990098,,,037,11,2025-01-16_16h34.20.782,Surprise recog test,2023.1.3,59.94801308346879,
78,0,78,0,,,,,,,,,,,,,,,,,,,,,,,,,,,,,,,,,,275.65125869999974,276.6715881,273.4969975999993,273.4969975999993,273.4969975999993,273.4969975999993,old_sceneOut_43.png,79,1.0,2.1497727000005398,,,037,11,2025-01-16_16h34.20.782,Surprise recog test,2023.1.3,59.94801308346879,
79,0,79,0,,,,,,,,,,,,,,,,,,,,,,,,,,,,,,,,,,277.70840859999953,278.7257418999998,276.6715881,276.6715881,276.6715881,276.6715881,new_fruit_47.png,80,1.0,1.034780600000886,,,037,11,2025-01-16_16h34.20.782,Surprise recog test,2023.1.3,59.94801308346879,
80,0,80,0,,,,,,,,,,,,,,,,,,,,,,,,,,,,,,,,,,280.2399796999998,281.25298329999896,278.7257418999998,278.7257418999998,278.7257418999998,278.7257418999998,old_sceneIn_4.png,81,5.0,1.5163825999989058,,,037,11,2025-01-16_16h34.20.782,Surprise recog test,2023.1.3,59.94801308346879,
81,0,81,0,,,,,,,,,,,,,,,,,,,,,,,,,,,,,,,,,,282.46933139999965,283.4933526999994,281.25298329999896,281.25298329999896,281.25298329999896,281.25298329999896,new_stationery_26.png,82,5.0,1.2117000999987795,,,037,11,2025-01-16_16h34.20.782,Surprise recog test,2023.1.3,59.94801308346879,
82,0,82,0,,,,,,,,,,,,,,,,,,,,,,,,,,,,,,,,,,285.54618799999844,286.5687984999986,283.4933526999994,283.4933526999994,283.4933526999994,283.4933526999994,new_sceneOut_30.png,83,2.0,2.0490133999992395,,,037,11,2025-01-16_16h34.20.782,Surprise recog test,2023.1.3,59.94801308346879,
83,0,83,0,,,,,,,,,,,,,,,,,,,,,,,,,,,,,,,,,,287.79638689999956,288.82046679999985,286.5687984999986,286.5687984999986,286.5687984999986,286.5687984999986,old_sceneIn_34.png,84,4.0,1.229220199998963,,,037,11,2025-01-16_16h34.20.782,Surprise recog test,2023.1.3,59.94801308346879,
84,0,84,0,,,,,,,,,,,,,,,,,,,,,,,,,,,,,,,,,,290.1459597999983,291.18330739999874,288.82046679999985,288.82046679999985,288.82046679999985,288.82046679999985,new_sceneIn_29.png,85,5.0,1.3279242999997223,,,037,11,2025-01-16_16h34.20.782,Surprise recog test,2023.1.3,59.94801308346879,
85,0,85,0,,,,,,,,,,,,,,,,,,,,,,,,,,,,,,,,,,293.1085418999992,,291.18330739999874,291.18330739999874,291.18330739999874,291.18330739999874,new_fruit_34.png,86,4.0,1.9293982999988657,,,037,11,2025-01-16_16h34.20.782,Surprise recog test,2023.1.3,59.94801308346879,
86,0,86,0,,,,,,,,,,,,,,,,,,,,,,,,,,,,,,,,,,296.63740399999915,297.65149999999994,294.13006009999845,294.13006009999845,294.13006009999845,294.13006009999845,new_sceneOut_38.png,87,2.0,2.5030903999995644,,,037,11,2025-01-16_16h34.20.782,Surprise recog test,2023.1.3,59.94801308346879,
87,0,87,0,,,,,,,,,,,,,,,,,,,,,,,,,,,,,,,,,,298.84459649999917,299.8620358999997,297.65149999999994,297.65149999999994,297.65149999999994,297.65149999999994,new_fruit_18.png,88,1.0,1.18823650000013,,,037,11,2025-01-16_16h34.20.782,Surprise recog test,2023.1.3,59.94801308346879,
88,0,88,0,,,,,,,,,,,,,,,,,,,,,,,,,,,,,,,,,,300.62852329999987,301.6372950999994,299.8620358999997,299.8620358999997,299.8620358999997,299.8620358999997,new_fruit_25.png,89,1.0,0.764041399999769,,,037,11,2025-01-16_16h34.20.782,Surprise recog test,2023.1.3,59.94801308346879,
89,0,89,0,,,,,,,,,,,,,,,,,,,,,,,,,,,,,,,,,,304.7401288000001,305.7684929999996,301.6372950999994,301.6372950999994,301.6372950999994,301.6372950999994,old_fruit_14.png,90,5.0,3.096233199999915,,,037,11,2025-01-16_16h34.20.782,Surprise recog test,2023.1.3,59.94801308346879,
90,0,90,0,,,,,,,,,,,,,,,,,,,,,,,,,,,,,,,,,,307.27461629999925,308.30259789999945,305.7684929999996,305.7684929999996,305.7684929999996,305.7684929999996,old_stationery_20.png,91,5.0,1.505467700000736,,,037,11,2025-01-16_16h34.20.782,Surprise recog test,2023.1.3,59.94801308346879,
91,0,91,0,,,,,,,,,,,,,,,,,,,,,,,,,,,,,,,,,,309.37177249999877,,308.30259789999945,308.30259789999945,308.30259789999945,308.30259789999945,old_sceneOut_20.png,92,5.0,1.0706547999998293,,,037,11,2025-01-16_16h34.20.782,Surprise recog test,2023.1.3,59.94801308346879,
92,0,92,0,,,,,,,,,,,,,,,,,,,,,,,,,,,,,,,,,,312.55943409999963,313.58304079999834,310.392044799999,310.392044799999,310.392044799999,310.392044799999,new_stationery_2.png,93,3.0,2.163155700000061,,,037,11,2025-01-16_16h34.20.782,Surprise recog test,2023.1.3,59.94801308346879,
93,0,93,0,,,,,,,,,,,,,,,,,,,,,,,,,,,,,,,,,,315.7578670999992,316.77640619999875,313.58304079999834,313.58304079999834,313.58304079999834,313.58304079999834,old_stationery_41.png,94,5.0,2.1656915999992634,,,037,11,2025-01-16_16h34.20.782,Surprise recog test,2023.1.3,59.94801308346879,
94,0,94,0,,,,,,,,,,,,,,,,,,,,,,,,,,,,,,,,,,318.00574029999916,319.03543379999974,316.77640619999875,316.77640619999875,316.77640619999875,316.77640619999875,new_fruit_1.png,95,1.0,1.2313784999987547,,,037,11,2025-01-16_16h34.20.782,Surprise recog test,2023.1.3,59.94801308346879,
95,0,95,0,,,,,,,,,,,,,,,,,,,,,,,,,,,,,,,,,,320.3208421999989,321.34695159999865,319.03543379999974,319.03543379999974,319.03543379999974,319.03543379999974,new_stationery_38.png,96,1.0,1.2902076999998826,,,037,11,2025-01-16_16h34.20.782,Surprise recog test,2023.1.3,59.94801308346879,
96,0,96,0,,,,,,,,,,,,,,,,,,,,,,,,,,,,,,,,,,322.14636169999903,323.1659263999991,321.34695159999865,321.34695159999865,321.34695159999865,321.34695159999865,new_stationery_35.png,97,1.0,0.7990454999999201,,,037,11,2025-01-16_16h34.20.782,Surprise recog test,2023.1.3,59.94801308346879,
97,0,97,0,,,,,,,,,,,,,,,,,,,,,,,,,,,,,,,,,,324.95071259999895,,323.1659263999991,323.1659263999991,323.1659263999991,323.1659263999991,old_sceneIn_16.png,98,5.0,1.7830438000000868,,,037,11,2025-01-16_16h34.20.782,Surprise recog test,2023.1.3,59.94801308346879,
98,0,98,0,,,,,,,,,,,,,,,,,,,,,,,,,,,,,,,,,,326.78347029999895,327.7906699999985,325.97074729999986,325.97074729999986,325.97074729999986,325.97074729999986,new_stationery_50.png,99,5.0,0.8068610999998782,,,037,11,2025-01-16_16h34.20.782,Surprise recog test,2023.1.3,59.94801308346879,
99,0,99,0,,,,,,,,,,,,,,,,,,,,,,,,,,,,,,,,,,329.037683999999,,327.7906699999985,327.7906699999985,327.7906699999985,327.7906699999985,old_sceneOut_28.png,100,1.0,1.2432716999992408,,,037,11,2025-01-16_16h34.20.782,Surprise recog test,2023.1.3,59.94801308346879,
100,0,100,0,,,,,,,,,,,,,,,,,,,,,,,,,,,,,,,,,,332.74058349999905,,330.0567272999997,330.0567272999997,330.0567272999997,330.0567272999997,new_stationery_21.png,101,4.0,2.680276999999478,,,037,11,2025-01-16_16h34.20.782,Surprise recog test,2023.1.3,59.94801308346879,
101,0,101,0,,,,,,,,,,,,,,,,,,,,,,,,,,,,,,,,,,334.77665419999903,,333.7672659999989,333.7672659999989,333.7672659999989,333.7672659999989,new_sceneIn_26.png,102,5.0,1.0099188000003778,,,037,11,2025-01-16_16h34.20.782,Surprise recog test,2023.1.3,59.94801308346879,
102,0,102,0,,,,,,,,,,,,,,,,,,,,,,,,,,,,,,,,,,336.9364164999988,337.96542709999994,335.8093122999999,335.8093122999999,335.8093122999999,335.8093122999999,old_sceneOut_24.png,103,5.0,1.1289945999997144,,,037,11,2025-01-16_16h34.20.782,Surprise recog test,2023.1.3,59.94801308346879,
103,0,103,0,,,,,,,,,,,,,,,,,,,,,,,,,,,,,,,,,,338.7504616999995,339.77739569999903,337.96542709999994,337.96542709999994,337.96542709999994,337.96542709999994,old_sceneIn_11.png,104,5.0,0.787776400000439,,,037,11,2025-01-16_16h34.20.782,Surprise recog test,2023.1.3,59.94801308346879,
104,0,104,0,,,,,,,,,,,,,,,,,,,,,,,,,,,,,,,,,,341.08328549999896,,339.77739569999903,339.77739569999903,339.77739569999903,339.77739569999903,old_fruit_31.png,105,1.0,1.3038472999996884,,,037,11,2025-01-16_16h34.20.782,Surprise recog test,2023.1.3,59.94801308346879,
105,0,105,0,,,,,,,,,,,,,,,,,,,,,,,,,,,,,,,,,,343.9755284999992,344.99090409999917,342.1157346,342.1157346,342.1157346,342.1157346,new_sceneOut_1.png,106,1.0,1.8632198999985121,,,037,11,2025-01-16_16h34.20.782,Surprise recog test,2023.1.3,59.94801308346879,
106,0,106,0,,,,,,,,,,,,,,,,,,,,,,,,,,,,,,,,,,346.31717089999984,347.3248515999985,344.99090409999917,344.99090409999917,344.99090409999917,344.99090409999917,new_sceneIn_48.png,107,5.0,1.3241603000005853,,,037,11,2025-01-16_16h34.20.782,Surprise recog test,2023.1.3,59.94801308346879,
107,0,107,0,,,,,,,,,,,,,,,,,,,,,,,,,,,,,,,,,,348.90773889999946,349.9394186999998,347.3248515999985,347.3248515999985,347.3248515999985,347.3248515999985,new_stationery_11.png,108,5.0,1.5786726000005729,,,037,11,2025-01-16_16h34.20.782,Surprise recog test,2023.1.3,59.94801308346879,
108,0,108,0,,,,,,,,,,,,,,,,,,,,,,,,,,,,,,,,,,350.82620249999854,351.8450983999992,349.9394186999998,349.9394186999998,349.9394186999998,349.9394186999998,old_stationery_7.png,109,5.0,0.8891610000009678,,,037,11,2025-01-16_16h34.20.782,Surprise recog test,2023.1.3,59.94801308346879,
109,0,109,0,,,,,,,,,,,,,,,,,,,,,,,,,,,,,,,,,,352.86603859999923,353.8930015999995,351.8450983999992,351.8450983999992,351.8450983999992,351.8450983999992,new_stationery_4.png,110,5.0,1.0146337000005587,,,037,11,2025-01-16_16h34.20.782,Surprise recog test,2023.1.3,59.94801308346879,
110,0,110,0,,,,,,,,,,,,,,,,,,,,,,,,,,,,,,,,,,355.7766077999986,,353.8930015999995,353.8930015999995,353.8930015999995,353.8930015999995,old_stationery_27.png,111,2.0,1.884132099999988,,,037,11,2025-01-16_16h34.20.782,Surprise recog test,2023.1.3,59.94801308346879,
111,0,111,0,,,,,,,,,,,,,,,,,,,,,,,,,,,,,,,,,,358.0786257999989,,356.79691699999967,356.79691699999967,356.79691699999967,356.79691699999967,new_fruit_7.png,112,1.0,1.277778199999375,,,037,11,2025-01-16_16h34.20.782,Surprise recog test,2023.1.3,59.94801308346879,
112,0,112,0,,,,,,,,,,,,,,,,,,,,,,,,,,,,,,,,,,359.7859266999985,360.8019371999999,359.1076069999999,359.1076069999999,359.1076069999999,359.1076069999999,new_fruit_9.png,113,1.0,0.6763220000011643,,,037,11,2025-01-16_16h34.20.782,Surprise recog test,2023.1.3,59.94801308346879,
113,0,113,0,,,,,,,,,,,,,,,,,,,,,,,,,,,,,,,,,,361.71308599999975,362.7312787999999,360.8019371999999,360.8019371999999,360.8019371999999,360.8019371999999,new_fruit_48.png,114,1.0,0.9074870999993436,,,037,11,2025-01-16_16h34.20.782,Surprise recog test,2023.1.3,59.94801308346879,
114,0,114,0,,,,,,,,,,,,,,,,,,,,,,,,,,,,,,,,,,364.5490235999987,365.5691451999992,362.7312787999999,362.7312787999999,362.7312787999999,362.7312787999999,new_stationery_43.png,115,1.0,1.819160799999736,,,037,11,2025-01-16_16h34.20.782,Surprise recog test,2023.1.3,59.94801308346879,
115,0,115,0,,,,,,,,,,,,,,,,,,,,,,,,,,,,,,,,,,366.7338547999989,367.7458506999992,365.5691451999992,365.5691451999992,365.5691451999992,365.5691451999992,new_sceneIn_46.png,116,5.0,1.1666308000003482,,,037,11,2025-01-16_16h34.20.782,Surprise recog test,2023.1.3,59.94801308346879,
116,0,116,0,,,,,,,,,,,,,,,,,,,,,,,,,,,,,,,,,,368.7350762999995,369.753421899999,367.7458506999992,367.7458506999992,367.7458506999992,367.7458506999992,old_sceneOut_8.png,117,5.0,0.9889208000004146,,,037,11,2025-01-16_16h34.20.782,Surprise recog test,2023.1.3,59.94801308346879,
117,0,117,0,,,,,,,,,,,,,,,,,,,,,,,,,,,,,,,,,,370.40912729999945,371.4277414999997,369.753421899999,369.753421899999,369.753421899999,369.753421899999,new_stationery_19.png,118,5.0,0.6574949999994715,,,037,11,2025-01-16_16h34.20.782,Surprise recog test,2023.1.3,59.94801308346879,
118,0,118,0,,,,,,,,,,,,,,,,,,,,,,,,,,,,,,,,,,373.4559077999984,374.47674539999934,371.4277414999997,371.4277414999997,371.4277414999997,371.4277414999997,new_stationery_23.png,119,1.0,2.017674700000498,,,037,11,2025-01-16_16h34.20.782,Surprise recog test,2023.1.3,59.94801308346879,
119,0,119,0,,,,,,,,,,,,,,,,,,,,,,,,,,,,,,,,,,375.5206387999988,376.5455775999999,374.47674539999934,374.47674539999934,374.47674539999934,374.47674539999934,new_sceneIn_17.png,120,5.0,1.0467685999992682,,,037,11,2025-01-16_16h34.20.782,Surprise recog test,2023.1.3,59.94801308346879,
120,0,120,0,,,,,,,,,,,,,,,,,,,,,,,,,,,,,,,,,,377.2450807999994,,376.5455775999999,376.5455775999999,376.5455775999999,376.5455775999999,old_sceneOut_22.png,121,5.0,0.7015983000001142,,,037,11,2025-01-16_16h34.20.782,Surprise recog test,2023.1.3,59.94801308346879,
121,0,121,0,,,,,,,,,,,,,,,,,,,,,,,,,,,,,,,,,,379.60973869999907,380.626904499999,378.2780490999994,378.2780490999994,378.2780490999994,378.2780490999994,new_stationery_13.png,122,5.0,1.3347004000006564,,,037,11,2025-01-16_16h34.20.782,Surprise recog test,2023.1.3,59.94801308346879,
122,0,122,0,,,,,,,,,,,,,,,,,,,,,,,,,,,,,,,,,,381.319426,382.3369251999993,380.626904499999,380.626904499999,380.626904499999,380.626904499999,new_sceneIn_44.png,123,5.0,0.6954908999996405,,,037,11,2025-01-16_16h34.20.782,Surprise recog test,2023.1.3,59.94801308346879,
123,0,123,0,,,,,,,,,,,,,,,,,,,,,,,,,,,,,,,,,,383.2502939999995,,382.3369251999993,382.3369251999993,382.3369251999993,382.3369251999993,old_sceneIn_18.png,124,5.0,0.905832599999485,,,037,11,2025-01-16_16h34.20.782,Surprise recog test,2023.1.3,59.94801308346879,
124,0,124,0,,,,,,,,,,,,,,,,,,,,,,,,,,,,,,,,,,384.9006355999991,,384.2873313,384.2873313,384.2873313,384.2873313,new_sceneIn_42.png,125,5.0,0.6159310000002733,,,037,11,2025-01-16_16h34.20.782,Surprise recog test,2023.1.3,59.94801308346879,
125,0,125,0,,,,,,,,,,,,,,,,,,,,,,,,,,,,,,,,,,386.9880266,388.0141726999991,385.9228285999998,385.9228285999998,385.9228285999998,385.9228285999998,old_sceneOut_32.png,126,5.0,1.0603799000000436,,,037,11,2025-01-16_16h34.20.782,Surprise recog test,2023.1.3,59.94801308346879,
126,0,126,0,,,,,,,,,,,,,,,,,,,,,,,,,,,,,,,,,,388.73506199999974,389.7646001999983,388.0141726999991,388.0141726999991,388.0141726999991,388.0141726999991,new_stationery_37.png,127,5.0,0.7168468999989273,,,037,11,2025-01-16_16h34.20.782,Surprise recog test,2023.1.3,59.94801308346879,
127,0,127,0,,,,,,,,,,,,,,,,,,,,,,,,,,,,,,,,,,391.8057699000001,392.8220662999993,389.7646001999983,389.7646001999983,389.7646001999983,389.7646001999983,old_stationery_29.png,128,1.0,2.0451049999992392,,,037,11,2025-01-16_16h34.20.782,Surprise recog test,2023.1.3,59.94801308346879,
128,0,128,0,,,,,,,,,,,,,,,,,,,,,,,,,,,,,,,,,,393.9300893999989,394.96201589999873,392.8220662999993,392.8220662999993,392.8220662999993,392.8220662999993,old_fruit_47.png,129,1.0,1.1111157999985153,,,037,11,2025-01-16_16h34.20.782,Surprise recog test,2023.1.3,59.94801308346879,
129,0,129,0,,,,,,,,,,,,,,,,,,,,,,,,,,,,,,,,,,396.3152640999997,397.34418839999853,394.96201589999873,394.96201589999873,394.96201589999873,394.96201589999873,new_sceneOut_7.png,130,5.0,1.3560550999991392,,,037,11,2025-01-16_16h34.20.782,Surprise recog test,2023.1.3,59.94801308346879,
130,0,130,0,,,,,,,,,,,,,,,,,,,,,,,,,,,,,,,,,,398.02809199999865,,397.34418839999853,397.34418839999853,397.34418839999853,397.34418839999853,old_sceneIn_33.png,131,5.0,0.6855487000011635,,,037,11,2025-01-16_16h34.20.782,Surprise recog test,2023.1.3,59.94801308346879,
131,0,131,0,,,,,,,,,,,,,,,,,,,,,,,,,,,,,,,,,,399.77413119999983,400.7970215999994,399.0630560999998,399.0630560999998,399.0630560999998,399.0630560999998,old_sceneOut_4.png,132,5.0,0.7107614000015019,,,037,11,2025-01-16_16h34.20.782,Surprise recog test,2023.1.3,59.94801308346879,
132,0,132,0,,,,,,,,,,,,,,,,,,,,,,,,,,,,,,,,,,402.41733789999853,403.4493513999987,400.7970215999994,400.7970215999994,400.7970215999994,400.7970215999994,old_fruit_41.png,133,5.0,1.6233443000000989,,,037,11,2025-01-16_16h34.20.782,Surprise recog test,2023.1.3,59.94801308346879,
133,0,133,0,,,,,,,,,,,,,,,,,,,,,,,,,,,,,,,,,,405.0268793999985,406.05338029999984,403.4493513999987,403.4493513999987,403.4493513999987,403.4493513999987,new_fruit_17.png,134,1.0,1.5779867000001104,,,037,11,2025-01-16_16h34.20.782,Surprise recog test,2023.1.3,59.94801308346879,
134,0,134,0,,,,,,,,,,,,,,,,,,,,,,,,,,,,,,,,,,407.4885865999986,408.5077877999993,406.05338029999984,406.05338029999984,406.05338029999984,406.05338029999984,old_stationery_34.png,135,2.0,1.4366406999997707,,,037,11,2025-01-16_16h34.20.782,Surprise recog test,2023.1.3,59.94801308346879,
135,0,135,0,,,,,,,,,,,,,,,,,,,,,,,,,,,,,,,,,,410.1361294999988,411.1461057999986,408.5077877999993,408.5077877999993,408.5077877999993,408.5077877999993,old_sceneIn_42.png,136,5.0,1.6239047999988543,,,037,11,2025-01-16_16h34.20.782,Surprise recog test,2023.1.3,59.94801308346879,
136,0,136,0,,,,,,,,,,,,,,,,,,,,,,,,,,,,,,,,,,412.1151035999992,413.1432902999986,411.1461057999986,411.1461057999986,411.1461057999986,411.1461057999986,old_sceneIn_26.png,137,5.0,0.9638242999990325,,,037,11,2025-01-16_16h34.20.782,Surprise recog test,2023.1.3,59.94801308346879,
137,0,137,0,,,,,,,,,,,,,,,,,,,,,,,,,,,,,,,,,,414.4302244999999,415.4559973999985,413.1432902999986,413.1432902999986,413.1432902999986,413.1432902999986,old_sceneIn_44.png,138,5.0,1.2878392999991775,,,037,11,2025-01-16_16h34.20.782,Surprise recog test,2023.1.3,59.94801308346879,
138,0,138,0,,,,,,,,,,,,,,,,,,,,,,,,,,,,,,,,,,416.40116080000007,417.4145383999985,415.4559973999985,415.4559973999985,415.4559973999985,415.4559973999985,old_stationery_5.png,139,5.0,0.9460761999998795,,,037,11,2025-01-16_16h34.20.782,Surprise recog test,2023.1.3,59.94801308346879,
139,0,139,0,,,,,,,,,,,,,,,,,,,,,,,,,,,,,,,,,,418.05409839999993,419.07717879999836,417.4145383999985,417.4145383999985,417.4145383999985,417.4145383999985,new_sceneOut_25.png,140,5.0,0.635410500000944,,,037,11,2025-01-16_16h34.20.782,Surprise recog test,2023.1.3,59.94801308346879,
140,0,140,0,,,,,,,,,,,,,,,,,,,,,,,,,,,,,,,,,,419.78465699999833,420.8111661999992,419.07717879999836,419.07717879999836,419.07717879999836,419.07717879999836,new_sceneOut_46.png,141,5.0,0.7099515000008978,,,037,11,2025-01-16_16h34.20.782,Surprise recog test,2023.1.3,59.94801308346879,
141,0,141,0,,,,,,,,,,,,,,,,,,,,,,,,,,,,,,,,,,421.4584737999994,422.4817005999994,420.8111661999992,420.8111661999992,420.8111661999992,420.8111661999992,new_sceneIn_22.png,142,5.0,0.6488654999993742,,,037,11,2025-01-16_16h34.20.782,Surprise recog test,2023.1.3,59.94801308346879,
142,0,142,0,,,,,,,,,,,,,,,,,,,,,,,,,,,,,,,,,,424.8622230000001,425.87351449999915,422.4817005999994,422.4817005999994,422.4817005999994,422.4817005999994,old_stationery_17.png,143,5.0,2.3801982999993925,,,037,11,2025-01-16_16h34.20.782,Surprise recog test,2023.1.3,59.94801308346879,
143,0,143,0,,,,,,,,,,,,,,,,,,,,,,,,,,,,,,,,,,427.7779434999993,428.7903205999992,425.87351449999915,425.87351449999915,425.87351449999915,425.87351449999915,old_sceneOut_34.png,144,1.0,1.9000151000000187,,,037,11,2025-01-16_16h34.20.782,Surprise recog test,2023.1.3,59.94801308346879,
144,0,144,0,,,,,,,,,,,,,,,,,,,,,,,,,,,,,,,,,,431.21312020000005,432.2414934999997,428.7903205999992,428.7903205999992,428.7903205999992,428.7903205999992,new_sceneIn_27.png,145,5.0,2.4186011999991024,,,037,11,2025-01-16_16h34.20.782,Surprise recog test,2023.1.3,59.94801308346879,
145,0,145,0,,,,,,,,,,,,,,,,,,,,,,,,,,,,,,,,,,433.6803233999999,434.7109413999988,432.2414934999997,432.2414934999997,432.2414934999997,432.2414934999997,new_sceneOut_41.png,146,1.0,1.4414827000000514,,,037,11,2025-01-16_16h34.20.782,Surprise recog test,2023.1.3,59.94801308346879,
146,0,146,0,,,,,,,,,,,,,,,,,,,,,,,,,,,,,,,,,,435.4632939999992,436.4935311999998,434.7109413999988,434.7109413999988,434.7109413999988,434.7109413999988,old_fruit_28.png,147,1.0,0.7506178000003274,,,037,11,2025-01-16_16h34.20.782,Surprise recog test,2023.1.3,59.94801308346879,
147,0,147,0,,,,,,,,,,,,,,,,,,,,,,,,,,,,,,,,,,438.502449399999,439.5220386000001,436.4935311999998,436.4935311999998,436.4935311999998,436.4935311999998,old_sceneOut_18.png,148,5.0,2.011016700000255,,,037,11,2025-01-16_16h34.20.782,Surprise recog test,2023.1.3,59.94801308346879,
148,0,148,0,,,,,,,,,,,,,,,,,,,,,,,,,,,,,,,,,,442.9658092999998,,439.5220386000001,439.5220386000001,439.5220386000001,439.5220386000001,new_fruit_23.png,149,1.0,3.44260740000027,,,037,11,2025-01-16_16h34.20.782,Surprise recog test,2023.1.3,59.94801308346879,
149,0,149,0,,,,,,,,,,,,,,,,,,,,,,,,,,,,,,,,,,445.3487628999992,446.37043209999865,443.99847489999956,443.99847489999956,443.99847489999956,443.99847489999956,new_sceneIn_24.png,150,5.0,1.349389599999995,,,037,11,2025-01-16_16h34.20.782,Surprise recog test,2023.1.3,59.94801308346879,
150,0,150,0,,,,,,,,,,,,,,,,,,,,,,,,,,,,,,,,,,447.58416659999966,448.6044871999984,446.37043209999865,446.37043209999865,446.37043209999865,446.37043209999865,new_stationery_12.png,151,1.0,1.209374600000956,,,037,11,2025-01-16_16h34.20.782,Surprise recog test,2023.1.3,59.94801308346879,
151,0,151,0,,,,,,,,,,,,,,,,,,,,,,,,,,,,,,,,,,449.69884009999987,450.71518809999907,448.6044871999984,448.6044871999984,448.6044871999984,448.6044871999984,new_sceneIn_38.png,152,5.0,1.0960076999999728,,,037,11,2025-01-16_16h34.20.782,Surprise recog test,2023.1.3,59.94801308346879,
152,0,152,0,,,,,,,,,,,,,,,,,,,,,,,,,,,,,,,,,,451.3394787999987,,450.71518809999907,450.71518809999907,450.71518809999907,450.71518809999907,new_sceneIn_49.png,153,5.0,0.6225107000009302,,,037,11,2025-01-16_16h34.20.782,Surprise recog test,2023.1.3,59.94801308346879,
153,0,153,0,,,,,,,,,,,,,,,,,,,,,,,,,,,,,,,,,,452.8892316999991,453.9021572999991,452.36199099999976,452.36199099999976,452.36199099999976,452.36199099999976,old_sceneIn_41.png,154,5.0,0.5209818999992422,,,037,11,2025-01-16_16h34.20.782,Surprise recog test,2023.1.3,59.94801308346879,
154,0,154,0,,,,,,,,,,,,,,,,,,,,,,,,,,,,,,,,,,455.53716949999944,456.55047039999954,453.9021572999991,453.9021572999991,453.9021572999991,453.9021572999991,old_stationery_31.png,155,1.0,1.6330665000004956,,,037,11,2025-01-16_16h34.20.782,Surprise recog test,2023.1.3,59.94801308346879,
155,0,155,0,,,,,,,,,,,,,,,,,,,,,,,,,,,,,,,,,,458.19275449999986,459.20885389999967,456.55047039999954,456.55047039999954,456.55047039999954,456.55047039999954,old_sceneOut_5.png,156,2.0,1.6318826000006084,,,037,11,2025-01-16_16h34.20.782,Surprise recog test,2023.1.3,59.94801308346879,
156,0,156,0,,,,,,,,,,,,,,,,,,,,,,,,,,,,,,,,,,460.5945049999991,461.60320729999876,459.20885389999967,459.20885389999967,459.20885389999967,459.20885389999967,new_sceneOut_24.png,157,3.0,1.3865834000007453,,,037,11,2025-01-16_16h34.20.782,Surprise recog test,2023.1.3,59.94801308346879,
157,0,157,0,,,,,,,,,,,,,,,,,,,,,,,,,,,,,,,,,,463.0063690999996,464.0221634999998,461.60320729999876,461.60320729999876,461.60320729999876,461.60320729999876,new_stationery_48.png,158,5.0,1.399132799999279,,,037,11,2025-01-16_16h34.20.782,Surprise recog test,2023.1.3,59.94801308346879,
158,0,158,0,,,,,,,,,,,,,,,,,,,,,,,,,,,,,,,,,,465.1141437999995,466.1276827999991,464.0221634999998,464.0221634999998,464.0221634999998,464.0221634999998,new_stationery_14.png,159,5.0,1.0894998999992822,,,037,11,2025-01-16_16h34.20.782,Surprise recog test,2023.1.3,59.94801308346879,
159,0,159,0,,,,,,,,,,,,,,,,,,,,,,,,,,,,,,,,,,467.76738320000004,468.7898161999983,466.1276827999991,466.1276827999991,466.1276827999991,466.1276827999991,new_fruit_6.png,160,5.0,1.6351668999996036,,,037,11,2025-01-16_16h34.20.782,Surprise recog test,2023.1.3,59.94801308346879,
160,0,160,0,,,,,,,,,,,,,,,,,,,,,,,,,,,,,,,,,,470.69979819999935,471.72407829999975,468.7898161999983,468.7898161999983,468.7898161999983,468.7898161999983,old_stationery_46.png,161,1.0,1.9124386000003142,,,037,11,2025-01-16_16h34.20.782,Surprise recog test,2023.1.3,59.94801308346879,
161,0,161,0,,,,,,,,,,,,,,,,,,,,,,,,,,,,,,,,,,473.08046899999863,474.1062230999996,471.72407829999975,471.72407829999975,471.72407829999975,471.72407829999975,old_sceneOut_7.png,162,5.0,1.356225199999244,,,037,11,2025-01-16_16h34.20.782,Surprise recog test,2023.1.3,59.94801308346879,
162,0,162,0,,,,,,,,,,,,,,,,,,,,,,,,,,,,,,,,,,476.6343721999983,477.6511928,474.1062230999996,474.1062230999996,474.1062230999996,474.1062230999996,old_sceneOut_50.png,163,3.0,2.5304382000012993,,,037,11,2025-01-16_16h34.20.782,Surprise recog test,2023.1.3,59.94801308346879,
163,0,163,0,,,,,,,,,,,,,,,,,,,,,,,,,,,,,,,,,,479.0310172999998,,477.6511928,477.6511928,477.6511928,477.6511928,old_stationery_40.png,164,1.0,1.3745918999993592,,,037,11,2025-01-16_16h34.20.782,Surprise recog test,2023.1.3,59.94801308346879,
164,0,164,0,,,,,,,,,,,,,,,,,,,,,,,,,,,,,,,,,,481.6565354999984,482.6820631999999,480.04813939999985,480.04813939999985,480.04813939999985,480.04813939999985,new_stationery_8.png,165,5.0,1.602911399999357,,,037,11,2025-01-16_16h34.20.782,Surprise recog test,2023.1.3,59.94801308346879,
165,0,165,0,,,,,,,,,,,,,,,,,,,,,,,,,,,,,,,,,,483.76997029999984,484.7892308999999,482.6820631999999,482.6820631999999,482.6820631999999,482.6820631999999,old_sceneIn_7.png,166,5.0,1.0900598999996873,,,037,11,2025-01-16_16h34.20.782,Surprise recog test,2023.1.3,59.94801308346879,
166,0,166,0,,,,,,,,,,,,,,,,,,,,,,,,,,,,,,,,,,485.6472584999992,486.6567383999991,484.7892308999999,484.7892308999999,484.7892308999999,484.7892308999999,old_sceneIn_28.png,167,5.0,0.8537694000006013,,,037,11,2025-01-16_16h34.20.782,Surprise recog test,2023.1.3,59.94801308346879,
167,0,167,0,,,,,,,,,,,,,,,,,,,,,,,,,,,,,,,,,,487.9478307999998,488.9703362,486.6567383999991,486.6567383999991,486.6567383999991,486.6567383999991,old_fruit_34.png,168,5.0,1.28407100000004,,,037,11,2025-01-16_16h34.20.782,Surprise recog test,2023.1.3,59.94801308346879,
168,0,168,0,,,,,,,,,,,,,,,,,,,,,,,,,,,,,,,,,,489.99112609999975,491.02335519999906,488.9703362,488.9703362,488.9703362,488.9703362,old_sceneIn_27.png,169,5.0,1.0223454999995738,,,037,11,2025-01-16_16h34.20.782,Surprise recog test,2023.1.3,59.94801308346879,
169,0,169,0,,,,,,,,,,,,,,,,,,,,,,,,,,,,,,,,,,491.6995872999996,492.717020099999,491.02335519999906,491.02335519999906,491.02335519999906,491.02335519999906,new_sceneIn_15.png,170,5.0,0.6782430999992357,,,037,11,2025-01-16_16h34.20.782,Surprise recog test,2023.1.3,59.94801308346879,
170,0,170,0,,,,,,,,,,,,,,,,,,,,,,,,,,,,,,,,,,494.33253739999964,495.361069999999,492.717020099999,492.717020099999,492.717020099999,492.717020099999,new_stationery_9.png,171,1.0,1.6095421999998507,,,037,11,2025-01-16_16h34.20.782,Surprise recog test,2023.1.3,59.94801308346879,
171,0,171,0,,,,,,,,,,,,,,,,,,,,,,,,,,,,,,,,,,496.8232543999984,497.8462787999997,495.361069999999,495.361069999999,495.361069999999,495.361069999999,old_sceneOut_25.png,172,2.0,1.4660679000007804,,,037,11,2025-01-16_16h34.20.782,Surprise recog test,2023.1.3,59.94801308346879,
172,0,172,0,,,,,,,,,,,,,,,,,,,,,,,,,,,,,,,,,,498.82007949999934,499.8310524999997,497.8462787999997,497.8462787999997,497.8462787999997,497.8462787999997,new_sceneIn_21.png,173,5.0,0.9761756000007153,,,037,11,2025-01-16_16h34.20.782,Surprise recog test,2023.1.3,59.94801308346879,
173,0,173,0,,,,,,,,,,,,,,,,,,,,,,,,,,,,,,,,,,500.4779776999985,501.49974479999946,499.8310524999997,499.8310524999997,499.8310524999997,499.8310524999997,new_sceneIn_3.png,174,5.0,0.6399560999998357,,,037,11,2025-01-16_16h34.20.782,Surprise recog test,2023.1.3,59.94801308346879,
174,0,174,0,,,,,,,,,,,,,,,,,,,,,,,,,,,,,,,,,,502.43004929999915,503.4496029999991,501.49974479999946,501.49974479999946,501.49974479999946,501.49974479999946,new_sceneOut_42.png,175,5.0,0.931825799998478,,,037,11,2025-01-16_16h34.20.782,Surprise recog test,2023.1.3,59.94801308346879,
175,0,175,0,,,,,,,,,,,,,,,,,,,,,,,,,,,,,,,,,,504.1519626999998,,503.4496029999991,503.4496029999991,503.4496029999991,503.4496029999991,old_sceneOut_10.png,176,5.0,0.7041745999995328,,,037,11,2025-01-16_16h34.20.782,Surprise recog test,2023.1.3,59.94801308346879,
176,0,176,0,,,,,,,,,,,,,,,,,,,,,,,,,,,,,,,,,,506.12899599999946,507.15379199999916,505.17227589999857,505.17227589999857,505.17227589999857,505.17227589999857,new_sceneIn_37.png,177,5.0,0.9523673999992752,,,037,11,2025-01-16_16h34.20.782,Surprise recog test,2023.1.3,59.94801308346879,
177,0,177,0,,,,,,,,,,,,,,,,,,,,,,,,,,,,,,,,,,509.6713471999992,,507.15379199999916,507.15379199999916,507.15379199999916,507.15379199999916,old_stationery_48.png,178,5.0,2.5205425999993167,,,037,11,2025-01-16_16h34.20.782,Surprise recog test,2023.1.3,59.94801308346879,
178,0,178,0,,,,,,,,,,,,,,,,,,,,,,,,,,,,,,,,,,512.3044222999997,513.3235308999992,510.6927182999989,510.6927182999989,510.6927182999989,510.6927182999989,old_stationery_49.png,179,1.0,1.605015099999946,,,037,11,2025-01-16_16h34.20.782,Surprise recog test,2023.1.3,59.94801308346879,
179,0,179,0,,,,,,,,,,,,,,,,,,,,,,,,,,,,,,,,,,516.1836718999984,517.1971853999985,513.3235308999992,513.3235308999992,513.3235308999992,513.3235308999992,new_sceneOut_20.png,180,5.0,2.861133399999744,,,037,11,2025-01-16_16h34.20.782,Surprise recog test,2023.1.3,59.94801308346879,
180,0,180,0,,,,,,,,,,,,,,,,,,,,,,,,,,,,,,,,,,519.0937037999993,520.1061578999997,517.1971853999985,517.1971853999985,517.1971853999985,517.1971853999985,old_fruit_30.png,181,1.0,1.8928906000001007,,,037,11,2025-01-16_16h34.20.782,Surprise recog test,2023.1.3,59.94801308346879,
181,0,181,0,,,,,,,,,,,,,,,,,,,,,,,,,,,,,,,,,,521.6956180999987,522.7047530999989,520.1061578999997,520.1061578999997,520.1061578999997,520.1061578999997,new_fruit_29.png,182,1.0,1.5880701999994926,,,037,11,2025-01-16_16h34.20.782,Surprise recog test,2023.1.3,59.94801308346879,
182,0,182,0,,,,,,,,,,,,,,,,,,,,,,,,,,,,,,,,,,524.2854813999984,,522.7047530999989,522.7047530999989,522.7047530999989,522.7047530999989,old_sceneIn_10.png,183,5.0,1.5761548999998922,,,037,11,2025-01-16_16h34.20.782,Surprise recog test,2023.1.3,59.94801308346879,
183,0,183,0,,,,,,,,,,,,,,,,,,,,,,,,,,,,,,,,,,528.3558258999983,529.3833032999992,525.304897,525.304897,525.304897,525.304897,new_fruit_44.png,184,5.0,3.0440894000003027,,,037,11,2025-01-16_16h34.20.782,Surprise recog test,2023.1.3,59.94801308346879,
184,0,184,0,,,,,,,,,,,,,,,,,,,,,,,,,,,,,,,,,,531.6321097,532.6495429999995,529.3833032999992,529.3833032999992,529.3833032999992,529.3833032999992,old_stationery_44.png,185,1.0,2.2510593999995763,,,037,11,2025-01-16_16h34.20.782,Surprise recog test,2023.1.3,59.94801308346879,
185,0,185,0,,,,,,,,,,,,,,,,,,,,,,,,,,,,,,,,,,534.6266308999984,,532.6495429999995,532.6495429999995,532.6495429999995,532.6495429999995,new_sceneOut_21.png,186,5.0,1.978019600001062,,,037,11,2025-01-16_16h34.20.782,Surprise recog test,2023.1.3,59.94801308346879,
186,0,186,0,,,,,,,,,,,,,,,,,,,,,,,,,,,,,,,,,,536.3893738999996,537.4158470999992,535.6438597999986,535.6438597999986,535.6438597999986,535.6438597999986,old_sceneIn_29.png,187,5.0,0.7392951999991055,,,037,11,2025-01-16_16h34.20.782,Surprise recog test,2023.1.3,59.94801308346879,
187,0,187,0,,,,,,,,,,,,,,,,,,,,,,,,,,,,,,,,,,538.0122851999986,,537.4158470999992,537.4158470999992,537.4158470999992,537.4158470999992,old_sceneIn_2.png,188,5.0,0.6007144000013795,,,037,11,2025-01-16_16h34.20.782,Surprise recog test,2023.1.3,59.94801308346879,
188,0,188,0,,,,,,,,,,,,,,,,,,,,,,,,,,,,,,,,,,539.8203231999996,540.8481902999993,539.0417041000001,539.0417041000001,539.0417041000001,539.0417041000001,new_sceneOut_11.png,189,5.0,0.7784102999994502,,,037,11,2025-01-16_16h34.20.782,Surprise recog test,2023.1.3,59.94801308346879,
189,0,189,0,,,,,,,,,,,,,,,,,,,,,,,,,,,,,,,,,,542.3562855,543.3840272999987,540.8481902999993,540.8481902999993,540.8481902999993,540.8481902999993,new_fruit_28.png,190,5.0,1.5084955000002083,,,037,11,2025-01-16_16h34.20.782,Surprise recog test,2023.1.3,59.94801308346879,
190,0,190,0,,,,,,,,,,,,,,,,,,,,,,,,,,,,,,,,,,544.6029525999984,545.6265691999997,543.3840272999987,543.3840272999987,543.3840272999987,543.3840272999987,new_sceneIn_34.png,191,5.0,1.2212054999999964,,,037,11,2025-01-16_16h34.20.782,Surprise recog test,2023.1.3,59.94801308346879,
191,0,191,0,,,,,,,,,,,,,,,,,,,,,,,,,,,,,,,,,,547.2667446999985,548.2750371999991,545.6265691999997,545.6265691999997,545.6265691999997,545.6265691999997,old_fruit_5.png,192,1.0,1.6392873999993753,,,037,11,2025-01-16_16h34.20.782,Surprise recog test,2023.1.3,59.94801308346879,
192,0,192,0,,,,,,,,,,,,,,,,,,,,,,,,,,,,,,,,,,550.0023969999984,551.008963799999,548.2750371999991,548.2750371999991,548.2750371999991,548.2750371999991,old_stationery_23.png,193,5.0,1.718593100000362,,,037,11,2025-01-16_16h34.20.782,Surprise recog test,2023.1.3,59.94801308346879,
193,0,193,0,,,,,,,,,,,,,,,,,,,,,,,,,,,,,,,,,,552.5150550999988,553.5294109999995,551.008963799999,551.008963799999,551.008963799999,551.008963799999,old_fruit_40.png,194,1.0,1.5037116000003152,,,037,11,2025-01-16_16h34.20.782,Surprise recog test,2023.1.3,59.94801308346879,
194,0,194,0,,,,,,,,,,,,,,,,,,,,,,,,,,,,,,,,,,554.3508425,555.3752979000001,553.5294109999995,553.5294109999995,553.5294109999995,553.5294109999995,old_fruit_19.png,195,1.0,0.8150971000013669,,,037,11,2025-01-16_16h34.20.782,Surprise recog test,2023.1.3,59.94801308346879,
195,0,195,0,,,,,,,,,,,,,,,,,,,,,,,,,,,,,,,,,,556.5912487999994,557.6158711999997,555.3752979000001,555.3752979000001,555.3752979000001,555.3752979000001,new_fruit_38.png,196,1.0,1.21110630000112,,,037,11,2025-01-16_16h34.20.782,Surprise recog test,2023.1.3,59.94801308346879,
196,0,196,0,,,,,,,,,,,,,,,,,,,,,,,,,,,,,,,,,,558.3108710999986,559.3179285999995,557.6158711999997,557.6158711999997,557.6158711999997,557.6158711999997,old_sceneOut_35.png,197,1.0,0.6978734000003897,,,037,11,2025-01-16_16h34.20.782,Surprise recog test,2023.1.3,59.94801308346879,
197,0,197,0,,,,,,,,,,,,,,,,,,,,,,,,,,,,,,,,,,560.7348659999989,561.7534720999993,559.3179285999995,559.3179285999995,559.3179285999995,559.3179285999995,new_sceneIn_8.png,198,5.0,1.4123637000011513,,,037,11,2025-01-16_16h34.20.782,Surprise recog test,2023.1.3,59.94801308346879,
198,0,198,0,,,,,,,,,,,,,,,,,,,,,,,,,,,,,,,,,,563.4035989999993,564.4404627999993,561.7534720999993,561.7534720999993,561.7534720999993,561.7534720999993,old_fruit_45.png,199,1.0,1.644123000000036,,,037,11,2025-01-16_16h34.20.782,Surprise recog test,2023.1.3,59.94801308346879,
199,0,199,0,,,,,,,,,,,,,,,,,,,,,,,,,,,,,,,,,,566.4806243999992,567.5028201999994,564.4404627999993,564.4404627999993,564.4404627999993,564.4404627999993,new_sceneOut_34.png,200,5.0,2.042583600001308,,,037,11,2025-01-16_16h34.20.782,Surprise recog test,2023.1.3,59.94801308346879,
200,0,200,0,,,,,,,,,,,,,,,,,,,,,,,,,,,,,,,,,,568.7815531999986,569.7928566999999,567.5028201999994,567.5028201999994,567.5028201999994,567.5028201999994,old_sceneIn_21.png,201,5.0,1.2803289000003133,,,037,11,2025-01-16_16h34.20.782,Surprise recog test,2023.1.3,59.94801308346879,
201,0,201,0,,,,,,,,,,,,,,,,,,,,,,,,,,,,,,,,,,570.6722038999997,,569.7928566999999,569.7928566999999,569.7928566999999,569.7928566999999,old_stationery_15.png,202,5.0,0.8753661999999167,,,037,11,2025-01-16_16h34.20.782,Surprise recog test,2023.1.3,59.94801308346879,
202,0,202,0,,,,,,,,,,,,,,,,,,,,,,,,,,,,,,,,,,573.3759097999991,,571.7073826999986,571.7073826999986,571.7073826999986,571.7073826999986,old_sceneIn_17.png,203,5.0,1.670047199999317,,,037,11,2025-01-16_16h34.20.782,Surprise recog test,2023.1.3,59.94801308346879,
203,0,203,0,,,,,,,,,,,,,,,,,,,,,,,,,,,,,,,,,,576.8547230999993,577.878559499999,574.4083403999994,574.4083403999994,574.4083403999994,574.4083403999994,old_fruit_18.png,204,1.0,2.4486868000003597,,,037,11,2025-01-16_16h34.20.782,Surprise recog test,2023.1.3,59.94801308346879,
204,0,204,0,,,,,,,,,,,,,,,,,,,,,,,,,,,,,,,,,,580.2957841999996,581.3022941999989,577.878559499999,577.878559499999,577.878559499999,577.878559499999,new_sceneIn_31.png,205,5.0,2.4191854000000603,,,037,11,2025-01-16_16h34.20.782,Surprise recog test,2023.1.3,59.94801308346879,
205,0,205,0,,,,,,,,,,,,,,,,,,,,,,,,,,,,,,,,,,583.3718958999998,584.3886981999985,581.3022941999989,581.3022941999989,581.3022941999989,581.3022941999989,new_fruit_32.png,206,5.0,2.0656658000007155,,,037,11,2025-01-16_16h34.20.782,Surprise recog test,2023.1.3,59.94801308346879,
206,0,206,0,,,,,,,,,,,,,,,,,,,,,,,,,,,,,,,,,,585.5354560999986,,584.3886981999985,584.3886981999985,584.3886981999985,584.3886981999985,new_sceneOut_5.png,207,5.0,1.1420744999995804,,,037,11,2025-01-16_16h34.20.782,Surprise recog test,2023.1.3,59.94801308346879,
207,0,207,0,,,,,,,,,,,,,,,,,,,,,,,,,,,,,,,,,,588.3857650999998,589.3925252999998,586.5673700999996,586.5673700999996,586.5673700999996,586.5673700999996,old_fruit_6.png,208,5.0,1.8199620000013965,,,037,11,2025-01-16_16h34.20.782,Surprise recog test,2023.1.3,59.94801308346879,
208,0,208,0,,,,,,,,,,,,,,,,,,,,,,,,,,,,,,,,,,592.7073325999991,,589.3925252999998,589.3925252999998,589.3925252999998,589.3925252999998,old_sceneIn_50.png,209,1.0,3.306997699999556,,,037,11,2025-01-16_16h34.20.782,Surprise recog test,2023.1.3,59.94801308346879,
209,0,209,0,,,,,,,,,,,,,,,,,,,,,,,,,,,,,,,,,,596.3172599999998,597.3335795999992,593.7288651999988,593.7288651999988,593.7288651999988,593.7288651999988,new_sceneOut_4.png,210,5.0,2.5831582999999227,,,037,11,2025-01-16_16h34.20.782,Surprise recog test,2023.1.3,59.94801308346879,
210,0,210,0,,,,,,,,,,,,,,,,,,,,,,,,,,,,,,,,,,600.2807256999986,,597.3335795999992,597.3335795999992,597.3335795999992,597.3335795999992,old_sceneIn_20.png,211,5.0,2.9404684000001,,,037,11,2025-01-16_16h34.20.782,Surprise recog test,2023.1.3,59.94801308346879,
211,0,211,0,,,,,,,,,,,,,,,,,,,,,,,,,,,,,,,,,,603.4148345999984,604.4217288999989,601.3072261999987,601.3072261999987,601.3072261999987,601.3072261999987,old_fruit_48.png,212,1.0,2.107734999999593,,,037,11,2025-01-16_16h34.20.782,Surprise recog test,2023.1.3,59.94801308346879,
212,0,212,0,,,,,,,,,,,,,,,,,,,,,,,,,,,,,,,,,,607.5909382999998,608.6209946999988,604.4217288999989,604.4217288999989,604.4217288999989,604.4217288999989,old_sceneOut_47.png,213,5.0,3.165072699999655,,,037,11,2025-01-16_16h34.20.782,Surprise recog test,2023.1.3,59.94801308346879,
213,0,213,0,,,,,,,,,,,,,,,,,,,,,,,,,,,,,,,,,,609.4351487999993,610.4529405999983,608.6209946999988,608.6209946999988,608.6209946999988,608.6209946999988,new_sceneOut_22.png,214,5.0,0.8155571000006603,,,037,11,2025-01-16_16h34.20.782,Surprise recog test,2023.1.3,59.94801308346879,
214,0,214,0,,,,,,,,,,,,,,,,,,,,,,,,,,,,,,,,,,612.3574761,,610.4529405999983,610.4529405999983,610.4529405999983,610.4529405999983,new_fruit_24.png,215,5.0,1.9075200999996014,,,037,11,2025-01-16_16h34.20.782,Surprise recog test,2023.1.3,59.94801308346879,
215,0,215,0,,,,,,,,,,,,,,,,,,,,,,,,,,,,,,,,,,614.0548814999984,615.0791883999991,613.3788611,613.3788611,613.3788611,613.3788611,new_sceneIn_35.png,216,5.0,0.6719002999998338,,,037,11,2025-01-16_16h34.20.782,Surprise recog test,2023.1.3,59.94801308346879,
216,0,216,0,,,,,,,,,,,,,,,,,,,,,,,,,,,,,,,,,,616.3689687999995,617.3982471999989,615.0791883999991,615.0791883999991,615.0791883999991,615.0791883999991,old_sceneOut_44.png,217,5.0,1.293852799999513,,,037,11,2025-01-16_16h34.20.782,Surprise recog test,2023.1.3,59.94801308346879,
217,0,217,0,,,,,,,,,,,,,,,,,,,,,,,,,,,,,,,,,,619.6770410999998,620.6859635000001,617.3982471999989,617.3982471999989,617.3982471999989,617.3982471999989,new_stationery_6.png,218,5.0,2.275043599998753,,,037,11,2025-01-16_16h34.20.782,Surprise recog test,2023.1.3,59.94801308346879,
218,0,218,0,,,,,,,,,,,,,,,,,,,,,,,,,,,,,,,,,,622.8442998999999,623.8546365999991,620.6859635000001,620.6859635000001,620.6859635000001,620.6859635000001,old_fruit_22.png,219,1.0,2.1538759999984904,,,037,11,2025-01-16_16h34.20.782,Surprise recog test,2023.1.3,59.94801308346879,
219,0,219,0,,,,,,,,,,,,,,,,,,,,,,,,,,,,,,,,,,625.3448050999996,626.3580764999988,623.8546365999991,623.8546365999991,623.8546365999991,623.8546365999991,new_sceneIn_2.png,220,5.0,1.4831426000000647,,,037,11,2025-01-16_16h34.20.782,Surprise recog test,2023.1.3,59.94801308346879,
220,0,220,0,,,,,,,,,,,,,,,,,,,,,,,,,,,,,,,,,,628.9015899999995,629.9205228999999,626.3580764999988,626.3580764999988,626.3580764999988,626.3580764999988,new_fruit_16.png,221,5.0,2.540830599999026,,,037,11,2025-01-16_16h34.20.782,Surprise recog test,2023.1.3,59.94801308346879,
221,0,221,0,,,,,,,,,,,,,,,,,,,,,,,,,,,,,,,,,,630.9291459999986,631.9595221,629.9205228999999,629.9205228999999,629.9205228999999,629.9205228999999,old_sceneIn_6.png,222,5.0,1.0106536999992386,,,037,11,2025-01-16_16h34.20.782,Surprise recog test,2023.1.3,59.94801308346879,
222,0,222,0,,,,,,,,,,,,,,,,,,,,,,,,,,,,,,,,,,633.7092678999998,,631.9595221,631.9595221,631.9595221,631.9595221,old_stationery_4.png,223,1.0,1.7528572000010172,,,037,11,2025-01-16_16h34.20.782,Surprise recog test,2023.1.3,59.94801308346879,
223,0,223,0,,,,,,,,,,,,,,,,,,,,,,,,,,,,,,,,,,636.3132608999986,637.3443689999986,634.7285088999997,634.7285088999997,634.7285088999997,634.7285088999997,new_sceneOut_29.png,224,5.0,1.581223900000623,,,037,11,2025-01-16_16h34.20.782,Surprise recog test,2023.1.3,59.94801308346879,
224,0,224,0,,,,,,,,,,,,,,,,,,,,,,,,,,,,,,,,,,638.6094061999993,639.6357317999991,637.3443689999986,637.3443689999986,637.3443689999986,637.3443689999986,old_fruit_16.png,225,1.0,1.2637049999993906,,,037,11,2025-01-16_16h34.20.782,Surprise recog test,2023.1.3,59.94801308346879,
225,0,225,0,,,,,,,,,,,,,,,,,,,,,,,,,,,,,,,,,,640.9655952999983,,639.6357317999991,639.6357317999991,639.6357317999991,639.6357317999991,old_sceneOut_3.png,226,5.0,1.3353020000013203,,,037,11,2025-01-16_16h34.20.782,Surprise recog test,2023.1.3,59.94801308346879,
226,0,226,0,,,,,,,,,,,,,,,,,,,,,,,,,,,,,,,,,,642.7399397999998,643.7662209999999,641.9859151,641.9859151,641.9859151,641.9859151,old_stationery_10.png,227,5.0,0.7490700000016659,,,037,11,2025-01-16_16h34.20.782,Surprise recog test,2023.1.3,59.94801308346879,
227,0,227,0,,,,,,,,,,,,,,,,,,,,,,,,,,,,,,,,,,644.4643974999999,645.4828100999985,643.7662209999999,643.7662209999999,643.7662209999999,643.7662209999999,new_sceneIn_20.png,228,5.0,0.6931294000005437,,,037,11,2025-01-16_16h34.20.782,Surprise recog test,2023.1.3,59.94801308346879,
228,0,228,0,,,,,,,,,,,,,,,,,,,,,,,,,,,,,,,,,,646.8244353999999,647.8536324999986,645.4828100999985,645.4828100999985,645.4828100999985,645.4828100999985,old_fruit_44.png,229,1.0,1.3426657999989402,,,037,11,2025-01-16_16h34.20.782,Surprise recog test,2023.1.3,59.94801308346879,
229,0,229,0,,,,,,,,,,,,,,,,,,,,,,,,,,,,,,,,,,649.2253177999992,650.2559816999983,647.8536324999986,647.8536324999986,647.8536324999986,647.8536324999986,new_sceneIn_45.png,230,5.0,1.3718551999991178,,,037,11,2025-01-16_16h34.20.782,Surprise recog test,2023.1.3,59.94801308346879,
230,0,230,0,,,,,,,,,,,,,,,,,,,,,,,,,,,,,,,,,,651.6496451999992,652.661779099999,650.2559816999983,650.2559816999983,650.2559816999983,650.2559816999983,old_fruit_11.png,231,1.0,1.3962499999997817,,,037,11,2025-01-16_16h34.20.782,Surprise recog test,2023.1.3,59.94801308346879,
231,0,231,0,,,,,,,,,,,,,,,,,,,,,,,,,,,,,,,,,,653.305073399999,654.325122799999,652.661779099999,652.661779099999,652.661779099999,652.661779099999,new_fruit_30.png,232,1.0,0.6322266999995918,,,037,11,2025-01-16_16h34.20.782,Surprise recog test,2023.1.3,59.94801308346879,
232,0,232,0,,,,,,,,,,,,,,,,,,,,,,,,,,,,,,,,,,655.7018633999996,656.7290217999998,654.325122799999,654.325122799999,654.325122799999,654.325122799999,new_stationery_25.png,233,5.0,1.3790393999988737,,,037,11,2025-01-16_16h34.20.782,Surprise recog test,2023.1.3,59.94801308346879,
233,0,233,0,,,,,,,,,,,,,,,,,,,,,,,,,,,,,,,,,,657.3083688999996,658.3167082,656.7290217999998,656.7290217999998,656.7290217999998,656.7290217999998,new_sceneOut_6.png,234,5.0,0.577701000000161,,,037,11,2025-01-16_16h34.20.782,Surprise recog test,2023.1.3,59.94801308346879,
234,0,234,0,,,,,,,,,,,,,,,,,,,,,,,,,,,,,,,,,,663.3190719999984,,658.3167082,658.3167082,658.3167082,658.3167082,new_fruit_2.png,235,None,None,663.3049158999984,,037,11,2025-01-16_16h34.20.782,Surprise recog test,2023.1.3,59.94801308346879,
235,0,235,0,,,,,,,,,,,,,,,,,,,,,,,,,,,,,,,,,,666.0010129999991,,664.348774,664.348774,664.348774,664.348774,old_stationery_2.png,236,5.0,1.6528335999992123,,,037,11,2025-01-16_16h34.20.782,Surprise recog test,2023.1.3,59.94801308346879,
236,0,236,0,,,,,,,,,,,,,,,,,,,,,,,,,,,,,,,,,,669.507697699999,670.5281170999988,667.0377024999998,667.0377024999998,667.0377024999998,667.0377024999998,new_sceneIn_43.png,237,5.0,2.47236040000098,,,037,11,2025-01-16_16h34.20.782,Surprise recog test,2023.1.3,59.94801308346879,
237,0,237,0,,,,,,,,,,,,,,,,,,,,,,,,,,,,,,,,,,674.7254589999993,,670.5281170999988,670.5281170999988,670.5281170999988,670.5281170999988,old_fruit_10.png,238,1.0,4.193671200000608,,,037,11,2025-01-16_16h34.20.782,Surprise recog test,2023.1.3,59.94801308346879,
238,0,238,0,,,,,,,,,,,,,,,,,,,,,,,,,,,,,,,,,,677.9168365999994,678.9446584999987,675.7536317999984,675.7536317999984,675.7536317999984,675.7536317999984,new_sceneIn_10.png,239,5.0,2.16374580000047,,,037,11,2025-01-16_16h34.20.782,Surprise recog test,2023.1.3,59.94801308346879,
239,0,239,0,,,,,,,,,,,,,,,,,,,,,,,,,,,,,,,,,,682.3154084999987,,678.9446584999987,678.9446584999987,678.9446584999987,678.9446584999987,new_stationery_5.png,240,5.0,3.3728346999996575,,,037,11,2025-01-16_16h34.20.782,Surprise recog test,2023.1.3,59.94801308346879,
240,0,240,0,,,,,,,,,,,,,,,,,,,,,,,,,,,,,,,,,,684.7275086999998,685.7468154999988,683.3518035999987,683.3518035999987,683.3518035999987,683.3518035999987,old_fruit_20.png,241,5.0,1.3777275000011286,,,037,11,2025-01-16_16h34.20.782,Surprise recog test,2023.1.3,59.94801308346879,
241,0,241,0,,,,,,,,,,,,,,,,,,,,,,,,,,,,,,,,,,687.3432366999987,688.3546044999985,685.7468154999988,685.7468154999988,685.7468154999988,685.7468154999988,old_stationery_47.png,242,1.0,1.5970933999997214,,,037,11,2025-01-16_16h34.20.782,Surprise recog test,2023.1.3,59.94801308346879,
242,0,242,0,,,,,,,,,,,,,,,,,,,,,,,,,,,,,,,,,,689.9501196000001,690.9777119999999,688.3546044999985,688.3546044999985,688.3546044999985,688.3546044999985,new_fruit_40.png,243,5.0,1.5892021999989083,,,037,11,2025-01-16_16h34.20.782,Surprise recog test,2023.1.3,59.94801308346879,
243,0,243,0,,,,,,,,,,,,,,,,,,,,,,,,,,,,,,,,,,691.8316758000001,692.8571904,690.9777119999999,690.9777119999999,690.9777119999999,690.9777119999999,old_sceneOut_14.png,244,5.0,0.8587674999998853,,,037,11,2025-01-16_16h34.20.782,Surprise recog test,2023.1.3,59.94801308346879,
244,0,244,0,,,,,,,,,,,,,,,,,,,,,,,,,,,,,,,,,,695.0152613999999,696.0470714999992,692.8571904,692.8571904,692.8571904,692.8571904,new_fruit_50.png,245,1.0,2.1575308999999834,,,037,11,2025-01-16_16h34.20.782,Surprise recog test,2023.1.3,59.94801308346879,
245,0,245,0,,,,,,,,,,,,,,,,,,,,,,,,,,,,,,,,,,699.4942148999999,700.5018316999995,696.0470714999992,696.0470714999992,696.0470714999992,696.0470714999992,old_sceneIn_39.png,246,5.0,3.4489559000012378,,,037,11,2025-01-16_16h34.20.782,Surprise recog test,2023.1.3,59.94801308346879,
246,0,246,0,,,,,,,,,,,,,,,,,,,,,,,,,,,,,,,,,,702.8628435999999,703.882305699999,700.5018316999995,700.5018316999995,700.5018316999995,700.5018316999995,new_stationery_46.png,247,5.0,2.3570035000011558,,,037,11,2025-01-16_16h34.20.782,Surprise recog test,2023.1.3,59.94801308346879,
247,0,247,0,,,,,,,,,,,,,,,,,,,,,,,,,,,,,,,,,,706.4669541999992,707.4863159999986,703.882305699999,703.882305699999,703.882305699999,703.882305699999,old_stationery_18.png,248,1.0,2.5866619999997056,,,037,11,2025-01-16_16h34.20.782,Surprise recog test,2023.1.3,59.94801308346879,
248,0,248,0,,,,,,,,,,,,,,,,,,,,,,,,,,,,,,,,,,709.7623234999992,710.7884754999995,707.4863159999986,707.4863159999986,707.4863159999986,707.4863159999986,old_sceneIn_38.png,249,5.0,2.2778463999984524,,,037,11,2025-01-16_16h34.20.782,Surprise recog test,2023.1.3,59.94801308346879,
249,0,249,0,,,,,,,,,,,,,,,,,,,,,,,,,,,,,,,,,,713.4249747999984,,710.7884754999995,710.7884754999995,710.7884754999995,710.7884754999995,new_fruit_8.png,250,1.0,2.6356897999994544,,,037,11,2025-01-16_16h34.20.782,Surprise recog test,2023.1.3,59.94801308346879,
250,0,250,0,,,,,,,,,,,,,,,,,,,,,,,,,,,,,,,,,,716.105877,717.1274636999988,714.4447050999988,714.4447050999988,714.4447050999988,714.4447050999988,old_fruit_8.png,251,1.0,1.6556662999992113,,,037,11,2025-01-16_16h34.20.782,Surprise recog test,2023.1.3,59.94801308346879,
251,0,251,0,,,,,,,,,,,,,,,,,,,,,,,,,,,,,,,,,,718.6256556999997,719.6445265999992,717.1274636999988,717.1274636999988,717.1274636999988,717.1274636999988,old_sceneIn_24.png,252,5.0,1.500327699999616,,,037,11,2025-01-16_16h34.20.782,Surprise recog test,2023.1.3,59.94801308346879,
252,0,252,0,,,,,,,,,,,,,,,,,,,,,,,,,,,,,,,,,,720.4441548999985,721.4627537999986,719.6445265999992,719.6445265999992,719.6445265999992,719.6445265999992,old_sceneOut_15.png,253,5.0,0.7965123000012682,,,037,11,2025-01-16_16h34.20.782,Surprise recog test,2023.1.3,59.94801308346879,
253,0,253,0,,,,,,,,,,,,,,,,,,,,,,,,,,,,,,,,,,722.4712108999993,723.4998617000001,721.4627537999986,721.4627537999986,721.4627537999986,721.4627537999986,old_sceneOut_38.png,254,5.0,1.0088168999991467,,,037,11,2025-01-16_16h34.20.782,Surprise recog test,2023.1.3,59.94801308346879,
254,0,254,0,,,,,,,,,,,,,,,,,,,,,,,,,,,,,,,,,,725.0907453999989,726.1081755999985,723.4998617000001,723.4998617000001,723.4998617000001,723.4998617000001,old_fruit_50.png,255,1.0,1.593213399999513,,,037,11,2025-01-16_16h34.20.782,Surprise recog test,2023.1.3,59.94801308346879,
255,0,255,0,,,,,,,,,,,,,,,,,,,,,,,,,,,,,,,,,,727.9063850999992,728.9373300999996,726.1081755999985,726.1081755999985,726.1081755999985,726.1081755999985,new_fruit_46.png,256,1.0,1.7956213999987085,,,037,11,2025-01-16_16h34.20.782,Surprise recog test,2023.1.3,59.94801308346879,
256,0,256,0,,,,,,,,,,,,,,,,,,,,,,,,,,,,,,,,,,731.0368181999984,732.0564077999989,728.9373300999996,728.9373300999996,728.9373300999996,728.9373300999996,old_stationery_24.png,257,1.0,2.1013937999996415,,,037,11,2025-01-16_16h34.20.782,Surprise recog test,2023.1.3,59.94801308346879,
257,0,257,0,,,,,,,,,,,,,,,,,,,,,,,,,,,,,,,,,,734.2949255999993,735.3248038999991,732.0564077999989,732.0564077999989,732.0564077999989,732.0564077999989,new_sceneIn_11.png,258,5.0,2.2408718000006047,,,037,11,2025-01-16_16h34.20.782,Surprise recog test,2023.1.3,59.94801308346879,
258,0,258,0,,,,,,,,,,,,,,,,,,,,,,,,,,,,,,,,,,737.4936687999998,738.5116507999992,735.3248038999991,735.3248038999991,735.3248038999991,735.3248038999991,old_sceneIn_19.png,259,5.0,2.1705897000010737,,,037,11,2025-01-16_16h34.20.782,Surprise recog test,2023.1.3,59.94801308346879,
259,0,259,0,,,,,,,,,,,,,,,,,,,,,,,,,,,,,,,,,,740.0524114,741.0792775999998,738.5116507999992,738.5116507999992,738.5116507999992,738.5116507999992,old_fruit_27.png,260,1.0,1.5440384000012273,,,037,11,2025-01-16_16h34.20.782,Surprise recog test,2023.1.3,59.94801308346879,
260,0,260,0,,,,,,,,,,,,,,,,,,,,,,,,,,,,,,,,,,742.3159035999997,,741.0792775999998,741.0792775999998,741.0792775999998,741.0792775999998,old_fruit_21.png,261,1.0,1.238564100000076,,,037,11,2025-01-16_16h34.20.782,Surprise recog test,2023.1.3,59.94801308346879,
261,0,261,0,,,,,,,,,,,,,,,,,,,,,,,,,,,,,,,,,,745.2329831999996,746.2385009999998,743.3525771999994,743.3525771999994,743.3525771999994,743.3525771999994,new_fruit_22.png,262,5.0,1.88135340000008,,,037,11,2025-01-16_16h34.20.782,Surprise recog test,2023.1.3,59.94801308346879,
262,0,262,0,,,,,,,,,,,,,,,,,,,,,,,,,,,,,,,,,,748.9584679,749.975751,746.2385009999998,746.2385009999998,746.2385009999998,746.2385009999998,new_fruit_10.png,263,5.0,2.7148508000009315,,,037,11,2025-01-16_16h34.20.782,Surprise recog test,2023.1.3,59.94801308346879,
263,0,263,0,,,,,,,,,,,,,,,,,,,,,,,,,,,,,,,,,,750.9933011999983,752.0222427999997,749.975751,749.975751,749.975751,749.975751,old_stationery_21.png,264,5.0,1.0137454000014259,,,037,11,2025-01-16_16h34.20.782,Surprise recog test,2023.1.3,59.94801308346879,
264,0,264,0,,,,,,,,,,,,,,,,,,,,,,,,,,,,,,,,,,753.2747734999994,,752.0222427999997,752.0222427999997,752.0222427999997,752.0222427999997,old_stationery_50.png,265,1.0,1.254646800000046,,,037,11,2025-01-16_16h34.20.782,Surprise recog test,2023.1.3,59.94801308346879,
265,0,265,0,,,,,,,,,,,,,,,,,,,,,,,,,,,,,,,,,,756.6409435999994,757.6679655999997,754.3057739999986,754.3057739999986,754.3057739999986,754.3057739999986,old_sceneIn_25.png,266,5.0,2.3299208999997063,,,037,11,2025-01-16_16h34.20.782,Surprise recog test,2023.1.3,59.94801308346879,
266,0,266,0,,,,,,,,,,,,,,,,,,,,,,,,,,,,,,,,,,758.598158499999,759.6290327999995,757.6679655999997,757.6679655999997,757.6679655999997,757.6679655999997,old_stationery_39.png,267,5.0,0.9337687000006554,,,037,11,2025-01-16_16h34.20.782,Surprise recog test,2023.1.3,59.94801308346879,
267,0,267,0,,,,,,,,,,,,,,,,,,,,,,,,,,,,,,,,,,760.4024565999989,761.4219851999987,759.6290327999995,759.6290327999995,759.6290327999995,759.6290327999995,old_stationery_22.png,268,5.0,0.7756000999997923,,,037,11,2025-01-16_16h34.20.782,Surprise recog test,2023.1.3,59.94801308346879,
268,0,268,0,,,,,,,,,,,,,,,,,,,,,,,,,,,,,,,,,,762.5260831999985,763.5377763999986,761.4219851999987,761.4219851999987,761.4219851999987,761.4219851999987,new_fruit_13.png,269,1.0,1.1035124999998516,,,037,11,2025-01-16_16h34.20.782,Surprise recog test,2023.1.3,59.94801308346879,
269,0,269,0,,,,,,,,,,,,,,,,,,,,,,,,,,,,,,,,,,764.5307997999989,765.5508718000001,763.5377763999986,763.5377763999986,763.5377763999986,763.5377763999986,new_fruit_19.png,270,1.0,0.9865439000004699,,,037,11,2025-01-16_16h34.20.782,Surprise recog test,2023.1.3,59.94801308346879,
270,0,270,0,,,,,,,,,,,,,,,,,,,,,,,,,,,,,,,,,,767.4394114999996,768.4637355999985,765.5508718000001,765.5508718000001,765.5508718000001,765.5508718000001,old_stationery_43.png,271,2.0,1.8901299000008294,,,037,11,2025-01-16_16h34.20.782,Surprise recog test,2023.1.3,59.94801308346879,
271,0,271,0,,,,,,,,,,,,,,,,,,,,,,,,,,,,,,,,,,770.1190078,771.1400617999989,768.4637355999985,768.4637355999985,768.4637355999985,768.4637355999985,old_sceneOut_27.png,272,5.0,1.6526074999983393,,,037,11,2025-01-16_16h34.20.782,Surprise recog test,2023.1.3,59.94801308346879,
272,0,272,0,,,,,,,,,,,,,,,,,,,,,,,,,,,,,,,,,,772.0311858999994,773.0586062999992,771.1400617999989,771.1400617999989,771.1400617999989,771.1400617999989,old_stationery_37.png,273,5.0,0.8905756999993173,,,037,11,2025-01-16_16h34.20.782,Surprise recog test,2023.1.3,59.94801308346879,
273,0,273,0,,,,,,,,,,,,,,,,,,,,,,,,,,,,,,,,,,773.9091211999985,,773.0586062999992,773.0586062999992,773.0586062999992,773.0586062999992,new_sceneIn_18.png,274,5.0,0.8536917999990692,,,037,11,2025-01-16_16h34.20.782,Surprise recog test,2023.1.3,59.94801308346879,
274,0,274,0,,,,,,,,,,,,,,,,,,,,,,,,,,,,,,,,,,776.3786013999998,,774.9417515999994,774.9417515999994,774.9417515999994,774.9417515999994,new_stationery_15.png,275,1.0,1.439897899999778,,,037,11,2025-01-16_16h34.20.782,Surprise recog test,2023.1.3,59.94801308346879,
275,0,275,0,,,,,,,,,,,,,,,,,,,,,,,,,,,,,,,,,,780.1247379999986,781.1465031999996,777.4106495999986,777.4106495999986,777.4106495999986,777.4106495999986,old_sceneOut_33.png,276,2.0,2.716481900000872,,,037,11,2025-01-16_16h34.20.782,Surprise recog test,2023.1.3,59.94801308346879,
276,0,276,0,,,,,,,,,,,,,,,,,,,,,,,,,,,,,,,,,,782.2115678999999,783.2309080999985,781.1465031999996,781.1465031999996,781.1465031999996,781.1465031999996,old_stationery_14.png,277,1.0,1.0676125999998476,,,037,11,2025-01-16_16h34.20.782,Surprise recog test,2023.1.3,59.94801308346879,
277,0,277,0,,,,,,,,,,,,,,,,,,,,,,,,,,,,,,,,,,784.6642224999996,785.6726235999995,783.2309080999985,783.2309080999985,783.2309080999985,783.2309080999985,old_stationery_11.png,278,5.0,1.4343316000013147,,,037,11,2025-01-16_16h34.20.782,Surprise recog test,2023.1.3,59.94801308346879,
278,0,278,0,,,,,,,,,,,,,,,,,,,,,,,,,,,,,,,,,,786.3734323999997,787.390392199999,785.6726235999995,785.6726235999995,785.6726235999995,785.6726235999995,old_sceneIn_30.png,279,5.0,0.6959781999994448,,,037,11,2025-01-16_16h34.20.782,Surprise recog test,2023.1.3,59.94801308346879,
279,0,279,0,,,,,,,,,,,,,,,,,,,,,,,,,,,,,,,,,,788.667504699999,789.6821514999992,787.390392199999,787.390392199999,787.390392199999,787.390392199999,new_sceneOut_27.png,280,2.0,1.2721670999999333,,,037,11,2025-01-16_16h34.20.782,Surprise recog test,2023.1.3,59.94801308346879,
280,0,280,0,,,,,,,,,,,,,,,,,,,,,,,,,,,,,,,,,,790.6224184999992,,789.6821514999992,789.6821514999992,789.6821514999992,789.6821514999992,old_fruit_7.png,281,1.0,0.9405272999993031,,,037,11,2025-01-16_16h34.20.782,Surprise recog test,2023.1.3,59.94801308346879,
281,0,281,0,,,,,,,,,,,,,,,,,,,,,,,,,,,,,,,,,,793.0523714999999,794.0744863,791.6415091999988,791.6415091999988,791.6415091999988,791.6415091999988,old_sceneOut_16.png,282,5.0,1.4066982999993343,,,037,11,2025-01-16_16h34.20.782,Surprise recog test,2023.1.3,59.94801308346879,
282,0,282,0,,,,,,,,,,,,,,,,,,,,,,,,,,,,,,,,,,795.2177906999987,796.2414074999997,794.0744863,794.0744863,794.0744863,794.0744863,new_sceneOut_28.png,283,1.0,1.145516200000202,,,037,11,2025-01-16_16h34.20.782,Surprise recog test,2023.1.3,59.94801308346879,
283,0,283,0,,,,,,,,,,,,,,,,,,,,,,,,,,,,,,,,,,797.8112573999988,,796.2414074999997,796.2414074999997,796.2414074999997,796.2414074999997,new_stationery_39.png,284,5.0,1.5719884000009188,,,037,11,2025-01-16_16h34.20.782,Surprise recog test,2023.1.3,59.94801308346879,
284,0,284,0,,,,,,,,,,,,,,,,,,,,,,,,,,,,,,,,,,799.4689538999992,800.4959634999996,798.8295874999985,798.8295874999985,798.8295874999985,798.8295874999985,old_sceneIn_13.png,285,5.0,0.6355908999994426,,,037,11,2025-01-16_16h34.20.782,Surprise recog test,2023.1.3,59.94801308346879,
285,0,285,0,,,,,,,,,,,,,,,,,,,,,,,,,,,,,,,,,,801.7952187999999,802.8158645999993,800.4959634999996,800.4959634999996,800.4959634999996,800.4959634999996,new_sceneOut_9.png,286,5.0,1.29876669999976,,,037,11,2025-01-16_16h34.20.782,Surprise recog test,2023.1.3,59.94801308346879,
286,0,286,0,,,,,,,,,,,,,,,,,,,,,,,,,,,,,,,,,,804.0137642999998,805.0208537999988,802.8158645999993,802.8158645999993,802.8158645999993,802.8158645999993,old_fruit_43.png,287,5.0,1.1980895000015153,,,037,11,2025-01-16_16h34.20.782,Surprise recog test,2023.1.3,59.94801308346879,
287,0,287,0,,,,,,,,,,,,,,,,,,,,,,,,,,,,,,,,,,806.4140424999987,807.4397872999998,805.0208537999988,805.0208537999988,805.0208537999988,805.0208537999988,old_fruit_24.png,288,1.0,1.3897082999992563,,,037,11,2025-01-16_16h34.20.782,Surprise recog test,2023.1.3,59.94801308346879,
288,0,288,0,,,,,,,,,,,,,,,,,,,,,,,,,,,,,,,,,,808.3340648999983,809.3560679999991,807.4397872999998,807.4397872999998,807.4397872999998,807.4397872999998,old_fruit_3.png,289,1.0,0.8925388999996358,,,037,11,2025-01-16_16h34.20.782,Surprise recog test,2023.1.3,59.94801308346879,
289,0,289,0,,,,,,,,,,,,,,,,,,,,,,,,,,,,,,,,,,810.5781623999992,811.5934672999992,809.3560679999991,809.3560679999991,809.3560679999991,809.3560679999991,old_sceneIn_48.png,290,5.0,1.2226386999991519,,,037,11,2025-01-16_16h34.20.782,Surprise recog test,2023.1.3,59.94801308346879,
290,0,290,0,,,,,,,,,,,,,,,,,,,,,,,,,,,,,,,,,,812.3845330999993,813.3949529999991,811.5934672999992,811.5934672999992,811.5934672999992,811.5934672999992,new_sceneOut_3.png,291,5.0,0.7862826000000496,,,037,11,2025-01-16_16h34.20.782,Surprise recog test,2023.1.3,59.94801308346879,
291,0,291,0,,,,,,,,,,,,,,,,,,,,,,,,,,,,,,,,,,814.7558782999986,815.7654776999989,813.3949529999991,813.3949529999991,813.3949529999991,813.3949529999991,old_fruit_37.png,292,1.0,1.3497723000000406,,,037,11,2025-01-16_16h34.20.782,Surprise recog test,2023.1.3,59.94801308346879,
292,0,292,0,,,,,,,,,,,,,,,,,,,,,,,,,,,,,,,,,,816.7189660999993,817.7326819999998,815.7654776999989,815.7654776999989,815.7654776999989,815.7654776999989,old_sceneIn_9.png,293,5.0,0.9483543000005739,,,037,11,2025-01-16_16h34.20.782,Surprise recog test,2023.1.3,59.94801308346879,
293,0,293,0,,,,,,,,,,,,,,,,,,,,,,,,,,,,,,,,,,818.8069467999994,819.8297500999997,817.7326819999998,817.7326819999998,817.7326819999998,817.7326819999998,old_sceneOut_26.png,294,5.0,1.069534799999019,,,037,11,2025-01-16_16h34.20.782,Surprise recog test,2023.1.3,59.94801308346879,
294,0,294,0,,,,,,,,,,,,,,,,,,,,,,,,,,,,,,,,,,821.0377759999992,822.0749612999989,819.8297500999997,819.8297500999997,819.8297500999997,819.8297500999997,new_fruit_26.png,295,1.0,1.2095504999997502,,,037,11,2025-01-16_16h34.20.782,Surprise recog test,2023.1.3,59.94801308346879,
295,0,295,0,,,,,,,,,,,,,,,,,,,,,,,,,,,,,,,,,,823.4493019999991,,822.0749612999989,822.0749612999989,822.0749612999989,822.0749612999989,new_stationery_20.png,296,5.0,1.3793628000003082,,,037,11,2025-01-16_16h34.20.782,Surprise recog test,2023.1.3,59.94801308346879,
296,0,296,0,,,,,,,,,,,,,,,,,,,,,,,,,,,,,,,,,,825.1160265999988,826.1345790999985,824.485534899999,824.485534899999,824.485534899999,824.485534899999,new_sceneOut_31.png,297,5.0,0.6338481999991927,,,037,11,2025-01-16_16h34.20.782,Surprise recog test,2023.1.3,59.94801308346879,
297,0,297,0,,,,,,,,,,,,,,,,,,,,,,,,,,,,,,,,,,826.9581600999991,827.9873694999987,826.1345790999985,826.1345790999985,826.1345790999985,826.1345790999985,new_sceneIn_32.png,298,5.0,0.8254747999999381,,,037,11,2025-01-16_16h34.20.782,Surprise recog test,2023.1.3,59.94801308346879,
298,0,298,0,,,,,,,,,,,,,,,,,,,,,,,,,,,,,,,,,,829.3617711999996,830.3887221999994,827.9873694999987,827.9873694999987,827.9873694999987,827.9873694999987,old_fruit_36.png,299,1.0,1.3767397999999957,,,037,11,2025-01-16_16h34.20.782,Surprise recog test,2023.1.3,59.94801308346879,
299,0,299,0,,,,,,,,,,,,,,,,,,,,,,,,,,,,,,,,,,831.7040029999989,832.7121227999996,830.3887221999994,830.3887221999994,830.3887221999994,830.3887221999994,new_sceneOut_17.png,300,5.0,1.3164938999998412,,,037,11,2025-01-16_16h34.20.782,Surprise recog test,2023.1.3,59.94801308346879,
300,0,300,0,,,,,,,,,,,,,,,,,,,,,,,,,,,,,,,,,,833.6444384999995,834.6729035999997,832.7121227999996,832.7121227999996,832.7121227999996,832.7121227999996,new_stationery_17.png,301,5.0,0.9280638000000181,,,037,11,2025-01-16_16h34.20.782,Surprise recog test,2023.1.3,59.94801308346879,
301,0,301,0,,,,,,,,,,,,,,,,,,,,,,,,,,,,,,,,,,835.2722939999985,836.2945657,834.6729035999997,834.6729035999997,834.6729035999997,834.6729035999997,new_sceneOut_8.png,302,5.0,0.6010363000004872,,,037,11,2025-01-16_16h34.20.782,Surprise recog test,2023.1.3,59.94801308346879,
302,0,302,0,,,,,,,,,,,,,,,,,,,,,,,,,,,,,,,,,,837.2233371999992,838.2386024999996,836.2945657,836.2945657,836.2945657,836.2945657,new_sceneIn_14.png,303,5.0,0.9311850000012782,,,037,11,2025-01-16_16h34.20.782,Surprise recog test,2023.1.3,59.94801308346879,
303,0,303,0,,,,,,,,,,,,,,,,,,,,,,,,,,,,,,,,,,839.2308540999984,,838.2386024999996,838.2386024999996,838.2386024999996,838.2386024999996,new_stationery_40.png,304,5.0,0.991958100001284,,,037,11,2025-01-16_16h34.20.782,Surprise recog test,2023.1.3,59.94801308346879,
304,0,304,0,,,,,,,,,,,,,,,,,,,,,,,,,,,,,,,,,,840.9687189999986,841.9855950000001,840.2645407,840.2645407,840.2645407,840.2645407,old_sceneIn_40.png,305,5.0,0.7066273000000365,,,037,11,2025-01-16_16h34.20.782,Surprise recog test,2023.1.3,59.94801308346879,
305,0,305,0,,,,,,,,,,,,,,,,,,,,,,,,,,,,,,,,,,842.4806628999995,843.4990472999998,841.9855950000001,841.9855950000001,841.9855950000001,841.9855950000001,new_sceneOut_15.png,306,5.0,0.488208199998553,,,037,11,2025-01-16_16h34.20.782,Surprise recog test,2023.1.3,59.94801308346879,
306,0,306,0,,,,,,,,,,,,,,,,,,,,,,,,,,,,,,,,,,844.0291928999995,845.0504896999992,843.4990472999998,843.4990472999998,843.4990472999998,843.4990472999998,old_sceneOut_12.png,307,5.0,0.5321194999996806,,,037,11,2025-01-16_16h34.20.782,Surprise recog test,2023.1.3,59.94801308346879,
307,0,307,0,,,,,,,,,,,,,,,,,,,,,,,,,,,,,,,,,,845.7724994,846.7905802999994,845.0504896999992,845.0504896999992,845.0504896999992,845.0504896999992,new_sceneIn_5.png,308,5.0,0.7237129999994067,,,037,11,2025-01-16_16h34.20.782,Surprise recog test,2023.1.3,59.94801308346879,
308,0,308,0,,,,,,,,,,,,,,,,,,,,,,,,,,,,,,,,,,848.2352836999999,849.251313499999,846.7905802999994,846.7905802999994,846.7905802999994,846.7905802999994,new_fruit_37.png,309,1.0,1.4396161000004213,,,037,11,2025-01-16_16h34.20.782,Surprise recog test,2023.1.3,59.94801308346879,
309,0,309,0,,,,,,,,,,,,,,,,,,,,,,,,,,,,,,,,,,850.0126689999997,851.0385081999993,849.251313499999,849.251313499999,849.251313499999,849.251313499999,old_fruit_33.png,310,1.0,0.7639180000005581,,,037,11,2025-01-16_16h34.20.782,Surprise recog test,2023.1.3,59.94801308346879,
310,0,310,0,,,,,,,,,,,,,,,,,,,,,,,,,,,,,,,,,,852.640089999999,,851.0385081999993,851.0385081999993,851.0385081999993,851.0385081999993,old_sceneIn_36.png,311,5.0,1.6015627999986464,,,037,11,2025-01-16_16h34.20.782,Surprise recog test,2023.1.3,59.94801308346879,
311,0,311,0,,,,,,,,,,,,,,,,,,,,,,,,,,,,,,,,,,854.2220234999986,855.2420907999986,853.6745404999983,853.6745404999983,853.6745404999983,853.6745404999983,new_sceneIn_25.png,312,5.0,0.5459391000003961,,,037,11,2025-01-16_16h34.20.782,Surprise recog test,2023.1.3,59.94801308346879,
312,0,312,0,,,,,,,,,,,,,,,,,,,,,,,,,,,,,,,,,,856.9943901999995,,855.2420907999986,855.2420907999986,855.2420907999986,855.2420907999986,new_stationery_18.png,313,1.0,1.7543870999998035,,,037,11,2025-01-16_16h34.20.782,Surprise recog test,2023.1.3,59.94801308346879,
313,0,313,0,,,,,,,,,,,,,,,,,,,,,,,,,,,,,,,,,,858.8337585999998,859.8507813999986,858.0266033999997,858.0266033999997,858.0266033999997,858.0266033999997,old_stationery_30.png,314,1.0,0.8090128999992885,,,037,11,2025-01-16_16h34.20.782,Surprise recog test,2023.1.3,59.94801308346879,
314,0,314,0,,,,,,,,,,,,,,,,,,,,,,,,,,,,,,,,,,860.9112974999989,861.9179607999995,859.8507813999986,859.8507813999986,859.8507813999986,859.8507813999986,old_fruit_38.png,315,1.0,1.0565105999994557,,,037,11,2025-01-16_16h34.20.782,Surprise recog test,2023.1.3,59.94801308346879,
315,0,315,0,,,,,,,,,,,,,,,,,,,,,,,,,,,,,,,,,,863.1294705,864.1465737999988,861.9179607999995,861.9179607999995,861.9179607999995,861.9179607999995,new_sceneOut_2.png,316,1.0,1.2068060000001424,,,037,11,2025-01-16_16h34.20.782,Surprise recog test,2023.1.3,59.94801308346879,
316,0,316,0,,,,,,,,,,,,,,,,,,,,,,,,,,,,,,,,,,866.0570294999998,867.0767774999986,864.1465737999988,864.1465737999988,864.1465737999988,864.1465737999988,old_sceneOut_1.png,317,5.0,1.907721199999287,,,037,11,2025-01-16_16h34.20.782,Surprise recog test,2023.1.3,59.94801308346879,
317,0,317,0,,,,,,,,,,,,,,,,,,,,,,,,,,,,,,,,,,869.5208109999985,,867.0767774999986,867.0767774999986,867.0767774999986,867.0767774999986,new_sceneOut_33.png,318,3.0,2.443523699999787,,,037,11,2025-01-16_16h34.20.782,Surprise recog test,2023.1.3,59.94801308346879,
318,0,318,0,,,,,,,,,,,,,,,,,,,,,,,,,,,,,,,,,,871.433028899999,872.4565292999996,870.5420312999995,870.5420312999995,870.5420312999995,870.5420312999995,new_sceneOut_44.png,319,4.0,0.8868624999995518,,,037,11,2025-01-16_16h34.20.782,Surprise recog test,2023.1.3,59.94801308346879,
319,0,319,0,,,,,,,,,,,,,,,,,,,,,,,,,,,,,,,,,,873.4006808999984,874.4244540999989,872.4565292999996,872.4565292999996,872.4565292999996,872.4565292999996,old_sceneIn_23.png,320,5.0,0.9476266000001488,,,037,11,2025-01-16_16h34.20.782,Surprise recog test,2023.1.3,59.94801308346879,
320,0,320,0,,,,,,,,,,,,,,,,,,,,,,,,,,,,,,,,,,875.9253728999993,,874.4244540999989,874.4244540999989,874.4244540999989,874.4244540999989,old_stationery_25.png,321,1.0,1.501387700000123,,,037,11,2025-01-16_16h34.20.782,Surprise recog test,2023.1.3,59.94801308346879,
321,0,321,0,,,,,,,,,,,,,,,,,,,,,,,,,,,,,,,,,,878.6057785999983,879.6252421999998,876.9443065999985,876.9443065999985,876.9443065999985,876.9443065999985,old_sceneIn_49.png,322,5.0,1.6550661000001128,,,037,11,2025-01-16_16h34.20.782,Surprise recog test,2023.1.3,59.94801308346879,
322,0,322,0,,,,,,,,,,,,,,,,,,,,,,,,,,,,,,,,,,880.4722932999994,881.4858103999995,879.6252421999998,879.6252421999998,879.6252421999998,879.6252421999998,new_sceneIn_33.png,323,5.0,0.8459222000001319,,,037,11,2025-01-16_16h34.20.782,Surprise recog test,2023.1.3,59.94801308346879,
323,0,323,0,,,,,,,,,,,,,,,,,,,,,,,,,,,,,,,,,,881.9721483999983,882.9940551999989,881.4858103999995,881.4858103999995,881.4858103999995,881.4858103999995,old_sceneOut_13.png,324,5.0,0.48066450000078476,,,037,11,2025-01-16_16h34.20.782,Surprise recog test,2023.1.3,59.94801308346879,
324,0,324,0,,,,,,,,,,,,,,,,,,,,,,,,,,,,,,,,,,884.0533417999995,885.0719052999993,882.9940551999989,882.9940551999989,882.9940551999989,882.9940551999989,old_stationery_28.png,325,1.0,1.0587101000000985,,,037,11,2025-01-16_16h34.20.782,Surprise recog test,2023.1.3,59.94801308346879,
325,0,325,0,,,,,,,,,,,,,,,,,,,,,,,,,,,,,,,,,,886.4313054999984,887.4551678999997,885.0719052999993,885.0719052999993,885.0719052999993,885.0719052999993,new_stationery_32.png,326,5.0,1.3544756999999663,,,037,11,2025-01-16_16h34.20.782,Surprise recog test,2023.1.3,59.94801308346879,
326,0,326,0,,,,,,,,,,,,,,,,,,,,,,,,,,,,,,,,,,888.0271202999993,889.0379178999992,887.4551678999997,887.4551678999997,887.4551678999997,887.4551678999997,old_sceneIn_47.png,327,5.0,0.5761821000014606,,,037,11,2025-01-16_16h34.20.782,Surprise recog test,2023.1.3,59.94801308346879,
327,0,327,0,,,,,,,,,,,,,,,,,,,,,,,,,,,,,,,,,,889.9684261999992,890.9883937999984,889.0379178999992,889.0379178999992,889.0379178999992,889.0379178999992,new_sceneOut_36.png,328,5.0,0.9245997999987594,,,037,11,2025-01-16_16h34.20.782,Surprise recog test,2023.1.3,59.94801308346879,
328,0,328,0,,,,,,,,,,,,,,,,,,,,,,,,,,,,,,,,,,892.3623850999993,893.3911132999983,890.9883937999984,890.9883937999984,890.9883937999984,890.9883937999984,new_sceneOut_12.png,329,5.0,1.3741178000000218,,,037,11,2025-01-16_16h34.20.782,Surprise recog test,2023.1.3,59.94801308346879,
329,0,329,0,,,,,,,,,,,,,,,,,,,,,,,,,,,,,,,,,,894.7505505999998,895.7767009999989,893.3911132999983,893.3911132999983,893.3911132999983,893.3911132999983,old_fruit_42.png,330,1.0,1.3607336999994004,,,037,11,2025-01-16_16h34.20.782,Surprise recog test,2023.1.3,59.94801308346879,
330,0,330,0,,,,,,,,,,,,,,,,,,,,,,,,,,,,,,,,,,897.3602301999999,,895.7767009999989,895.7767009999989,895.7767009999989,895.7767009999989,old_stationery_1.png,331,1.0,1.5860241999998834,,,037,11,2025-01-16_16h34.20.782,Surprise recog test,2023.1.3,59.94801308346879,
331,0,331,0,,,,,,,,,,,,,,,,,,,,,,,,,,,,,,,,,,899.9210659,900.9464049999988,898.3946183999997,898.3946183999997,898.3946183999997,898.3946183999997,old_stationery_45.png,332,2.0,1.5267781000002287,,,037,11,2025-01-16_16h34.20.782,Surprise recog test,2023.1.3,59.94801308346879,
332,0,332,0,,,,,,,,,,,,,,,,,,,,,,,,,,,,,,,,,,902.0465632999985,903.0669808999992,900.9464049999988,900.9464049999988,900.9464049999988,900.9464049999988,old_sceneIn_1.png,333,5.0,1.1030664999998407,,,037,11,2025-01-16_16h34.20.782,Surprise recog test,2023.1.3,59.94801308346879,
333,0,333,0,,,,,,,,,,,,,,,,,,,,,,,,,,,,,,,,,,904.5842457999988,,903.0669808999992,903.0669808999992,903.0669808999992,903.0669808999992,new_fruit_36.png,334,1.0,1.5172419999998965,,,037,11,2025-01-16_16h34.20.782,Surprise recog test,2023.1.3,59.94801308346879,
334,0,334,0,,,,,,,,,,,,,,,,,,,,,,,,,,,,,,,,,,906.6562766999996,907.6859859999986,905.6155679999993,905.6155679999993,905.6155679999993,905.6155679999993,old_sceneIn_8.png,335,5.0,1.0421583999996074,,,037,11,2025-01-16_16h34.20.782,Surprise recog test,2023.1.3,59.94801308346879,
335,0,335,0,,,,,,,,,,,,,,,,,,,,,,,,,,,,,,,,,,908.4320972999994,909.4421109999985,907.6859859999986,907.6859859999986,907.6859859999986,907.6859859999986,old_sceneIn_37.png,336,5.0,0.7438578999990568,,,037,11,2025-01-16_16h34.20.782,Surprise recog test,2023.1.3,59.94801308346879,
336,0,336,0,,,,,,,,,,,,,,,,,,,,,,,,,,,,,,,,,,910.064658199999,911.09015,909.4421109999985,909.4421109999985,909.4421109999985,909.4421109999985,old_stationery_19.png,337,5.0,0.6188894999995682,,,037,11,2025-01-16_16h34.20.782,Surprise recog test,2023.1.3,59.94801308346879,
337,0,337,0,,,,,,,,,,,,,,,,,,,,,,,,,,,,,,,,,,913.9131376999994,914.9440519999989,911.09015,911.09015,911.09015,911.09015,new_stationery_34.png,338,1.0,2.8254648000001907,,,037,11,2025-01-16_16h34.20.782,Surprise recog test,2023.1.3,59.94801308346879,
338,0,338,0,,,,,,,,,,,,,,,,,,,,,,,,,,,,,,,,,,915.9233929999991,916.9454343999987,914.9440519999989,914.9440519999989,914.9440519999989,914.9440519999989,old_stationery_9.png,339,1.0,0.9767140000003565,,,037,11,2025-01-16_16h34.20.782,Surprise recog test,2023.1.3,59.94801308346879,
339,0,339,0,,,,,,,,,,,,,,,,,,,,,,,,,,,,,,,,,,918.1632637999992,919.1936814000001,916.9454343999987,916.9454343999987,916.9454343999987,916.9454343999987,old_sceneOut_29.png,340,5.0,1.220342000000528,,,037,11,2025-01-16_16h34.20.782,Surprise recog test,2023.1.3,59.94801308346879,
340,0,340,0,,,,,,,,,,,,,,,,,,,,,,,,,,,,,,,,,,920.6188746999997,921.6423910999983,919.1936814000001,919.1936814000001,919.1936814000001,919.1936814000001,old_stationery_12.png,341,5.0,1.4255030999993323,,,037,11,2025-01-16_16h34.20.782,Surprise recog test,2023.1.3,59.94801308346879,
341,0,341,0,,,,,,,,,,,,,,,,,,,,,,,,,,,,,,,,,,923.5133850999991,924.5200200999989,921.6423910999983,921.6423910999983,921.6423910999983,921.6423910999983,new_stationery_27.png,342,5.0,1.8728750999998738,,,037,11,2025-01-16_16h34.20.782,Surprise recog test,2023.1.3,59.94801308346879,
342,0,342,0,,,,,,,,,,,,,,,,,,,,,,,,,,,,,,,,,,925.2601774999985,926.2784511999998,924.5200200999989,924.5200200999989,924.5200200999989,924.5200200999989,new_sceneOut_48.png,343,5.0,0.735251199999766,,,037,11,2025-01-16_16h34.20.782,Surprise recog test,2023.1.3,59.94801308346879,
343,0,343,0,,,,,,,,,,,,,,,,,,,,,,,,,,,,,,,,,,928.9128050999989,929.925471999999,926.2784511999998,926.2784511999998,926.2784511999998,926.2784511999998,new_sceneIn_9.png,344,5.0,2.6360630999988643,,,037,11,2025-01-16_16h34.20.782,Surprise recog test,2023.1.3,59.94801308346879,
344,0,344,0,,,,,,,,,,,,,,,,,,,,,,,,,,,,,,,,,,931.6235819999984,,929.925471999999,929.925471999999,929.925471999999,929.925471999999,old_stationery_42.png,345,1.0,1.6942255000012665,,,037,11,2025-01-16_16h34.20.782,Surprise recog test,2023.1.3,59.94801308346879,
345,0,345,0,,,,,,,,,,,,,,,,,,,,,,,,,,,,,,,,,,934.4052371999987,935.4255925999987,932.6599418999995,932.6599418999995,932.6599418999995,932.6599418999995,old_stationery_13.png,346,1.0,1.7469987999993464,,,037,11,2025-01-16_16h34.20.782,Surprise recog test,2023.1.3,59.94801308346879,
346,0,346,0,,,,,,,,,,,,,,,,,,,,,,,,,,,,,,,,,,936.6169901999983,937.6464773999996,935.4255925999987,935.4255925999987,935.4255925999987,935.4255925999987,old_sceneOut_49.png,347,5.0,1.1929344000000128,,,037,11,2025-01-16_16h34.20.782,Surprise recog test,2023.1.3,59.94801308346879,
347,0,347,0,,,,,,,,,,,,,,,,,,,,,,,,,,,,,,,,,,938.7237298,939.7313076999999,937.6464773999996,937.6464773999996,937.6464773999996,937.6464773999996,new_stationery_31.png,348,5.0,1.0793871999994735,,,037,11,2025-01-16_16h34.20.782,Surprise recog test,2023.1.3,59.94801308346879,
348,0,348,0,,,,,,,,,,,,,,,,,,,,,,,,,,,,,,,,,,940.3025594999999,941.3244736999986,939.7313076999999,939.7313076999999,939.7313076999999,939.7313076999999,new_sceneOut_45.png,349,5.0,0.5652503000001161,,,037,11,2025-01-16_16h34.20.782,Surprise recog test,2023.1.3,59.94801308346879,
349,0,349,0,,,,,,,,,,,,,,,,,,,,,,,,,,,,,,,,,,943.1415020999993,944.1671582999988,941.3244736999986,941.3244736999986,941.3244736999986,941.3244736999986,new_fruit_14.png,350,4.0,1.8175513999995019,,,037,11,2025-01-16_16h34.20.782,Surprise recog test,2023.1.3,59.94801308346879,
350,0,350,0,,,,,,,,,,,,,,,,,,,,,,,,,,,,,,,,,,946.5350815999991,,944.1671582999988,944.1671582999988,944.1671582999988,944.1671582999988,new_sceneIn_30.png,351,5.0,2.3701945999982854,,,037,11,2025-01-16_16h34.20.782,Surprise recog test,2023.1.3,59.94801308346879,
351,0,351,0,,,,,,,,,,,,,,,,,,,,,,,,,,,,,,,,,,948.9393193999986,949.9688184999995,947.5638015999994,947.5638015999994,947.5638015999994,947.5638015999994,new_fruit_4.png,352,1.0,1.376425399999789,,,037,11,2025-01-16_16h34.20.782,Surprise recog test,2023.1.3,59.94801308346879,
352,0,352,0,,,,,,,,,,,,,,,,,,,,,,,,,,,,,,,,,,952.2841582000001,953.3075543999985,949.9688184999995,949.9688184999995,949.9688184999995,949.9688184999995,new_stationery_49.png,353,2.0,2.3165575999992143,,,037,11,2025-01-16_16h34.20.782,Surprise recog test,2023.1.3,59.94801308346879,
353,0,353,0,,,,,,,,,,,,,,,,,,,,,,,,,,,,,,,,,,954.9196863999987,955.9467811999984,953.3075543999985,953.3075543999985,953.3075543999985,953.3075543999985,old_sceneOut_19.png,354,5.0,1.609810699999798,,,037,11,2025-01-16_16h34.20.782,Surprise recog test,2023.1.3,59.94801308346879,
354,0,354,0,,,,,,,,,,,,,,,,,,,,,,,,,,,,,,,,,,957.2994687999999,958.3129219999992,955.9467811999984,955.9467811999984,955.9467811999984,955.9467811999984,old_sceneOut_37.png,355,5.0,1.3555770999992092,,,037,11,2025-01-16_16h34.20.782,Surprise recog test,2023.1.3,59.94801308346879,
355,0,355,0,,,,,,,,,,,,,,,,,,,,,,,,,,,,,,,,,,958.9090811999995,959.9172504999988,958.3129219999992,958.3129219999992,958.3129219999992,958.3129219999992,old_sceneIn_32.png,356,5.0,0.5871736999997665,,,037,11,2025-01-16_16h34.20.782,Surprise recog test,2023.1.3,59.94801308346879,
