trial_loop.thisRepN,trial_loop.thisTrialN,trial_loop.thisN,trial_loop.thisIndex,VAS_slider.started,VAS_text.started,VAS_notstressed_text.started,VAS_stressed_text.started,continue_input.started,continue_text.started,label0.started,label10.started,label20.started,label30.started,label40.started,label50.started,label60.started,label70.started,label80.started,label90.started,label100.started,VAS_slider.response,VAS_slider.rt,VAS_slider.history,Answer_VAS,continue_input.keys,instruction_text.started,continue_text_2.started,continue_input_2.started,continue_input_2.keys,continue_input_2.rt,continue_input_2.duration,example_text.started,example_slider_2.started,example_image.started,example_slider_2.response,example_slider_2.rt,fixcross.started,fixcross.stopped,front_square.started,stim_images.started,trial_inst_images.started,slider_images.started,thisImg,trial_count,slider_images.response,slider_images.rt,slider_images.stopped,outro.started,participant,condition,date,expName,psychopyVersion,frameRate,
,,,,203.08875340002123,203.08875340002123,203.08875340002123,203.08875340002123,203.08875340002123,203.08875340002123,203.08875340002123,203.08875340002123,203.08875340002123,203.08875340002123,203.08875340002123,203.08875340002123,203.08875340002123,203.08875340002123,203.08875340002123,203.08875340002123,203.08875340002123,0.9722222222222221,20.208638199954294,"[(0.9722222222222221, 20.208638199954294)]",0.9722222222222221,None,,,,,,,,,,,,,,,,,,,,,,,,038,10,2025-01-23_16h03.26.623,Surprise recog test,2023.1.3,59.94186838000393,
,,,,,,,,,,,,,,,,,,,,,,,,,,223.33218770008534,223.33218770008534,223.33218770008534,space,24.71819159993902,None,,,,,,,,,,,,,,,,,,038,10,2025-01-23_16h03.26.623,Surprise recog test,2023.1.3,59.94186838000393,
0,0,0,0,,,,,,,,,,,,,,,,,,,,,,,,,,,,,248.1788813000312,248.1788813000312,248.1788813000312,4.0,14.637366999988444,267.9613848000299,268.97088130004704,263.78385730006266,263.78385730006266,263.78385730006266,263.78385730006266,old_stationery_35.png,1,2.0,4.182584000052884,,,038,10,2025-01-23_16h03.26.623,Surprise recog test,2023.1.3,59.94186838000393,
1,0,1,0,,,,,,,,,,,,,,,,,,,,,,,,,,,,,,,,,,273.97701100003906,,268.97088130004704,268.97088130004704,268.97088130004704,268.97088130004704,new_stationery_1.png,2,None,None,,,038,10,2025-01-23_16h03.26.623,Surprise recog test,2023.1.3,59.94186838000393,
2,0,2,0,,,,,,,,,,,,,,,,,,,,,,,,,,,,,,,,,,277.09005480003543,278.1070770000806,274.9909610999748,274.9909610999748,274.9909610999748,274.9909610999748,old_fruit_4.png,3,1.0,2.095117500051856,,,038,10,2025-01-23_16h03.26.623,Surprise recog test,2023.1.3,59.94186838000393,
3,0,3,0,,,,,,,,,,,,,,,,,,,,,,,,,,,,,,,,,,280.2734921000665,,278.1070770000806,278.1070770000806,278.1070770000806,278.1070770000806,new_fruit_27.png,4,2.0,2.162017799913883,,,038,10,2025-01-23_16h03.26.623,Surprise recog test,2023.1.3,59.94186838000393,
4,0,4,0,,,,,,,,,,,,,,,,,,,,,,,,,,,,,,,,,,284.0839873000514,285.11017820006236,281.3142253999831,281.3142253999831,281.3142253999831,281.3142253999831,old_stationery_22.png,5,4.0,2.7728061999659985,,,038,10,2025-01-23_16h03.26.623,Surprise recog test,2023.1.3,59.94186838000393,
5,0,5,0,,,,,,,,,,,,,,,,,,,,,,,,,,,,,,,,,,288.33656560000964,289.35509450000245,285.11017820006236,285.11017820006236,285.11017820006236,285.11017820006236,new_stationery_5.png,6,3.0,3.2278876999625936,,,038,10,2025-01-23_16h03.26.623,Surprise recog test,2023.1.3,59.94186838000393,
6,0,6,0,,,,,,,,,,,,,,,,,,,,,,,,,,,,,,,,,,291.24767499999143,292.26336360001005,289.35509450000245,289.35509450000245,289.35509450000245,289.35509450000245,new_stationery_44.png,7,5.0,1.8912367000011727,,,038,10,2025-01-23_16h03.26.623,Surprise recog test,2023.1.3,59.94186838000393,
7,0,7,0,,,,,,,,,,,,,,,,,,,,,,,,,,,,,,,,,,294.31053300003987,295.33875600004103,292.26336360001005,292.26336360001005,292.26336360001005,292.26336360001005,new_sceneIn_28.png,8,1.0,2.0457911000121385,,,038,10,2025-01-23_16h03.26.623,Surprise recog test,2023.1.3,59.94186838000393,
8,0,8,0,,,,,,,,,,,,,,,,,,,,,,,,,,,,,,,,,,297.91545149998274,298.92780689999927,295.33875600004103,295.33875600004103,295.33875600004103,295.33875600004103,old_sceneOut_25.png,9,2.0,2.58014610002283,,,038,10,2025-01-23_16h03.26.623,Surprise recog test,2023.1.3,59.94186838000393,
9,0,9,0,,,,,,,,,,,,,,,,,,,,,,,,,,,,,,,,,,300.70666250004433,301.73200920003,298.92780689999927,298.92780689999927,298.92780689999927,298.92780689999927,old_stationery_36.png,10,1.0,1.7731644000159577,,,038,10,2025-01-23_16h03.26.623,Surprise recog test,2023.1.3,59.94186838000393,
10,0,10,0,,,,,,,,,,,,,,,,,,,,,,,,,,,,,,,,,,303.82426959997974,304.8310825000517,301.73200920003,301.73200920003,301.73200920003,301.73200920003,new_stationery_27.png,11,5.0,2.091138199903071,,,038,10,2025-01-23_16h03.26.623,Surprise recog test,2023.1.3,59.94186838000393,
11,0,11,0,,,,,,,,,,,,,,,,,,,,,,,,,,,,,,,,,,307.02736770000774,308.0331100000767,304.8310825000517,304.8310825000517,304.8310825000517,304.8310825000517,old_sceneOut_5.png,12,1.0,2.190391600015573,,,038,10,2025-01-23_16h03.26.623,Surprise recog test,2023.1.3,59.94186838000393,
12,0,12,0,,,,,,,,,,,,,,,,,,,,,,,,,,,,,,,,,,310.32681360002607,311.34908970003016,308.0331100000767,308.0331100000767,308.0331100000767,308.0331100000767,old_sceneOut_24.png,13,2.0,2.2912711000535637,,,038,10,2025-01-23_16h03.26.623,Surprise recog test,2023.1.3,59.94186838000393,
13,0,13,0,,,,,,,,,,,,,,,,,,,,,,,,,,,,,,,,,,313.57954349997453,314.5958517000545,311.34908970003016,311.34908970003016,311.34908970003016,311.34908970003016,new_sceneIn_32.png,14,3.0,2.230714000063017,,,038,10,2025-01-23_16h03.26.623,Surprise recog test,2023.1.3,59.94186838000393,
14,0,14,0,,,,,,,,,,,,,,,,,,,,,,,,,,,,,,,,,,316.9583870000206,317.9763124000747,314.5958517000545,314.5958517000545,314.5958517000545,314.5958517000545,old_fruit_29.png,15,2.0,2.363193800090812,,,038,10,2025-01-23_16h03.26.623,Surprise recog test,2023.1.3,59.94186838000393,
15,0,15,0,,,,,,,,,,,,,,,,,,,,,,,,,,,,,,,,,,320.95503970002756,321.9749493000563,317.9763124000747,317.9763124000747,317.9763124000747,317.9763124000747,old_sceneOut_46.png,16,4.0,2.9740822999738157,,,038,10,2025-01-23_16h03.26.623,Surprise recog test,2023.1.3,59.94186838000393,
16,0,16,0,,,,,,,,,,,,,,,,,,,,,,,,,,,,,,,,,,324.37439989997074,325.38039409997873,321.9749493000563,321.9749493000563,321.9749493000563,321.9749493000563,old_sceneIn_16.png,17,5.0,2.4017128999112174,,,038,10,2025-01-23_16h03.26.623,Surprise recog test,2023.1.3,59.94186838000393,
17,0,17,0,,,,,,,,,,,,,,,,,,,,,,,,,,,,,,,,,,327.66672670003027,328.6844857999822,325.38039409997873,325.38039409997873,325.38039409997873,325.38039409997873,new_fruit_8.png,18,1.0,2.2798541999654844,,,038,10,2025-01-23_16h03.26.623,Surprise recog test,2023.1.3,59.94186838000393,
18,0,18,0,,,,,,,,,,,,,,,,,,,,,,,,,,,,,,,,,,332.394384299987,333.41769949998707,328.6844857999822,328.6844857999822,328.6844857999822,328.6844857999822,old_sceneOut_23.png,19,4.0,3.705054899910465,,,038,10,2025-01-23_16h03.26.623,Surprise recog test,2023.1.3,59.94186838000393,
19,0,19,0,,,,,,,,,,,,,,,,,,,,,,,,,,,,,,,,,,335.30507390003186,,333.41769949998707,333.41769949998707,333.41769949998707,333.41769949998707,old_fruit_9.png,20,3.0,1.889787400024943,,,038,10,2025-01-23_16h03.26.623,Surprise recog test,2023.1.3,59.94186838000393,
20,0,20,0,,,,,,,,,,,,,,,,,,,,,,,,,,,,,,,,,,337.94480940001085,338.9601042000577,336.3353966000723,336.3353966000723,336.3353966000723,336.3353966000723,old_stationery_12.png,21,4.0,1.6106887999922037,,,038,10,2025-01-23_16h03.26.623,Surprise recog test,2023.1.3,59.94186838000393,
21,0,21,0,,,,,,,,,,,,,,,,,,,,,,,,,,,,,,,,,,341.1687907000305,342.19808200001717,338.9601042000577,338.9601042000577,338.9601042000577,338.9601042000577,new_stationery_8.png,22,5.0,2.2036127999890596,,,038,10,2025-01-23_16h03.26.623,Surprise recog test,2023.1.3,59.94186838000393,
22,0,22,0,,,,,,,,,,,,,,,,,,,,,,,,,,,,,,,,,,344.50962010002695,345.5157444999786,342.19808200001717,342.19808200001717,342.19808200001717,342.19808200001717,old_stationery_18.png,23,4.0,2.3132653000066057,,,038,10,2025-01-23_16h03.26.623,Surprise recog test,2023.1.3,59.94186838000393,
23,0,23,0,,,,,,,,,,,,,,,,,,,,,,,,,,,,,,,,,,347.36828390008304,348.3854995999718,345.5157444999786,345.5157444999786,345.5157444999786,345.5157444999786,new_sceneIn_35.png,24,2.0,1.8483783999690786,,,038,10,2025-01-23_16h03.26.623,Surprise recog test,2023.1.3,59.94186838000393,
24,0,24,0,,,,,,,,,,,,,,,,,,,,,,,,,,,,,,,,,,350.5297553000273,351.5443310000701,348.3854995999718,348.3854995999718,348.3854995999718,348.3854995999718,new_sceneOut_47.png,25,4.0,2.135409399983473,,,038,10,2025-01-23_16h03.26.623,Surprise recog test,2023.1.3,59.94186838000393,
25,0,25,0,,,,,,,,,,,,,,,,,,,,,,,,,,,,,,,,,,353.4566470000427,354.47298600000795,351.5443310000701,351.5443310000701,351.5443310000701,351.5443310000701,new_sceneOut_18.png,26,5.0,1.910474200034514,,,038,10,2025-01-23_16h03.26.623,Surprise recog test,2023.1.3,59.94186838000393,
26,0,26,0,,,,,,,,,,,,,,,,,,,,,,,,,,,,,,,,,,356.24619219999295,357.27707760001067,354.47298600000795,354.47298600000795,354.47298600000795,354.47298600000795,old_sceneIn_20.png,27,1.0,1.767136099981144,,,038,10,2025-01-23_16h03.26.623,Surprise recog test,2023.1.3,59.94186838000393,
27,0,27,0,,,,,,,,,,,,,,,,,,,,,,,,,,,,,,,,,,359.3707029999932,360.3795050000772,357.27707760001067,357.27707760001067,357.27707760001067,357.27707760001067,old_fruit_16.png,28,1.0,2.0911400000331923,,,038,10,2025-01-23_16h03.26.623,Surprise recog test,2023.1.3,59.94186838000393,
28,0,28,0,,,,,,,,,,,,,,,,,,,,,,,,,,,,,,,,,,362.7282859000843,363.7600121999858,360.3795050000772,360.3795050000772,360.3795050000772,360.3795050000772,new_fruit_29.png,29,4.0,2.3455205999780446,,,038,10,2025-01-23_16h03.26.623,Surprise recog test,2023.1.3,59.94186838000393,
29,0,29,0,,,,,,,,,,,,,,,,,,,,,,,,,,,,,,,,,,365.92541190003976,366.9449884999776,363.7600121999858,363.7600121999858,363.7600121999858,363.7600121999858,new_fruit_12.png,30,2.0,2.1640598999802023,,,038,10,2025-01-23_16h03.26.623,Surprise recog test,2023.1.3,59.94186838000393,
30,0,30,0,,,,,,,,,,,,,,,,,,,,,,,,,,,,,,,,,,368.58655050001107,369.60533410008065,366.9449884999776,366.9449884999776,366.9449884999776,366.9449884999776,old_fruit_1.png,31,1.0,1.643044599913992,,,038,10,2025-01-23_16h03.26.623,Surprise recog test,2023.1.3,59.94186838000393,
31,0,31,0,,,,,,,,,,,,,,,,,,,,,,,,,,,,,,,,,,370.9328002000693,,369.60533410008065,369.60533410008065,369.60533410008065,369.60533410008065,old_fruit_7.png,32,1.0,1.3257987999822944,,,038,10,2025-01-23_16h03.26.623,Surprise recog test,2023.1.3,59.94186838000393,
32,0,32,0,,,,,,,,,,,,,,,,,,,,,,,,,,,,,,,,,,374.100513100042,375.11939020000864,371.9679817999713,371.9679817999713,371.9679817999713,371.9679817999713,new_sceneIn_39.png,33,4.0,2.1341492000501603,,,038,10,2025-01-23_16h03.26.623,Surprise recog test,2023.1.3,59.94186838000393,
33,0,33,0,,,,,,,,,,,,,,,,,,,,,,,,,,,,,,,,,,377.0384304000763,,375.11939020000864,375.11939020000864,375.11939020000864,375.11939020000864,old_stationery_45.png,34,3.0,1.9201412999536842,,,038,10,2025-01-23_16h03.26.623,Surprise recog test,2023.1.3,59.94186838000393,
34,0,34,0,,,,,,,,,,,,,,,,,,,,,,,,,,,,,,,,,,379.9334127000766,380.95880080002826,378.05911630007904,378.05911630007904,378.05911630007904,378.05911630007904,new_sceneOut_24.png,35,4.0,1.867792500066571,,,038,10,2025-01-23_16h03.26.623,Surprise recog test,2023.1.3,59.94186838000393,
35,0,35,0,,,,,,,,,,,,,,,,,,,,,,,,,,,,,,,,,,382.88319810002577,383.9101281000767,380.95880080002826,380.95880080002826,380.95880080002826,380.95880080002826,new_sceneIn_6.png,36,5.0,1.9264817000366747,,,038,10,2025-01-23_16h03.26.623,Surprise recog test,2023.1.3,59.94186838000393,
36,0,36,0,,,,,,,,,,,,,,,,,,,,,,,,,,,,,,,,,,385.2381765000755,386.2599726000335,383.9101281000767,383.9101281000767,383.9101281000767,383.9101281000767,new_fruit_45.png,37,2.0,1.329283499973826,,,038,10,2025-01-23_16h03.26.623,Surprise recog test,2023.1.3,59.94186838000393,
37,0,37,0,,,,,,,,,,,,,,,,,,,,,,,,,,,,,,,,,,387.68034630001057,,386.2599726000335,386.2599726000335,386.2599726000335,386.2599726000335,old_fruit_18.png,38,2.0,1.4212798998923972,,,038,10,2025-01-23_16h03.26.623,Surprise recog test,2023.1.3,59.94186838000393,
38,0,38,0,,,,,,,,,,,,,,,,,,,,,,,,,,,,,,,,,,390.1036727000028,391.1327167999698,388.71454840002116,388.71454840002116,388.71454840002116,388.71454840002116,old_fruit_14.png,39,1.0,1.3924537999555469,,,038,10,2025-01-23_16h03.26.623,Surprise recog test,2023.1.3,59.94186838000393,
39,0,39,0,,,,,,,,,,,,,,,,,,,,,,,,,,,,,,,,,,393.36872759996913,,391.1327167999698,391.1327167999698,391.1327167999698,391.1327167999698,old_sceneIn_26.png,40,5.0,2.238034199923277,,,038,10,2025-01-23_16h03.26.623,Surprise recog test,2023.1.3,59.94186838000393,
40,0,40,0,,,,,,,,,,,,,,,,,,,,,,,,,,,,,,,,,,396.4639362000162,397.47728210000787,394.3900254999753,394.3900254999753,394.3900254999753,394.3900254999753,new_sceneOut_46.png,41,4.0,2.0698609999381006,,,038,10,2025-01-23_16h03.26.623,Surprise recog test,2023.1.3,59.94186838000393,
41,0,41,0,,,,,,,,,,,,,,,,,,,,,,,,,,,,,,,,,,399.4208515000064,400.43903650005814,397.47728210000787,397.47728210000787,397.47728210000787,397.47728210000787,new_fruit_40.png,42,3.0,1.9369660000083968,,,038,10,2025-01-23_16h03.26.623,Surprise recog test,2023.1.3,59.94186838000393,
42,0,42,0,,,,,,,,,,,,,,,,,,,,,,,,,,,,,,,,,,401.90879010001663,,400.43903650005814,400.43903650005814,400.43903650005814,400.43903650005814,new_stationery_24.png,43,4.0,1.4718954999698326,,,038,10,2025-01-23_16h03.26.623,Surprise recog test,2023.1.3,59.94186838000393,
43,0,43,0,,,,,,,,,,,,,,,,,,,,,,,,,,,,,,,,,,404.9207887999946,405.93763210007455,402.93678840005305,402.93678840005305,402.93678840005305,402.93678840005305,new_stationery_43.png,44,1.0,1.984640899929218,,,038,10,2025-01-23_16h03.26.623,Surprise recog test,2023.1.3,59.94186838000393,
44,0,44,0,,,,,,,,,,,,,,,,,,,,,,,,,,,,,,,,,,407.7024738000473,408.72638780006673,405.93763210007455,405.93763210007455,405.93763210007455,405.93763210007455,new_sceneOut_40.png,45,5.0,1.7627771999686956,,,038,10,2025-01-23_16h03.26.623,Surprise recog test,2023.1.3,59.94186838000393,
45,0,45,0,,,,,,,,,,,,,,,,,,,,,,,,,,,,,,,,,,410.9857693000231,412.00285160006024,408.72638780006673,408.72638780006673,408.72638780006673,408.72638780006673,old_sceneIn_41.png,46,4.0,2.257102100062184,,,038,10,2025-01-23_16h03.26.623,Surprise recog test,2023.1.3,59.94186838000393,
46,0,46,0,,,,,,,,,,,,,,,,,,,,,,,,,,,,,,,,,,413.75930370006245,414.7858129000524,412.00285160006024,412.00285160006024,412.00285160006024,412.00285160006024,old_sceneOut_22.png,47,5.0,1.7520968000171706,,,038,10,2025-01-23_16h03.26.623,Surprise recog test,2023.1.3,59.94186838000393,
47,0,47,0,,,,,,,,,,,,,,,,,,,,,,,,,,,,,,,,,,418.09139990003314,419.1105739000486,414.7858129000524,414.7858129000524,414.7858129000524,414.7858129000524,old_sceneOut_8.png,48,3.0,3.298505499958992,,,038,10,2025-01-23_16h03.26.623,Surprise recog test,2023.1.3,59.94186838000393,
48,0,48,0,,,,,,,,,,,,,,,,,,,,,,,,,,,,,,,,,,421.4114033000078,422.4311151000438,419.1105739000486,419.1105739000486,419.1105739000486,419.1105739000486,old_sceneIn_7.png,49,5.0,2.296031999983825,,,038,10,2025-01-23_16h03.26.623,Surprise recog test,2023.1.3,59.94186838000393,
49,0,49,0,,,,,,,,,,,,,,,,,,,,,,,,,,,,,,,,,,424.31769589998294,425.33299949998036,422.4311151000438,422.4311151000438,422.4311151000438,422.4311151000438,old_fruit_28.png,50,1.0,1.882478200015612,,,038,10,2025-01-23_16h03.26.623,Surprise recog test,2023.1.3,59.94186838000393,
50,0,50,0,,,,,,,,,,,,,,,,,,,,,,,,,,,,,,,,,,427.2114719999954,428.22447340004146,425.33299949998036,425.33299949998036,425.33299949998036,425.33299949998036,new_sceneIn_10.png,51,4.0,1.8739091999595985,,,038,10,2025-01-23_16h03.26.623,Surprise recog test,2023.1.3,59.94186838000393,
51,0,51,0,,,,,,,,,,,,,,,,,,,,,,,,,,,,,,,,,,431.5646567000076,432.5839150000829,428.22447340004146,428.22447340004146,428.22447340004146,428.22447340004146,old_sceneIn_25.png,52,2.0,3.3402773999841884,,,038,10,2025-01-23_16h03.26.623,Surprise recog test,2023.1.3,59.94186838000393,
52,0,52,0,,,,,,,,,,,,,,,,,,,,,,,,,,,,,,,,,,434.1039034000132,,432.5839150000829,432.5839150000829,432.5839150000829,432.5839150000829,new_stationery_14.png,53,4.0,1.5178356000687927,,,038,10,2025-01-23_16h03.26.623,Surprise recog test,2023.1.3,59.94186838000393,
53,0,53,0,,,,,,,,,,,,,,,,,,,,,,,,,,,,,,,,,,436.5796098000137,437.6062931000488,435.1239607000025,435.1239607000025,435.1239607000025,435.1239607000025,new_fruit_46.png,54,3.0,1.45031480002217,,,038,10,2025-01-23_16h03.26.623,Surprise recog test,2023.1.3,59.94186838000393,
54,0,54,0,,,,,,,,,,,,,,,,,,,,,,,,,,,,,,,,,,439.5779533999739,440.6074335000012,437.6062931000488,437.6062931000488,437.6062931000488,437.6062931000488,new_stationery_28.png,55,4.0,1.973782500019297,,,038,10,2025-01-23_16h03.26.623,Surprise recog test,2023.1.3,59.94186838000393,
55,0,55,0,,,,,,,,,,,,,,,,,,,,,,,,,,,,,,,,,,442.74542330007534,443.76131630002055,440.6074335000012,440.6074335000012,440.6074335000012,440.6074335000012,old_sceneOut_29.png,56,4.0,2.1416093999287114,,,038,10,2025-01-23_16h03.26.623,Surprise recog test,2023.1.3,59.94186838000393,
56,0,56,0,,,,,,,,,,,,,,,,,,,,,,,,,,,,,,,,,,445.76747010007966,446.79529300006106,443.76131630002055,443.76131630002055,443.76131630002055,443.76131630002055,new_sceneOut_23.png,57,5.0,2.00153050001245,,,038,10,2025-01-23_16h03.26.623,Surprise recog test,2023.1.3,59.94186838000393,
57,0,57,0,,,,,,,,,,,,,,,,,,,,,,,,,,,,,,,,,,449.0265471000457,450.0467805999797,446.79529300006106,446.79529300006106,446.79529300006106,446.79529300006106,new_stationery_10.png,58,5.0,2.2341906999936327,,,038,10,2025-01-23_16h03.26.623,Surprise recog test,2023.1.3,59.94186838000393,
58,0,58,0,,,,,,,,,,,,,,,,,,,,,,,,,,,,,,,,,,452.9870488999877,454.00312920007855,450.0467805999797,450.0467805999797,450.0467805999797,450.0467805999797,new_fruit_47.png,59,5.0,2.9440940999193117,,,038,10,2025-01-23_16h03.26.623,Surprise recog test,2023.1.3,59.94186838000393,
59,0,59,0,,,,,,,,,,,,,,,,,,,,,,,,,,,,,,,,,,455.73349210002925,456.7434794000583,454.00312920007855,454.00312920007855,454.00312920007855,454.00312920007855,old_sceneOut_9.png,60,5.0,1.726543200085871,,,038,10,2025-01-23_16h03.26.623,Surprise recog test,2023.1.3,59.94186838000393,
60,0,60,0,,,,,,,,,,,,,,,,,,,,,,,,,,,,,,,,,,459.4844743000576,460.49888940004166,456.7434794000583,456.7434794000583,456.7434794000583,456.7434794000583,old_sceneIn_12.png,61,2.0,2.7366093000164255,,,038,10,2025-01-23_16h03.26.623,Surprise recog test,2023.1.3,59.94186838000393,
61,0,61,0,,,,,,,,,,,,,,,,,,,,,,,,,,,,,,,,,,461.9429892000044,,460.49888940004166,460.49888940004166,460.49888940004166,460.49888940004166,new_stationery_19.png,62,4.0,1.4437995000043884,,,038,10,2025-01-23_16h03.26.623,Surprise recog test,2023.1.3,59.94186838000393,
62,0,62,0,,,,,,,,,,,,,,,,,,,,,,,,,,,,,,,,,,464.45513600006234,465.47693680005614,462.97662420000415,462.97662420000415,462.97662420000415,462.97662420000415,old_fruit_15.png,63,1.0,1.4805493999738246,,,038,10,2025-01-23_16h03.26.623,Surprise recog test,2023.1.3,59.94186838000393,
63,0,63,0,,,,,,,,,,,,,,,,,,,,,,,,,,,,,,,,,,466.95234329998493,467.9723207000643,465.47693680005614,465.47693680005614,465.47693680005614,465.47693680005614,new_sceneOut_16.png,64,4.0,1.4770856000250205,,,038,10,2025-01-23_16h03.26.623,Surprise recog test,2023.1.3,59.94186838000393,
64,0,64,0,,,,,,,,,,,,,,,,,,,,,,,,,,,,,,,,,,470.443896300043,471.4506557000568,467.9723207000643,467.9723207000643,467.9723207000643,467.9723207000643,old_fruit_20.png,65,2.0,2.471473200013861,,,038,10,2025-01-23_16h03.26.623,Surprise recog test,2023.1.3,59.94186838000393,
65,0,65,0,,,,,,,,,,,,,,,,,,,,,,,,,,,,,,,,,,473.5502383999992,474.56676680000965,471.4506557000568,471.4506557000568,471.4506557000568,471.4506557000568,new_fruit_13.png,66,1.0,2.094117100001313,,,038,10,2025-01-23_16h03.26.623,Surprise recog test,2023.1.3,59.94186838000393,
66,0,66,0,,,,,,,,,,,,,,,,,,,,,,,,,,,,,,,,,,476.68958310002927,477.70987040002365,474.56676680000965,474.56676680000965,474.56676680000965,474.56676680000965,old_sceneOut_45.png,67,4.0,2.1245513999601826,,,038,10,2025-01-23_16h03.26.623,Surprise recog test,2023.1.3,59.94186838000393,
67,0,67,0,,,,,,,,,,,,,,,,,,,,,,,,,,,,,,,,,,479.8128133000573,480.8423537000781,477.70987040002365,477.70987040002365,477.70987040002365,477.70987040002365,old_stationery_40.png,68,2.0,2.0987752999644727,,,038,10,2025-01-23_16h03.26.623,Surprise recog test,2023.1.3,59.94186838000393,
68,0,68,0,,,,,,,,,,,,,,,,,,,,,,,,,,,,,,,,,,482.3337746000616,483.36064470000565,480.8423537000781,480.8423537000781,480.8423537000781,480.8423537000781,old_sceneIn_27.png,69,4.0,1.4917535000713542,,,038,10,2025-01-23_16h03.26.623,Surprise recog test,2023.1.3,59.94186838000393,
69,0,69,0,,,,,,,,,,,,,,,,,,,,,,,,,,,,,,,,,,484.61616259999573,485.64212630002294,483.36064470000565,483.36064470000565,483.36064470000565,483.36064470000565,new_fruit_31.png,70,1.0,1.257913500070572,,,038,10,2025-01-23_16h03.26.623,Surprise recog test,2023.1.3,59.94186838000393,
70,0,70,0,,,,,,,,,,,,,,,,,,,,,,,,,,,,,,,,,,487.40643380000256,488.4304774000775,485.64212630002294,485.64212630002294,485.64212630002294,485.64212630002294,new_stationery_11.png,71,3.0,1.7636030000867322,,,038,10,2025-01-23_16h03.26.623,Surprise recog test,2023.1.3,59.94186838000393,
71,0,71,0,,,,,,,,,,,,,,,,,,,,,,,,,,,,,,,,,,489.7233806999866,490.7477698000148,488.4304774000775,488.4304774000775,488.4304774000775,488.4304774000775,old_sceneOut_10.png,72,4.0,1.2938987000379711,,,038,10,2025-01-23_16h03.26.623,Surprise recog test,2023.1.3,59.94186838000393,
72,0,72,0,,,,,,,,,,,,,,,,,,,,,,,,,,,,,,,,,,492.0481182000367,493.0720428000204,490.7477698000148,490.7477698000148,490.7477698000148,490.7477698000148,new_stationery_37.png,73,4.0,1.3009294000221416,,,038,10,2025-01-23_16h03.26.623,Surprise recog test,2023.1.3,59.94186838000393,
73,0,73,0,,,,,,,,,,,,,,,,,,,,,,,,,,,,,,,,,,495.6709133000113,,493.0720428000204,493.0720428000204,493.0720428000204,493.0720428000204,old_sceneIn_43.png,74,2.0,2.597807200043462,,,038,10,2025-01-23_16h03.26.623,Surprise recog test,2023.1.3,59.94186838000393,
74,0,74,0,,,,,,,,,,,,,,,,,,,,,,,,,,,,,,,,,,498.6271014000522,499.6578869000077,496.70348110003397,496.70348110003397,496.70348110003397,496.70348110003397,new_sceneIn_24.png,75,2.0,1.9249413999496028,,,038,10,2025-01-23_16h03.26.623,Surprise recog test,2023.1.3,59.94186838000393,
75,0,75,0,,,,,,,,,,,,,,,,,,,,,,,,,,,,,,,,,,501.96045999997295,502.99542260007,499.6578869000077,499.6578869000077,499.6578869000077,499.6578869000077,new_sceneOut_7.png,76,4.0,2.302725899964571,,,038,10,2025-01-23_16h03.26.623,Surprise recog test,2023.1.3,59.94186838000393,
76,0,76,0,,,,,,,,,,,,,,,,,,,,,,,,,,,,,,,,,,504.16234580008313,505.1912344000302,502.99542260007,502.99542260007,502.99542260007,502.99542260007,old_sceneOut_32.png,77,4.0,1.1700264000101015,,,038,10,2025-01-23_16h03.26.623,Surprise recog test,2023.1.3,59.94186838000393,
77,0,77,0,,,,,,,,,,,,,,,,,,,,,,,,,,,,,,,,,,507.88650390005205,508.9124574000016,505.1912344000302,505.1912344000302,505.1912344000302,505.1912344000302,new_sceneIn_8.png,78,3.0,2.6968314999248832,,,038,10,2025-01-23_16h03.26.623,Surprise recog test,2023.1.3,59.94186838000393,
78,0,78,0,,,,,,,,,,,,,,,,,,,,,,,,,,,,,,,,,,511.7427329000784,512.7656240999931,508.9124574000016,508.9124574000016,508.9124574000016,508.9124574000016,old_sceneOut_1.png,79,2.0,2.831734300008975,,,038,10,2025-01-23_16h03.26.623,Surprise recog test,2023.1.3,59.94186838000393,
79,0,79,0,,,,,,,,,,,,,,,,,,,,,,,,,,,,,,,,,,514.3016545000719,,512.7656240999931,512.7656240999931,512.7656240999931,512.7656240999931,new_stationery_36.png,80,5.0,1.5351242000469938,,,038,10,2025-01-23_16h03.26.623,Surprise recog test,2023.1.3,59.94186838000393,
80,0,80,0,,,,,,,,,,,,,,,,,,,,,,,,,,,,,,,,,,518.6881284000119,,515.3234191000229,515.3234191000229,515.3234191000229,515.3234191000229,new_sceneOut_43.png,81,1.0,3.360346599947661,,,038,10,2025-01-23_16h03.26.623,Surprise recog test,2023.1.3,59.94186838000393,
81,0,81,0,,,,,,,,,,,,,,,,,,,,,,,,,,,,,,,,,,522.5740379000781,523.5777288000099,519.711038300069,519.711038300069,519.711038300069,519.711038300069,old_fruit_32.png,82,2.0,2.854841199936345,,,038,10,2025-01-23_16h03.26.623,Surprise recog test,2023.1.3,59.94186838000393,
82,0,82,0,,,,,,,,,,,,,,,,,,,,,,,,,,,,,,,,,,524.8005986000644,525.8282211000333,523.5777288000099,523.5777288000099,523.5777288000099,523.5777288000099,new_fruit_26.png,83,2.0,1.2171403999673203,,,038,10,2025-01-23_16h03.26.623,Surprise recog test,2023.1.3,59.94186838000393,
83,0,83,0,,,,,,,,,,,,,,,,,,,,,,,,,,,,,,,,,,527.9801310000475,,525.8282211000333,525.8282211000333,525.8282211000333,525.8282211000333,new_fruit_19.png,84,3.0,2.1509584999876097,,,038,10,2025-01-23_16h03.26.623,Surprise recog test,2023.1.3,59.94186838000393,
84,0,84,0,,,,,,,,,,,,,,,,,,,,,,,,,,,,,,,,,,532.0430471000727,533.0660585999722,529.0126202000538,529.0126202000538,529.0126202000538,529.0126202000538,old_sceneIn_33.png,85,4.0,3.032177499961108,,,038,10,2025-01-23_16h03.26.623,Surprise recog test,2023.1.3,59.94186838000393,
85,0,85,0,,,,,,,,,,,,,,,,,,,,,,,,,,,,,,,,,,534.7739554999862,535.7918841000646,533.0660585999722,533.0660585999722,533.0660585999722,533.0660585999722,old_sceneOut_4.png,86,4.0,1.7088609000202268,,,038,10,2025-01-23_16h03.26.623,Surprise recog test,2023.1.3,59.94186838000393,
86,0,86,0,,,,,,,,,,,,,,,,,,,,,,,,,,,,,,,,,,537.1263425999787,538.1572988000698,535.7918841000646,535.7918841000646,535.7918841000646,535.7918841000646,new_sceneOut_39.png,87,3.0,1.3283637999556959,,,038,10,2025-01-23_16h03.26.623,Surprise recog test,2023.1.3,59.94186838000393,
87,0,87,0,,,,,,,,,,,,,,,,,,,,,,,,,,,,,,,,,,539.6403153999709,,538.1572988000698,538.1572988000698,538.1572988000698,538.1572988000698,new_sceneIn_44.png,88,4.0,1.485609299968928,,,038,10,2025-01-23_16h03.26.623,Surprise recog test,2023.1.3,59.94186838000393,
88,0,88,0,,,,,,,,,,,,,,,,,,,,,,,,,,,,,,,,,,542.8002605000511,543.8275108999806,540.668477499974,540.668477499974,540.668477499974,540.668477499974,old_sceneIn_17.png,89,4.0,2.1326576999854296,,,038,10,2025-01-23_16h03.26.623,Surprise recog test,2023.1.3,59.94186838000393,
89,0,89,0,,,,,,,,,,,,,,,,,,,,,,,,,,,,,,,,,,546.2114798000548,,543.8275108999806,543.8275108999806,543.8275108999806,543.8275108999806,old_sceneIn_36.png,90,4.0,2.3876309000188485,,,038,10,2025-01-23_16h03.26.623,Surprise recog test,2023.1.3,59.94186838000393,
90,0,90,0,,,,,,,,,,,,,,,,,,,,,,,,,,,,,,,,,,548.9555514000822,549.9857038999908,547.2498112000758,547.2498112000758,547.2498112000758,547.2498112000758,old_stationery_31.png,91,5.0,1.7091946000000462,,,038,10,2025-01-23_16h03.26.623,Surprise recog test,2023.1.3,59.94186838000393,
91,0,91,0,,,,,,,,,,,,,,,,,,,,,,,,,,,,,,,,,,553.7251095999964,554.747581899981,549.9857038999908,549.9857038999908,549.9857038999908,549.9857038999908,new_fruit_3.png,92,2.0,3.7414222999941558,,,038,10,2025-01-23_16h03.26.623,Surprise recog test,2023.1.3,59.94186838000393,
92,0,92,0,,,,,,,,,,,,,,,,,,,,,,,,,,,,,,,,,,557.575752899982,558.6031246000202,554.747581899981,554.747581899981,554.747581899981,554.747581899981,old_sceneIn_45.png,93,2.0,2.8289452000753954,,,038,10,2025-01-23_16h03.26.623,Surprise recog test,2023.1.3,59.94186838000393,
93,0,93,0,,,,,,,,,,,,,,,,,,,,,,,,,,,,,,,,,,560.0272102999734,561.0575316000031,558.6031246000202,558.6031246000202,558.6031246000202,558.6031246000202,new_stationery_2.png,94,4.0,1.4256911999545991,,,038,10,2025-01-23_16h03.26.623,Surprise recog test,2023.1.3,59.94186838000393,
94,0,94,0,,,,,,,,,,,,,,,,,,,,,,,,,,,,,,,,,,563.1465508000692,564.1782476999797,561.0575316000031,561.0575316000031,561.0575316000031,561.0575316000031,old_stationery_25.png,95,3.0,2.0913290000753477,,,038,10,2025-01-23_16h03.26.623,Surprise recog test,2023.1.3,59.94186838000393,
95,0,95,0,,,,,,,,,,,,,,,,,,,,,,,,,,,,,,,,,,565.6212782000657,566.6308588000247,564.1782476999797,564.1782476999797,564.1782476999797,564.1782476999797,old_stationery_6.png,96,4.0,1.4433731000171974,,,038,10,2025-01-23_16h03.26.623,Surprise recog test,2023.1.3,59.94186838000393,
96,0,96,0,,,,,,,,,,,,,,,,,,,,,,,,,,,,,,,,,,568.219514700002,569.2414514999837,566.6308588000247,566.6308588000247,566.6308588000247,566.6308588000247,new_sceneOut_9.png,97,5.0,1.5841213000239804,,,038,10,2025-01-23_16h03.26.623,Surprise recog test,2023.1.3,59.94186838000393,
97,0,97,0,,,,,,,,,,,,,,,,,,,,,,,,,,,,,,,,,,570.9206103000324,571.9495263000717,569.2414514999837,569.2414514999837,569.2414514999837,569.2414514999837,new_sceneOut_41.png,98,4.0,1.6796844000928104,,,038,10,2025-01-23_16h03.26.623,Surprise recog test,2023.1.3,59.94186838000393,
98,0,98,0,,,,,,,,,,,,,,,,,,,,,,,,,,,,,,,,,,574.5026713000843,,571.9495263000717,571.9495263000717,571.9495263000717,571.9495263000717,old_stationery_46.png,99,4.0,2.555652800016105,,,038,10,2025-01-23_16h03.26.623,Surprise recog test,2023.1.3,59.94186838000393,
99,0,99,0,,,,,,,,,,,,,,,,,,,,,,,,,,,,,,,,,,577.5281792000169,578.5397420000518,575.5240925999824,575.5240925999824,575.5240925999824,575.5240925999824,new_sceneIn_48.png,100,3.0,1.997472499962896,,,038,10,2025-01-23_16h03.26.623,Surprise recog test,2023.1.3,59.94186838000393,
100,0,100,0,,,,,,,,,,,,,,,,,,,,,,,,,,,,,,,,,,580.0485003000358,581.0649699000642,578.5397420000518,578.5397420000518,578.5397420000518,578.5397420000518,new_fruit_9.png,101,2.0,1.5028137000044808,,,038,10,2025-01-23_16h03.26.623,Surprise recog test,2023.1.3,59.94186838000393,
101,0,101,0,,,,,,,,,,,,,,,,,,,,,,,,,,,,,,,,,,582.4603006000398,,581.0649699000642,581.0649699000642,581.0649699000642,581.0649699000642,new_stationery_32.png,102,4.0,1.388645299943164,,,038,10,2025-01-23_16h03.26.623,Surprise recog test,2023.1.3,59.94186838000393,
102,0,102,0,,,,,,,,,,,,,,,,,,,,,,,,,,,,,,,,,,584.5839157999726,585.6045815000543,583.4946151999757,583.4946151999757,583.4946151999757,583.4946151999757,new_sceneOut_42.png,103,4.0,1.0905664000893012,,,038,10,2025-01-23_16h03.26.623,Surprise recog test,2023.1.3,59.94186838000393,
103,0,103,0,,,,,,,,,,,,,,,,,,,,,,,,,,,,,,,,,,586.9167125000386,587.9447674000403,585.6045815000543,585.6045815000543,585.6045815000543,585.6045815000543,new_fruit_4.png,104,3.0,1.311439299955964,,,038,10,2025-01-23_16h03.26.623,Surprise recog test,2023.1.3,59.94186838000393,
104,0,104,0,,,,,,,,,,,,,,,,,,,,,,,,,,,,,,,,,,590.0918448000448,591.1164239000063,587.9447674000403,587.9447674000403,587.9447674000403,587.9447674000403,old_sceneIn_40.png,105,4.0,2.148086000001058,,,038,10,2025-01-23_16h03.26.623,Surprise recog test,2023.1.3,59.94186838000393,
105,0,105,0,,,,,,,,,,,,,,,,,,,,,,,,,,,,,,,,,,593.5802320999792,594.5899641000433,591.1164239000063,591.1164239000063,591.1164239000063,591.1164239000063,old_sceneOut_50.png,106,2.0,2.4636145000113174,,,038,10,2025-01-23_16h03.26.623,Surprise recog test,2023.1.3,59.94186838000393,
106,0,106,0,,,,,,,,,,,,,,,,,,,,,,,,,,,,,,,,,,596.0977803000715,597.1058650000487,594.5899641000433,594.5899641000433,594.5899641000433,594.5899641000433,new_stationery_35.png,107,2.0,1.5032593000214547,,,038,10,2025-01-23_16h03.26.623,Surprise recog test,2023.1.3,59.94186838000393,
107,0,107,0,,,,,,,,,,,,,,,,,,,,,,,,,,,,,,,,,,598.6380574000068,599.6609463000204,597.1058650000487,597.1058650000487,597.1058650000487,597.1058650000487,new_sceneIn_29.png,108,3.0,1.5282987999962643,,,038,10,2025-01-23_16h03.26.623,Surprise recog test,2023.1.3,59.94186838000393,
108,0,108,0,,,,,,,,,,,,,,,,,,,,,,,,,,,,,,,,,,600.7059572000289,601.7126360000111,599.6609463000204,599.6609463000204,599.6609463000204,599.6609463000204,new_sceneOut_17.png,109,3.0,1.049217600026168,,,038,10,2025-01-23_16h03.26.623,Surprise recog test,2023.1.3,59.94186838000393,
109,0,109,0,,,,,,,,,,,,,,,,,,,,,,,,,,,,,,,,,,603.7414979999885,604.7597156000556,601.7126360000111,601.7126360000111,601.7126360000111,601.7126360000111,new_sceneIn_11.png,110,3.0,2.026114400010556,,,038,10,2025-01-23_16h03.26.623,Surprise recog test,2023.1.3,59.94186838000393,
110,0,110,0,,,,,,,,,,,,,,,,,,,,,,,,,,,,,,,,,,606.0517538000131,607.067061400041,604.7597156000556,604.7597156000556,604.7597156000556,604.7597156000556,new_stationery_40.png,111,4.0,1.291899999952875,,,038,10,2025-01-23_16h03.26.623,Surprise recog test,2023.1.3,59.94186838000393,
111,0,111,0,,,,,,,,,,,,,,,,,,,,,,,,,,,,,,,,,,608.2574480000185,609.2800011000363,607.067061400041,607.067061400041,607.067061400041,607.067061400041,old_sceneOut_47.png,112,4.0,1.1834078000392765,,,038,10,2025-01-23_16h03.26.623,Surprise recog test,2023.1.3,59.94186838000393,
112,0,112,0,,,,,,,,,,,,,,,,,,,,,,,,,,,,,,,,,,610.2022501999745,611.2325815000804,609.2800011000363,609.2800011000363,609.2800011000363,609.2800011000363,old_stationery_10.png,113,4.0,0.9235856999875978,,,038,10,2025-01-23_16h03.26.623,Surprise recog test,2023.1.3,59.94186838000393,
113,0,113,0,,,,,,,,,,,,,,,,,,,,,,,,,,,,,,,,,,612.7413377000485,613.7663286000025,611.2325815000804,611.2325815000804,611.2325815000804,611.2325815000804,old_sceneIn_9.png,114,2.0,1.5092573000583798,,,038,10,2025-01-23_16h03.26.623,Surprise recog test,2023.1.3,59.94186838000393,
114,0,114,0,,,,,,,,,,,,,,,,,,,,,,,,,,,,,,,,,,616.2650063000619,617.2835900000064,613.7663286000025,613.7663286000025,613.7663286000025,613.7663286000025,old_sceneIn_14.png,115,1.0,2.4975410000188276,,,038,10,2025-01-23_16h03.26.623,Surprise recog test,2023.1.3,59.94186838000393,
115,0,115,0,,,,,,,,,,,,,,,,,,,,,,,,,,,,,,,,,,619.1311287999852,620.144953400013,617.2835900000064,617.2835900000064,617.2835900000064,617.2835900000064,new_sceneOut_25.png,116,4.0,1.8430583999725059,,,038,10,2025-01-23_16h03.26.623,Surprise recog test,2023.1.3,59.94186838000393,
116,0,116,0,,,,,,,,,,,,,,,,,,,,,,,,,,,,,,,,,,621.2033332000719,622.2145197000355,620.144953400013,620.144953400013,620.144953400013,620.144953400013,old_stationery_17.png,117,4.0,1.0533313999185339,,,038,10,2025-01-23_16h03.26.623,Surprise recog test,2023.1.3,59.94186838000393,
117,0,117,0,,,,,,,,,,,,,,,,,,,,,,,,,,,,,,,,,,622.8898873999715,623.9118817000417,622.2145197000355,622.2145197000355,622.2145197000355,622.2145197000355,old_sceneOut_12.png,118,4.0,0.6671135000651702,,,038,10,2025-01-23_16h03.26.623,Surprise recog test,2023.1.3,59.94186838000393,
118,0,118,0,,,,,,,,,,,,,,,,,,,,,,,,,,,,,,,,,,625.6793457000749,,623.9118817000417,623.9118817000417,623.9118817000417,623.9118817000417,new_stationery_33.png,119,3.0,1.767486899974756,,,038,10,2025-01-23_16h03.26.623,Surprise recog test,2023.1.3,59.94186838000393,
119,0,119,0,,,,,,,,,,,,,,,,,,,,,,,,,,,,,,,,,,628.3930011000484,629.4143852000125,626.6998847000068,626.6998847000068,626.6998847000068,626.6998847000068,old_sceneIn_32.png,120,2.0,1.6888027000240982,,,038,10,2025-01-23_16h03.26.623,Surprise recog test,2023.1.3,59.94186838000393,
120,0,120,0,,,,,,,,,,,,,,,,,,,,,,,,,,,,,,,,,,631.1613811000716,632.183228500071,629.4143852000125,629.4143852000125,629.4143852000125,629.4143852000125,new_stationery_17.png,121,1.0,1.748557799961418,,,038,10,2025-01-23_16h03.26.623,Surprise recog test,2023.1.3,59.94186838000393,
121,0,121,0,,,,,,,,,,,,,,,,,,,,,,,,,,,,,,,,,,633.7816202000249,634.8041206999915,632.183228500071,632.183228500071,632.183228500071,632.183228500071,old_sceneOut_14.png,122,4.0,1.6001389999873936,,,038,10,2025-01-23_16h03.26.623,Surprise recog test,2023.1.3,59.94186838000393,
122,0,122,0,,,,,,,,,,,,,,,,,,,,,,,,,,,,,,,,,,636.4473640000215,637.4588718999876,634.8041206999915,634.8041206999915,634.8041206999915,634.8041206999915,old_stationery_44.png,123,1.0,1.6451428000582382,,,038,10,2025-01-23_16h03.26.623,Surprise recog test,2023.1.3,59.94186838000393,
123,0,123,0,,,,,,,,,,,,,,,,,,,,,,,,,,,,,,,,,,639.1512316999724,640.1734752000775,637.4588718999876,637.4588718999876,637.4588718999876,637.4588718999876,old_sceneOut_19.png,124,5.0,1.6856751999584958,,,038,10,2025-01-23_16h03.26.623,Surprise recog test,2023.1.3,59.94186838000393,
124,0,124,0,,,,,,,,,,,,,,,,,,,,,,,,,,,,,,,,,,641.7592529000249,,640.1734752000775,640.1734752000775,640.1734752000775,640.1734752000775,new_fruit_44.png,125,3.0,1.585768699995242,,,038,10,2025-01-23_16h03.26.623,Surprise recog test,2023.1.3,59.94186838000393,
125,0,125,0,,,,,,,,,,,,,,,,,,,,,,,,,,,,,,,,,,644.5999833000824,645.6133711000439,642.7916188000236,642.7916188000236,642.7916188000236,642.7916188000236,old_sceneIn_47.png,126,4.0,1.8104770000791177,,,038,10,2025-01-23_16h03.26.623,Surprise recog test,2023.1.3,59.94186838000393,
126,0,126,0,,,,,,,,,,,,,,,,,,,,,,,,,,,,,,,,,,647.6898864000104,648.7101768000284,645.6133711000439,645.6133711000439,645.6133711000439,645.6133711000439,old_stationery_34.png,127,3.0,2.072660000063479,,,038,10,2025-01-23_16h03.26.623,Surprise recog test,2023.1.3,59.94186838000393,
127,0,127,0,,,,,,,,,,,,,,,,,,,,,,,,,,,,,,,,,,650.3383582000388,651.3652845000615,648.7101768000284,648.7101768000284,648.7101768000284,648.7101768000284,new_sceneIn_37.png,128,4.0,1.6245794999413192,,,038,10,2025-01-23_16h03.26.623,Surprise recog test,2023.1.3,59.94186838000393,
128,0,128,0,,,,,,,,,,,,,,,,,,,,,,,,,,,,,,,,,,653.4824094000505,654.5095514999703,651.3652845000615,651.3652845000615,651.3652845000615,651.3652845000615,new_fruit_20.png,129,2.0,2.1189396999543533,,,038,10,2025-01-23_16h03.26.623,Surprise recog test,2023.1.3,59.94186838000393,
129,0,129,0,,,,,,,,,,,,,,,,,,,,,,,,,,,,,,,,,,657.4116066000424,658.4345763999736,654.5095514999703,654.5095514999703,654.5095514999703,654.5095514999703,old_sceneOut_41.png,130,4.0,2.9046934000216424,,,038,10,2025-01-23_16h03.26.623,Surprise recog test,2023.1.3,59.94186838000393,
130,0,130,0,,,,,,,,,,,,,,,,,,,,,,,,,,,,,,,,,,659.8338859999785,660.8576887000818,658.4345763999736,658.4345763999736,658.4345763999736,658.4345763999736,old_stationery_26.png,131,4.0,1.3972037000348791,,,038,10,2025-01-23_16h03.26.623,Surprise recog test,2023.1.3,59.94186838000393,
131,0,131,0,,,,,,,,,,,,,,,,,,,,,,,,,,,,,,,,,,661.7409880000632,,660.8576887000818,660.8576887000818,660.8576887000818,660.8576887000818,old_stationery_24.png,132,4.0,0.8844500000122935,,,038,10,2025-01-23_16h03.26.623,Surprise recog test,2023.1.3,59.94186838000393,
132,0,132,0,,,,,,,,,,,,,,,,,,,,,,,,,,,,,,,,,,664.7503139000619,665.7644513000268,662.7730036000721,662.7730036000721,662.7730036000721,662.7730036000721,new_sceneIn_15.png,133,3.0,1.9788719000061974,,,038,10,2025-01-23_16h03.26.623,Surprise recog test,2023.1.3,59.94186838000393,
133,0,133,0,,,,,,,,,,,,,,,,,,,,,,,,,,,,,,,,,,667.4978154000128,668.5252000000328,665.7644513000268,665.7644513000268,665.7644513000268,665.7644513000268,new_fruit_24.png,134,4.0,1.7295539999613538,,,038,10,2025-01-23_16h03.26.623,Surprise recog test,2023.1.3,59.94186838000393,
134,0,134,0,,,,,,,,,,,,,,,,,,,,,,,,,,,,,,,,,,670.6859634000575,671.7049154000124,668.5252000000328,668.5252000000328,668.5252000000328,668.5252000000328,new_fruit_18.png,135,2.0,2.1610022999811918,,,038,10,2025-01-23_16h03.26.623,Surprise recog test,2023.1.3,59.94186838000393,
135,0,135,0,,,,,,,,,,,,,,,,,,,,,,,,,,,,,,,,,,672.9063194000628,673.9361268000212,671.7049154000124,671.7049154000124,671.7049154000124,671.7049154000124,new_sceneOut_13.png,136,4.0,1.1971680000424385,,,038,10,2025-01-23_16h03.26.623,Surprise recog test,2023.1.3,59.94186838000393,
136,0,136,0,,,,,,,,,,,,,,,,,,,,,,,,,,,,,,,,,,676.3110811000224,677.3381133000366,673.9361268000212,673.9361268000212,673.9361268000212,673.9361268000212,old_sceneIn_15.png,137,2.0,2.373236699961126,,,038,10,2025-01-23_16h03.26.623,Surprise recog test,2023.1.3,59.94186838000393,
137,0,137,0,,,,,,,,,,,,,,,,,,,,,,,,,,,,,,,,,,679.0551378000528,,677.3381133000366,677.3381133000366,677.3381133000366,677.3381133000366,old_sceneIn_44.png,138,3.0,1.7161072000162676,,,038,10,2025-01-23_16h03.26.623,Surprise recog test,2023.1.3,59.94186838000393,
138,0,138,0,,,,,,,,,,,,,,,,,,,,,,,,,,,,,,,,,,682.8020067000762,683.8248178000795,680.0868967999704,680.0868967999704,680.0868967999704,680.0868967999704,old_stationery_15.png,139,3.0,2.716098799952306,,,038,10,2025-01-23_16h03.26.623,Surprise recog test,2023.1.3,59.94186838000393,
139,0,139,0,,,,,,,,,,,,,,,,,,,,,,,,,,,,,,,,,,685.1101216999814,,683.8248178000795,683.8248178000795,683.8248178000795,683.8248178000795,new_sceneIn_14.png,140,4.0,1.282739800051786,,,038,10,2025-01-23_16h03.26.623,Surprise recog test,2023.1.3,59.94186838000393,
140,0,140,0,,,,,,,,,,,,,,,,,,,,,,,,,,,,,,,,,,688.0523224000353,689.0828256000532,686.1321940000635,686.1321940000635,686.1321940000635,686.1321940000635,old_fruit_40.png,141,1.0,1.9122145998990163,,,038,10,2025-01-23_16h03.26.623,Surprise recog test,2023.1.3,59.94186838000393,
141,0,141,0,,,,,,,,,,,,,,,,,,,,,,,,,,,,,,,,,,691.3170205000788,,689.0828256000532,689.0828256000532,689.0828256000532,689.0828256000532,old_sceneOut_38.png,142,4.0,2.2361203000182286,,,038,10,2025-01-23_16h03.26.623,Surprise recog test,2023.1.3,59.94186838000393,
142,0,142,0,,,,,,,,,,,,,,,,,,,,,,,,,,,,,,,,,,694.2756005000556,695.2913469000487,692.3458806000417,692.3458806000417,692.3458806000417,692.3458806000417,old_sceneIn_49.png,143,3.0,1.929513500072062,,,038,10,2025-01-23_16h03.26.623,Surprise recog test,2023.1.3,59.94186838000393,
143,0,143,0,,,,,,,,,,,,,,,,,,,,,,,,,,,,,,,,,,696.7944706000853,697.8214787000325,695.2913469000487,695.2913469000487,695.2913469000487,695.2913469000487,old_stationery_3.png,144,5.0,1.496390699991025,,,038,10,2025-01-23_16h03.26.623,Surprise recog test,2023.1.3,59.94186838000393,
144,0,144,0,,,,,,,,,,,,,,,,,,,,,,,,,,,,,,,,,,699.488961199997,,697.8214787000325,697.8214787000325,697.8214787000325,697.8214787000325,old_fruit_45.png,145,1.0,1.669233899912797,,,038,10,2025-01-23_16h03.26.623,Surprise recog test,2023.1.3,59.94186838000393,
145,0,145,0,,,,,,,,,,,,,,,,,,,,,,,,,,,,,,,,,,702.0247702000197,,700.5282755000517,700.5282755000517,700.5282755000517,700.5282755000517,new_sceneIn_47.png,146,4.0,1.4998389000538737,,,038,10,2025-01-23_16h03.26.623,Surprise recog test,2023.1.3,59.94186838000393,
146,0,146,0,,,,,,,,,,,,,,,,,,,,,,,,,,,,,,,,,,704.509436900029,,703.0573983000359,703.0573983000359,703.0573983000359,703.0573983000359,new_sceneIn_18.png,147,4.0,1.4513454000698403,,,038,10,2025-01-23_16h03.26.623,Surprise recog test,2023.1.3,59.94186838000393,
147,0,147,0,,,,,,,,,,,,,,,,,,,,,,,,,,,,,,,,,,707.803069000016,708.8271321000066,705.535862000077,705.535862000077,705.535862000077,705.535862000077,new_sceneIn_19.png,148,4.0,2.2651082000229508,,,038,10,2025-01-23_16h03.26.623,Surprise recog test,2023.1.3,59.94186838000393,
148,0,148,0,,,,,,,,,,,,,,,,,,,,,,,,,,,,,,,,,,710.264431299991,,708.8271321000066,708.8271321000066,708.8271321000066,708.8271321000066,new_sceneOut_14.png,149,4.0,1.4352627999614924,,,038,10,2025-01-23_16h03.26.623,Surprise recog test,2023.1.3,59.94186838000393,
149,0,149,0,,,,,,,,,,,,,,,,,,,,,,,,,,,,,,,,,,712.8249760000035,713.8403612000402,711.2864294999745,711.2864294999745,711.2864294999745,711.2864294999745,new_fruit_48.png,150,3.0,1.5331881999736652,,,038,10,2025-01-23_16h03.26.623,Surprise recog test,2023.1.3,59.94186838000393,
150,0,150,0,,,,,,,,,,,,,,,,,,,,,,,,,,,,,,,,,,715.4461032000836,716.4545110000763,713.8403612000402,713.8403612000402,713.8403612000402,713.8403612000402,old_fruit_11.png,151,1.0,1.5993907999945804,,,038,10,2025-01-23_16h03.26.623,Surprise recog test,2023.1.3,59.94186838000393,
151,0,151,0,,,,,,,,,,,,,,,,,,,,,,,,,,,,,,,,,,718.8374867000384,719.855468200054,716.4545110000763,716.4545110000763,716.4545110000763,716.4545110000763,new_sceneOut_34.png,152,4.0,2.377773300046101,,,038,10,2025-01-23_16h03.26.623,Surprise recog test,2023.1.3,59.94186838000393,
152,0,152,0,,,,,,,,,,,,,,,,,,,,,,,,,,,,,,,,,,721.2183420000365,722.2373487000586,719.855468200054,719.855468200054,719.855468200054,719.855468200054,new_sceneIn_9.png,153,4.0,1.3621069999644533,,,038,10,2025-01-23_16h03.26.623,Surprise recog test,2023.1.3,59.94186838000393,
153,0,153,0,,,,,,,,,,,,,,,,,,,,,,,,,,,,,,,,,,724.8346178000793,725.8582383000758,722.2373487000586,722.2373487000586,722.2373487000586,722.2373487000586,new_sceneIn_1.png,154,4.0,2.5979291000403464,,,038,10,2025-01-23_16h03.26.623,Surprise recog test,2023.1.3,59.94186838000393,
154,0,154,0,,,,,,,,,,,,,,,,,,,,,,,,,,,,,,,,,,727.6539935000474,728.6803014000179,725.8582383000758,725.8582383000758,725.8582383000758,725.8582383000758,old_sceneIn_6.png,155,1.0,1.7958823000080884,,,038,10,2025-01-23_16h03.26.623,Surprise recog test,2023.1.3,59.94186838000393,
155,0,155,0,,,,,,,,,,,,,,,,,,,,,,,,,,,,,,,,,,730.1177381000016,731.1523275000509,728.6803014000179,728.6803014000179,728.6803014000179,728.6803014000179,new_sceneOut_30.png,156,3.0,1.436804800061509,,,038,10,2025-01-23_16h03.26.623,Surprise recog test,2023.1.3,59.94186838000393,
156,0,156,0,,,,,,,,,,,,,,,,,,,,,,,,,,,,,,,,,,732.9117350999732,733.9342455000151,731.1523275000509,731.1523275000509,731.1523275000509,731.1523275000509,new_sceneOut_4.png,157,1.0,1.758964099921286,,,038,10,2025-01-23_16h03.26.623,Surprise recog test,2023.1.3,59.94186838000393,
157,0,157,0,,,,,,,,,,,,,,,,,,,,,,,,,,,,,,,,,,736.3112238000613,737.3256135000847,733.9342455000151,733.9342455000151,733.9342455000151,733.9342455000151,old_sceneOut_11.png,158,3.0,2.378652499988675,,,038,10,2025-01-23_16h03.26.623,Surprise recog test,2023.1.3,59.94186838000393,
158,0,158,0,,,,,,,,,,,,,,,,,,,,,,,,,,,,,,,,,,738.8526836000383,739.871652700007,737.3256135000847,737.3256135000847,737.3256135000847,737.3256135000847,new_sceneIn_17.png,159,5.0,1.5206207999726757,,,038,10,2025-01-23_16h03.26.623,Surprise recog test,2023.1.3,59.94186838000393,
159,0,159,0,,,,,,,,,,,,,,,,,,,,,,,,,,,,,,,,,,741.2996557999868,742.3262323000235,739.871652700007,739.871652700007,739.871652700007,739.871652700007,old_fruit_8.png,160,1.0,1.4288278999738395,,,038,10,2025-01-23_16h03.26.623,Surprise recog test,2023.1.3,59.94186838000393,
160,0,160,0,,,,,,,,,,,,,,,,,,,,,,,,,,,,,,,,,,744.7645894000307,745.798916800064,742.3262323000235,742.3262323000235,742.3262323000235,742.3262323000235,new_sceneIn_12.png,161,4.0,2.439167600008659,,,038,10,2025-01-23_16h03.26.623,Surprise recog test,2023.1.3,59.94186838000393,
161,0,161,0,,,,,,,,,,,,,,,,,,,,,,,,,,,,,,,,,,747.599431800074,748.6272653000196,745.798916800064,745.798916800064,745.798916800064,745.798916800064,old_stationery_4.png,162,3.0,1.8055929000256583,,,038,10,2025-01-23_16h03.26.623,Surprise recog test,2023.1.3,59.94186838000393,
162,0,162,0,,,,,,,,,,,,,,,,,,,,,,,,,,,,,,,,,,749.8254191000015,750.8574442000827,748.6272653000196,748.6272653000196,748.6272653000196,748.6272653000196,old_sceneOut_2.png,163,4.0,1.200190500007011,,,038,10,2025-01-23_16h03.26.623,Surprise recog test,2023.1.3,59.94186838000393,
163,0,163,0,,,,,,,,,,,,,,,,,,,,,,,,,,,,,,,,,,753.0314914999763,754.0436740000732,750.8574442000827,750.8574442000827,750.8574442000827,750.8574442000827,old_fruit_2.png,164,1.0,2.1756585999391973,,,038,10,2025-01-23_16h03.26.623,Surprise recog test,2023.1.3,59.94186838000393,
164,0,164,0,,,,,,,,,,,,,,,,,,,,,,,,,,,,,,,,,,755.8522201000014,,754.0436740000732,754.0436740000732,754.0436740000732,754.0436740000732,new_stationery_15.png,165,4.0,1.8087130000349134,,,038,10,2025-01-23_16h03.26.623,Surprise recog test,2023.1.3,59.94186838000393,
165,0,165,0,,,,,,,,,,,,,,,,,,,,,,,,,,,,,,,,,,758.1089558000676,759.1279729000526,756.877939100028,756.877939100028,756.877939100028,756.877939100028,old_fruit_30.png,166,2.0,1.2302745000924915,,,038,10,2025-01-23_16h03.26.623,Surprise recog test,2023.1.3,59.94186838000393,
166,0,166,0,,,,,,,,,,,,,,,,,,,,,,,,,,,,,,,,,,760.8623608000344,761.8915225000819,759.1279729000526,759.1279729000526,759.1279729000526,759.1279729000526,new_sceneIn_16.png,167,4.0,1.7301270000170916,,,038,10,2025-01-23_16h03.26.623,Surprise recog test,2023.1.3,59.94186838000393,
167,0,167,0,,,,,,,,,,,,,,,,,,,,,,,,,,,,,,,,,,763.1827807000373,764.1982241000514,761.8915225000819,761.8915225000819,761.8915225000819,761.8915225000819,new_sceneIn_20.png,168,4.0,1.2908527000108734,,,038,10,2025-01-23_16h03.26.623,Surprise recog test,2023.1.3,59.94186838000393,
168,0,168,0,,,,,,,,,,,,,,,,,,,,,,,,,,,,,,,,,,765.5244075000519,766.5390729000792,764.1982241000514,764.1982241000514,764.1982241000514,764.1982241000514,old_sceneIn_21.png,169,4.0,1.318816200015135,,,038,10,2025-01-23_16h03.26.623,Surprise recog test,2023.1.3,59.94186838000393,
169,0,169,0,,,,,,,,,,,,,,,,,,,,,,,,,,,,,,,,,,768.4068898999831,769.432578100008,766.5390729000792,766.5390729000792,766.5390729000792,766.5390729000792,old_sceneIn_13.png,170,4.0,1.868279799935408,,,038,10,2025-01-23_16h03.26.623,Surprise recog test,2023.1.3,59.94186838000393,
170,0,170,0,,,,,,,,,,,,,,,,,,,,,,,,,,,,,,,,,,771.07638340001,772.0849389000796,769.432578100008,769.432578100008,769.432578100008,769.432578100008,new_stationery_29.png,171,5.0,1.6464947001077235,,,038,10,2025-01-23_16h03.26.623,Surprise recog test,2023.1.3,59.94186838000393,
171,0,171,0,,,,,,,,,,,,,,,,,,,,,,,,,,,,,,,,,,773.4608503000345,774.4859221000224,772.0849389000796,772.0849389000796,772.0849389000796,772.0849389000796,old_fruit_33.png,172,1.0,1.371053000097163,,,038,10,2025-01-23_16h03.26.623,Surprise recog test,2023.1.3,59.94186838000393,
172,0,172,0,,,,,,,,,,,,,,,,,,,,,,,,,,,,,,,,,,775.9439495999832,776.9645873000845,774.4859221000224,774.4859221000224,774.4859221000224,774.4859221000224,new_stationery_6.png,173,4.0,1.4592756000347435,,,038,10,2025-01-23_16h03.26.623,Surprise recog test,2023.1.3,59.94186838000393,
173,0,173,0,,,,,,,,,,,,,,,,,,,,,,,,,,,,,,,,,,777.9648342999863,778.9766694999998,776.9645873000845,776.9645873000845,776.9645873000845,776.9645873000845,new_sceneIn_3.png,174,4.0,1.0001527999993414,,,038,10,2025-01-23_16h03.26.623,Surprise recog test,2023.1.3,59.94186838000393,
174,0,174,0,,,,,,,,,,,,,,,,,,,,,,,,,,,,,,,,,,781.3498785999836,782.3744796999963,778.9766694999998,778.9766694999998,778.9766694999998,778.9766694999998,old_stationery_43.png,175,3.0,2.3676545000635087,,,038,10,2025-01-23_16h03.26.623,Surprise recog test,2023.1.3,59.94186838000393,
175,0,175,0,,,,,,,,,,,,,,,,,,,,,,,,,,,,,,,,,,783.8123226000462,784.8316688999766,782.3744796999963,782.3744796999963,782.3744796999963,782.3744796999963,new_stationery_18.png,176,4.0,1.438942400040105,,,038,10,2025-01-23_16h03.26.623,Surprise recog test,2023.1.3,59.94186838000393,
176,0,176,0,,,,,,,,,,,,,,,,,,,,,,,,,,,,,,,,,,787.5989247000543,788.6191955000395,784.8316688999766,784.8316688999766,784.8316688999766,784.8316688999766,old_stationery_39.png,177,3.0,2.7619218999752775,,,038,10,2025-01-23_16h03.26.623,Surprise recog test,2023.1.3,59.94186838000393,
177,0,177,0,,,,,,,,,,,,,,,,,,,,,,,,,,,,,,,,,,790.2245647000382,791.236195000005,788.6191955000395,788.6191955000395,788.6191955000395,788.6191955000395,old_fruit_27.png,178,2.0,1.6010935999220237,,,038,10,2025-01-23_16h03.26.623,Surprise recog test,2023.1.3,59.94186838000393,
178,0,178,0,,,,,,,,,,,,,,,,,,,,,,,,,,,,,,,,,,792.8112728999695,793.822803499992,791.236195000005,791.236195000005,791.236195000005,791.236195000005,old_stationery_2.png,179,3.0,1.5685984999872744,,,038,10,2025-01-23_16h03.26.623,Surprise recog test,2023.1.3,59.94186838000393,
179,0,179,0,,,,,,,,,,,,,,,,,,,,,,,,,,,,,,,,,,795.551905100001,,793.822803499992,793.822803499992,793.822803499992,793.822803499992,old_sceneOut_20.png,180,5.0,1.7217869999585673,,,038,10,2025-01-23_16h03.26.623,Surprise recog test,2023.1.3,59.94186838000393,
180,0,180,0,,,,,,,,,,,,,,,,,,,,,,,,,,,,,,,,,,798.1208444000222,,796.5852650000015,796.5852650000015,796.5852650000015,796.5852650000015,new_stationery_16.png,181,5.0,1.5372874999884516,,,038,10,2025-01-23_16h03.26.623,Surprise recog test,2023.1.3,59.94186838000393,
181,0,181,0,,,,,,,,,,,,,,,,,,,,,,,,,,,,,,,,,,800.8234158999985,,799.1570830000564,799.1570830000564,799.1570830000564,799.1570830000564,old_fruit_42.png,182,1.0,1.6704244000138715,,,038,10,2025-01-23_16h03.26.623,Surprise recog test,2023.1.3,59.94186838000393,
182,0,182,0,,,,,,,,,,,,,,,,,,,,,,,,,,,,,,,,,,803.61585260008,804.644059900078,801.8574416000629,801.8574416000629,801.8574416000629,801.8574416000629,old_fruit_3.png,183,1.0,1.7613254999741912,,,038,10,2025-01-23_16h03.26.623,Surprise recog test,2023.1.3,59.94186838000393,
183,0,183,0,,,,,,,,,,,,,,,,,,,,,,,,,,,,,,,,,,806.4426625000779,807.4463783000829,804.644059900078,804.644059900078,804.644059900078,804.644059900078,old_sceneOut_6.png,184,2.0,1.7998220000881702,,,038,10,2025-01-23_16h03.26.623,Surprise recog test,2023.1.3,59.94186838000393,
184,0,184,0,,,,,,,,,,,,,,,,,,,,,,,,,,,,,,,,,,809.8950320000295,810.9024000000209,807.4463783000829,807.4463783000829,807.4463783000829,807.4463783000829,new_sceneOut_19.png,185,4.0,2.4430636999895796,,,038,10,2025-01-23_16h03.26.623,Surprise recog test,2023.1.3,59.94186838000393,
185,0,185,0,,,,,,,,,,,,,,,,,,,,,,,,,,,,,,,,,,811.9487231000094,812.9663126000669,810.9024000000209,810.9024000000209,810.9024000000209,810.9024000000209,old_sceneOut_42.png,186,4.0,1.0395138000603765,,,038,10,2025-01-23_16h03.26.623,Surprise recog test,2023.1.3,59.94186838000393,
186,0,186,0,,,,,,,,,,,,,,,,,,,,,,,,,,,,,,,,,,816.0903376999777,817.1047384999692,812.9663126000669,812.9663126000669,812.9663126000669,812.9663126000669,old_stationery_48.png,187,1.0,3.125283299945295,,,038,10,2025-01-23_16h03.26.623,Surprise recog test,2023.1.3,59.94186838000393,
187,0,187,0,,,,,,,,,,,,,,,,,,,,,,,,,,,,,,,,,,818.6775931000011,819.6940502000507,817.1047384999692,817.1047384999692,817.1047384999692,817.1047384999692,new_sceneIn_4.png,188,4.0,1.566382099990733,,,038,10,2025-01-23_16h03.26.623,Surprise recog test,2023.1.3,59.94186838000393,
188,0,188,0,,,,,,,,,,,,,,,,,,,,,,,,,,,,,,,,,,822.5486539000412,823.5804718000581,819.6940502000507,819.6940502000507,819.6940502000507,819.6940502000507,new_fruit_37.png,189,2.0,2.848836100078188,,,038,10,2025-01-23_16h03.26.623,Surprise recog test,2023.1.3,59.94186838000393,
189,0,189,0,,,,,,,,,,,,,,,,,,,,,,,,,,,,,,,,,,824.6804047999904,825.7106510000303,823.5804718000581,823.5804718000581,823.5804718000581,823.5804718000581,old_fruit_12.png,190,2.0,1.1042671999894083,,,038,10,2025-01-23_16h03.26.623,Surprise recog test,2023.1.3,59.94186838000393,
190,0,190,0,,,,,,,,,,,,,,,,,,,,,,,,,,,,,,,,,,828.210250300006,829.2149176000385,825.7106510000303,825.7106510000303,825.7106510000303,825.7106510000303,old_sceneIn_2.png,191,3.0,2.4949174999492243,,,038,10,2025-01-23_16h03.26.623,Surprise recog test,2023.1.3,59.94186838000393,
191,0,191,0,,,,,,,,,,,,,,,,,,,,,,,,,,,,,,,,,,830.4787257000571,831.4879549000179,829.2149176000385,829.2149176000385,829.2149176000385,829.2149176000385,old_sceneOut_44.png,192,4.0,1.2538642000872642,,,038,10,2025-01-23_16h03.26.623,Surprise recog test,2023.1.3,59.94186838000393,
192,0,192,0,,,,,,,,,,,,,,,,,,,,,,,,,,,,,,,,,,833.2454569999827,834.2560451000463,831.4879549000179,831.4879549000179,831.4879549000179,831.4879549000179,old_sceneIn_23.png,193,3.0,1.7544868999393657,,,038,10,2025-01-23_16h03.26.623,Surprise recog test,2023.1.3,59.94186838000393,
193,0,193,0,,,,,,,,,,,,,,,,,,,,,,,,,,,,,,,,,,835.6500098999823,836.6543137000408,834.2560451000463,834.2560451000463,834.2560451000463,834.2560451000463,old_stationery_41.png,194,4.0,1.3868043000111356,,,038,10,2025-01-23_16h03.26.623,Surprise recog test,2023.1.3,59.94186838000393,
194,0,194,0,,,,,,,,,,,,,,,,,,,,,,,,,,,,,,,,,,837.9565907000797,838.9883285000687,836.6543137000408,836.6543137000408,836.6543137000408,836.6543137000408,old_sceneIn_34.png,195,4.0,1.2974503999575973,,,038,10,2025-01-23_16h03.26.623,Surprise recog test,2023.1.3,59.94186838000393,
195,0,195,0,,,,,,,,,,,,,,,,,,,,,,,,,,,,,,,,,,841.4046242000768,842.4217898000497,838.9883285000687,838.9883285000687,838.9883285000687,838.9883285000687,old_stationery_28.png,196,4.0,2.4165745000354946,,,038,10,2025-01-23_16h03.26.623,Surprise recog test,2023.1.3,59.94186838000393,
196,0,196,0,,,,,,,,,,,,,,,,,,,,,,,,,,,,,,,,,,843.619159599999,844.631015400053,842.4217898000497,842.4217898000497,842.4217898000497,842.4217898000497,new_sceneOut_35.png,197,4.0,1.1997164000058547,,,038,10,2025-01-23_16h03.26.623,Surprise recog test,2023.1.3,59.94186838000393,
197,0,197,0,,,,,,,,,,,,,,,,,,,,,,,,,,,,,,,,,,847.4947339000646,848.5038693000097,844.631015400053,844.631015400053,844.631015400053,844.631015400053,new_fruit_1.png,198,2.0,2.858633100055158,,,038,10,2025-01-23_16h03.26.623,Surprise recog test,2023.1.3,59.94186838000393,
198,0,198,0,,,,,,,,,,,,,,,,,,,,,,,,,,,,,,,,,,850.1236753000412,851.1369179000612,848.5038693000097,848.5038693000097,848.5038693000097,848.5038693000097,old_fruit_6.png,199,3.0,1.615320600103587,,,038,10,2025-01-23_16h03.26.623,Surprise recog test,2023.1.3,59.94186838000393,
199,0,199,0,,,,,,,,,,,,,,,,,,,,,,,,,,,,,,,,,,852.7227357000811,853.7505863000406,851.1369179000612,851.1369179000612,851.1369179000612,851.1369179000612,new_fruit_6.png,200,2.0,1.580752499983646,,,038,10,2025-01-23_16h03.26.623,Surprise recog test,2023.1.3,59.94186838000393,
200,0,200,0,,,,,,,,,,,,,,,,,,,,,,,,,,,,,,,,,,855.6830103000393,856.6975296000019,853.7505863000406,853.7505863000406,853.7505863000406,853.7505863000406,new_sceneIn_38.png,201,2.0,1.9295797999948263,,,038,10,2025-01-23_16h03.26.623,Surprise recog test,2023.1.3,59.94186838000393,
201,0,201,0,,,,,,,,,,,,,,,,,,,,,,,,,,,,,,,,,,858.0672096000053,859.0838404999813,856.6975296000019,856.6975296000019,856.6975296000019,856.6975296000019,old_stationery_37.png,202,4.0,1.36907869996503,,,038,10,2025-01-23_16h03.26.623,Surprise recog test,2023.1.3,59.94186838000393,
202,0,202,0,,,,,,,,,,,,,,,,,,,,,,,,,,,,,,,,,,860.1281360000139,861.1451479999814,859.0838404999813,859.0838404999813,859.0838404999813,859.0838404999813,new_stationery_48.png,203,4.0,1.0458478999789804,,,038,10,2025-01-23_16h03.26.623,Surprise recog test,2023.1.3,59.94186838000393,
203,0,203,0,,,,,,,,,,,,,,,,,,,,,,,,,,,,,,,,,,861.8694817000069,862.8851741000544,861.1451479999814,861.1451479999814,861.1451479999814,861.1451479999814,old_sceneIn_30.png,204,4.0,0.7176118999486789,,,038,10,2025-01-23_16h03.26.623,Surprise recog test,2023.1.3,59.94186838000393,
204,0,204,0,,,,,,,,,,,,,,,,,,,,,,,,,,,,,,,,,,863.9573285999941,864.9786801000591,862.8851741000544,862.8851741000544,862.8851741000544,862.8851741000544,new_sceneIn_34.png,205,4.0,1.0708301999839023,,,038,10,2025-01-23_16h03.26.623,Surprise recog test,2023.1.3,59.94186838000393,
205,0,205,0,,,,,,,,,,,,,,,,,,,,,,,,,,,,,,,,,,866.4673936000327,867.4894310000818,864.9786801000591,864.9786801000591,864.9786801000591,864.9786801000591,old_stationery_50.png,206,1.0,1.4908856000984088,,,038,10,2025-01-23_16h03.26.623,Surprise recog test,2023.1.3,59.94186838000393,
206,0,206,0,,,,,,,,,,,,,,,,,,,,,,,,,,,,,,,,,,868.6615622000536,869.6795923999744,867.4894310000818,867.4894310000818,867.4894310000818,867.4894310000818,old_stationery_23.png,207,4.0,1.17062019999139,,,038,10,2025-01-23_16h03.26.623,Surprise recog test,2023.1.3,59.94186838000393,
207,0,207,0,,,,,,,,,,,,,,,,,,,,,,,,,,,,,,,,,,870.9246796000516,871.9515528000193,869.6795923999744,869.6795923999744,869.6795923999744,869.6795923999744,new_sceneIn_5.png,208,4.0,1.2451628999551758,,,038,10,2025-01-23_16h03.26.623,Surprise recog test,2023.1.3,59.94186838000393,
208,0,208,0,,,,,,,,,,,,,,,,,,,,,,,,,,,,,,,,,,873.346149799996,874.3679913000669,871.9515528000193,871.9515528000193,871.9515528000193,871.9515528000193,new_fruit_11.png,209,2.0,1.394974400056526,,,038,10,2025-01-23_16h03.26.623,Surprise recog test,2023.1.3,59.94186838000393,
209,0,209,0,,,,,,,,,,,,,,,,,,,,,,,,,,,,,,,,,,875.4483380999882,876.4619566000765,874.3679913000669,874.3679913000669,874.3679913000669,874.3679913000669,new_sceneOut_8.png,210,4.0,1.082519800052978,,,038,10,2025-01-23_16h03.26.623,Surprise recog test,2023.1.3,59.94186838000393,
210,0,210,0,,,,,,,,,,,,,,,,,,,,,,,,,,,,,,,,,,878.8993983999826,879.915108300047,876.4619566000765,876.4619566000765,876.4619566000765,876.4619566000765,old_sceneOut_15.png,211,3.0,2.437364700017497,,,038,10,2025-01-23_16h03.26.623,Surprise recog test,2023.1.3,59.94186838000393,
211,0,211,0,,,,,,,,,,,,,,,,,,,,,,,,,,,,,,,,,,881.2492154000793,882.2641796000535,879.915108300047,879.915108300047,879.915108300047,879.915108300047,new_fruit_14.png,212,2.0,1.3342309000436217,,,038,10,2025-01-23_16h03.26.623,Surprise recog test,2023.1.3,59.94186838000393,
212,0,212,0,,,,,,,,,,,,,,,,,,,,,,,,,,,,,,,,,,883.3418562000152,,882.2641796000535,882.2641796000535,882.2641796000535,882.2641796000535,new_sceneIn_25.png,213,4.0,1.072711699991487,,,038,10,2025-01-23_16h03.26.623,Surprise recog test,2023.1.3,59.94186838000393,
213,0,213,0,,,,,,,,,,,,,,,,,,,,,,,,,,,,,,,,,,885.0831522999797,886.0991353000281,884.3803768000798,884.3803768000798,884.3803768000798,884.3803768000798,new_sceneOut_28.png,214,4.0,0.7046522999880835,,,038,10,2025-01-23_16h03.26.623,Surprise recog test,2023.1.3,59.94186838000393,
214,0,214,0,,,,,,,,,,,,,,,,,,,,,,,,,,,,,,,,,,888.6734574000584,889.7059975999873,886.0991353000281,886.0991353000281,886.0991353000281,886.0991353000281,old_fruit_35.png,215,3.0,2.5696586000267416,,,038,10,2025-01-23_16h03.26.623,Surprise recog test,2023.1.3,59.94186838000393,
215,0,215,0,,,,,,,,,,,,,,,,,,,,,,,,,,,,,,,,,,891.0519261000445,892.0668112999992,889.7059975999873,889.7059975999873,889.7059975999873,889.7059975999873,old_fruit_21.png,216,3.0,1.3451072999741882,,,038,10,2025-01-23_16h03.26.623,Surprise recog test,2023.1.3,59.94186838000393,
216,0,216,0,,,,,,,,,,,,,,,,,,,,,,,,,,,,,,,,,,893.2560411000159,894.2901438000845,892.0668112999992,892.0668112999992,892.0668112999992,892.0668112999992,old_stationery_21.png,217,4.0,1.1850777000654489,,,038,10,2025-01-23_16h03.26.623,Surprise recog test,2023.1.3,59.94186838000393,
217,0,217,0,,,,,,,,,,,,,,,,,,,,,,,,,,,,,,,,,,895.8749984999886,896.8971368999919,894.2901438000845,894.2901438000845,894.2901438000845,894.2901438000845,old_fruit_17.png,218,1.0,1.584383900044486,,,038,10,2025-01-23_16h03.26.623,Surprise recog test,2023.1.3,59.94186838000393,
218,0,218,0,,,,,,,,,,,,,,,,,,,,,,,,,,,,,,,,,,899.4777615000494,900.5128037000541,896.8971368999919,896.8971368999919,896.8971368999919,896.8971368999919,old_fruit_43.png,219,2.0,2.5769380999263376,,,038,10,2025-01-23_16h03.26.623,Surprise recog test,2023.1.3,59.94186838000393,
219,0,219,0,,,,,,,,,,,,,,,,,,,,,,,,,,,,,,,,,,901.952717200038,902.9725435000146,900.5128037000541,900.5128037000541,900.5128037000541,900.5128037000541,new_fruit_43.png,220,5.0,1.4455899000167847,,,038,10,2025-01-23_16h03.26.623,Surprise recog test,2023.1.3,59.94186838000393,
220,0,220,0,,,,,,,,,,,,,,,,,,,,,,,,,,,,,,,,,,904.112835100037,905.1420242000604,902.9725435000146,902.9725435000146,902.9725435000146,902.9725435000146,old_sceneIn_24.png,221,5.0,1.1422006000066176,,,038,10,2025-01-23_16h03.26.623,Surprise recog test,2023.1.3,59.94186838000393,
221,0,221,0,,,,,,,,,,,,,,,,,,,,,,,,,,,,,,,,,,906.4944395000348,,905.1420242000604,905.1420242000604,905.1420242000604,905.1420242000604,old_sceneIn_37.png,222,5.0,1.352314900024794,,,038,10,2025-01-23_16h03.26.623,Surprise recog test,2023.1.3,59.94186838000393,
222,0,222,0,,,,,,,,,,,,,,,,,,,,,,,,,,,,,,,,,,909.2477358999895,,907.51591070008,907.51591070008,907.51591070008,907.51591070008,new_stationery_42.png,223,4.0,1.7279437000397593,,,038,10,2025-01-23_16h03.26.623,Surprise recog test,2023.1.3,59.94186838000393,
223,0,223,0,,,,,,,,,,,,,,,,,,,,,,,,,,,,,,,,,,911.9108402000275,912.9394649000606,910.2686537000118,910.2686537000118,910.2686537000118,910.2686537000118,new_stationery_50.png,224,5.0,1.637358000036329,,,038,10,2025-01-23_16h03.26.623,Surprise recog test,2023.1.3,59.94186838000393,
224,0,224,0,,,,,,,,,,,,,,,,,,,,,,,,,,,,,,,,,,914.5123000000603,915.5398130000103,912.9394649000606,912.9394649000606,912.9394649000606,912.9394649000606,new_sceneOut_15.png,225,5.0,1.5756665000226349,,,038,10,2025-01-23_16h03.26.623,Surprise recog test,2023.1.3,59.94186838000393,
225,0,225,0,,,,,,,,,,,,,,,,,,,,,,,,,,,,,,,,,,917.1352618000237,918.1540812000167,915.5398130000103,915.5398130000103,915.5398130000103,915.5398130000103,old_sceneOut_37.png,226,4.0,1.5972180999815464,,,038,10,2025-01-23_16h03.26.623,Surprise recog test,2023.1.3,59.94186838000393,
226,0,226,0,,,,,,,,,,,,,,,,,,,,,,,,,,,,,,,,,,920.1169722999912,921.1410815999843,918.1540812000167,918.1540812000167,918.1540812000167,918.1540812000167,new_fruit_5.png,227,2.0,1.9638450000202283,,,038,10,2025-01-23_16h03.26.623,Surprise recog test,2023.1.3,59.94186838000393,
227,0,227,0,,,,,,,,,,,,,,,,,,,,,,,,,,,,,,,,,,923.0146716000745,924.0485806000652,921.1410815999843,921.1410815999843,921.1410815999843,921.1410815999843,new_sceneOut_11.png,228,4.0,1.8732830999651924,,,038,10,2025-01-23_16h03.26.623,Surprise recog test,2023.1.3,59.94186838000393,
228,0,228,0,,,,,,,,,,,,,,,,,,,,,,,,,,,,,,,,,,926.6965882000513,,924.0485806000652,924.0485806000652,924.0485806000652,924.0485806000652,old_sceneIn_46.png,229,4.0,2.6509237000718713,,,038,10,2025-01-23_16h03.26.623,Surprise recog test,2023.1.3,59.94186838000393,
229,0,229,0,,,,,,,,,,,,,,,,,,,,,,,,,,,,,,,,,,929.2933473000303,930.3226094000274,927.7129220999777,927.7129220999777,927.7129220999777,927.7129220999777,new_sceneIn_50.png,230,4.0,1.5736193999182433,,,038,10,2025-01-23_16h03.26.623,Surprise recog test,2023.1.3,59.94186838000393,
230,0,230,0,,,,,,,,,,,,,,,,,,,,,,,,,,,,,,,,,,930.9751443000278,931.9856567999814,930.3226094000274,930.3226094000274,930.3226094000274,930.3226094000274,old_sceneOut_13.png,231,4.0,0.6545666999882087,,,038,10,2025-01-23_16h03.26.623,Surprise recog test,2023.1.3,59.94186838000393,
231,0,231,0,,,,,,,,,,,,,,,,,,,,,,,,,,,,,,,,,,933.7276157999877,934.7360392999835,931.9856567999814,931.9856567999814,931.9856567999814,931.9856567999814,old_fruit_31.png,232,2.0,1.7357320999726653,,,038,10,2025-01-23_16h03.26.623,Surprise recog test,2023.1.3,59.94186838000393,
232,0,232,0,,,,,,,,,,,,,,,,,,,,,,,,,,,,,,,,,,936.4256001000758,937.4571423999732,934.7360392999835,934.7360392999835,934.7360392999835,934.7360392999835,old_fruit_39.png,233,2.0,1.6854779000859708,,,038,10,2025-01-23_16h03.26.623,Surprise recog test,2023.1.3,59.94186838000393,
233,0,233,0,,,,,,,,,,,,,,,,,,,,,,,,,,,,,,,,,,940.0054853999754,,937.4571423999732,937.4571423999732,937.4571423999732,937.4571423999732,old_sceneOut_28.png,234,4.0,2.547720800037496,,,038,10,2025-01-23_16h03.26.623,Surprise recog test,2023.1.3,59.94186838000393,
234,0,234,0,,,,,,,,,,,,,,,,,,,,,,,,,,,,,,,,,,942.3551216999767,943.3638215999817,941.0401057000272,941.0401057000272,941.0401057000272,941.0401057000272,new_stationery_47.png,235,4.0,1.3173450999893248,,,038,10,2025-01-23_16h03.26.623,Surprise recog test,2023.1.3,59.94186838000393,
235,0,235,0,,,,,,,,,,,,,,,,,,,,,,,,,,,,,,,,,,944.3614771000575,945.3949375000084,943.3638215999817,943.3638215999817,943.3638215999817,943.3638215999817,new_stationery_41.png,236,4.0,0.9926517999265343,,,038,10,2025-01-23_16h03.26.623,Surprise recog test,2023.1.3,59.94186838000393,
236,0,236,0,,,,,,,,,,,,,,,,,,,,,,,,,,,,,,,,,,946.1781082000816,,945.3949375000084,945.3949375000084,945.3949375000084,945.3949375000084,old_sceneOut_48.png,237,4.0,0.7857912000035867,,,038,10,2025-01-23_16h03.26.623,Surprise recog test,2023.1.3,59.94186838000393,
237,0,237,0,,,,,,,,,,,,,,,,,,,,,,,,,,,,,,,,,,949.7148648999864,,947.2146036999766,947.2146036999766,947.2146036999766,947.2146036999766,old_sceneIn_50.png,238,3.0,2.503936899942346,,,038,10,2025-01-23_16h03.26.623,Surprise recog test,2023.1.3,59.94186838000393,
238,0,238,0,,,,,,,,,,,,,,,,,,,,,,,,,,,,,,,,,,952.0560688000405,953.0846056999872,950.7359479999868,950.7359479999868,950.7359479999868,950.7359479999868,new_sceneOut_44.png,239,4.0,1.3151001000078395,,,038,10,2025-01-23_16h03.26.623,Surprise recog test,2023.1.3,59.94186838000393,
239,0,239,0,,,,,,,,,,,,,,,,,,,,,,,,,,,,,,,,,,954.7016808000626,,953.0846056999872,953.0846056999872,953.0846056999872,953.0846056999872,old_sceneIn_5.png,240,4.0,1.6166813999880105,,,038,10,2025-01-23_16h03.26.623,Surprise recog test,2023.1.3,59.94186838000393,
240,0,240,0,,,,,,,,,,,,,,,,,,,,,,,,,,,,,,,,,,958.4937131999759,959.5230716000078,955.733508400037,955.733508400037,955.733508400037,955.733508400037,old_fruit_37.png,241,3.0,2.7617776000406593,,,038,10,2025-01-23_16h03.26.623,Surprise recog test,2023.1.3,59.94186838000393,
241,0,241,0,,,,,,,,,,,,,,,,,,,,,,,,,,,,,,,,,,960.7209854000248,961.7359842000296,959.5230716000078,959.5230716000078,959.5230716000078,959.5230716000078,old_sceneIn_22.png,242,4.0,1.1994262000080198,,,038,10,2025-01-23_16h03.26.623,Surprise recog test,2023.1.3,59.94186838000393,
242,0,242,0,,,,,,,,,,,,,,,,,,,,,,,,,,,,,,,,,,963.9029969000258,964.9229503000388,961.7359842000296,961.7359842000296,961.7359842000296,961.7359842000296,old_stationery_9.png,243,1.0,2.1643743000458926,,,038,10,2025-01-23_16h03.26.623,Surprise recog test,2023.1.3,59.94186838000393,
243,0,243,0,,,,,,,,,,,,,,,,,,,,,,,,,,,,,,,,,,966.76690529997,967.7924159000395,964.9229503000388,964.9229503000388,964.9229503000388,964.9229503000388,new_fruit_30.png,244,2.0,1.8465919999871403,,,038,10,2025-01-23_16h03.26.623,Surprise recog test,2023.1.3,59.94186838000393,
244,0,244,0,,,,,,,,,,,,,,,,,,,,,,,,,,,,,,,,,,969.3666913000634,970.3821706000017,967.7924159000395,967.7924159000395,967.7924159000395,967.7924159000395,new_sceneOut_5.png,245,4.0,1.572361099999398,,,038,10,2025-01-23_16h03.26.623,Surprise recog test,2023.1.3,59.94186838000393,
245,0,245,0,,,,,,,,,,,,,,,,,,,,,,,,,,,,,,,,,,972.86591459997,,970.3821706000017,970.3821706000017,970.3821706000017,970.3821706000017,old_fruit_49.png,246,1.0,2.477467600023374,,,038,10,2025-01-23_16h03.26.623,Surprise recog test,2023.1.3,59.94186838000393,
246,0,246,0,,,,,,,,,,,,,,,,,,,,,,,,,,,,,,,,,,976.1654628000688,977.1743931000819,973.8869885000167,973.8869885000167,973.8869885000167,973.8869885000167,old_sceneOut_35.png,247,3.0,2.2731332998955622,,,038,10,2025-01-23_16h03.26.623,Surprise recog test,2023.1.3,59.94186838000393,
247,0,247,0,,,,,,,,,,,,,,,,,,,,,,,,,,,,,,,,,,978.7305167000741,979.7536008000607,977.1743931000819,977.1743931000819,977.1743931000819,977.1743931000819,new_stationery_30.png,248,4.0,1.5516664000460878,,,038,10,2025-01-23_16h03.26.623,Surprise recog test,2023.1.3,59.94186838000393,
248,0,248,0,,,,,,,,,,,,,,,,,,,,,,,,,,,,,,,,,,982.0472205000697,983.0747618000023,979.7536008000607,979.7536008000607,979.7536008000607,979.7536008000607,new_sceneOut_3.png,249,4.0,2.293309099972248,,,038,10,2025-01-23_16h03.26.623,Surprise recog test,2023.1.3,59.94186838000393,
249,0,249,0,,,,,,,,,,,,,,,,,,,,,,,,,,,,,,,,,,984.5031133000739,985.5279123000801,983.0747618000023,983.0747618000023,983.0747618000023,983.0747618000023,old_sceneOut_31.png,250,3.0,1.4313393000047654,,,038,10,2025-01-23_16h03.26.623,Surprise recog test,2023.1.3,59.94186838000393,
250,0,250,0,,,,,,,,,,,,,,,,,,,,,,,,,,,,,,,,,,987.1095976000652,988.1208797000581,985.5279123000801,985.5279123000801,985.5279123000801,985.5279123000801,new_sceneOut_27.png,251,4.0,1.5802441000705585,,,038,10,2025-01-23_16h03.26.623,Surprise recog test,2023.1.3,59.94186838000393,
251,0,251,0,,,,,,,,,,,,,,,,,,,,,,,,,,,,,,,,,,989.7298235000344,,988.1208797000581,988.1208797000581,988.1208797000581,988.1208797000581,new_stationery_45.png,252,5.0,1.6095074999611825,,,038,10,2025-01-23_16h03.26.623,Surprise recog test,2023.1.3,59.94186838000393,
252,0,252,0,,,,,,,,,,,,,,,,,,,,,,,,,,,,,,,,,,991.5343554000137,992.5674709000159,990.75237500004,990.75237500004,990.75237500004,990.75237500004,new_sceneOut_49.png,253,5.0,0.7776552999857813,,,038,10,2025-01-23_16h03.26.623,Surprise recog test,2023.1.3,59.94186838000393,
253,0,253,0,,,,,,,,,,,,,,,,,,,,,,,,,,,,,,,,,,994.4016269000713,,992.5674709000159,992.5674709000159,992.5674709000159,992.5674709000159,old_fruit_22.png,254,2.0,1.8355590000282973,,,038,10,2025-01-23_16h03.26.623,Surprise recog test,2023.1.3,59.94186838000393,
254,0,254,0,,,,,,,,,,,,,,,,,,,,,,,,,,,,,,,,,,996.5820750000421,997.6004405000713,995.4297656000126,995.4297656000126,995.4297656000126,995.4297656000126,new_sceneIn_36.png,255,4.0,1.1532340999692678,,,038,10,2025-01-23_16h03.26.623,Surprise recog test,2023.1.3,59.94186838000393,
255,0,255,0,,,,,,,,,,,,,,,,,,,,,,,,,,,,,,,,,,998.9912171000615,1000.0111181000248,997.6004405000713,997.6004405000713,997.6004405000713,997.6004405000713,old_stationery_38.png,256,3.0,1.3944529999280348,,,038,10,2025-01-23_16h03.26.623,Surprise recog test,2023.1.3,59.94186838000393,
256,0,256,0,,,,,,,,,,,,,,,,,,,,,,,,,,,,,,,,,,1001.5280766000506,1002.5518556999741,1000.0111181000248,1000.0111181000248,1000.0111181000248,1000.0111181000248,new_sceneIn_41.png,257,2.0,1.5126043000491336,,,038,10,2025-01-23_16h03.26.623,Surprise recog test,2023.1.3,59.94186838000393,
257,0,257,0,,,,,,,,,,,,,,,,,,,,,,,,,,,,,,,,,,1004.4481723000063,1005.4851947000716,1002.5518556999741,1002.5518556999741,1002.5518556999741,1002.5518556999741,new_stationery_49.png,258,3.0,1.894098800024949,,,038,10,2025-01-23_16h03.26.623,Surprise recog test,2023.1.3,59.94186838000393,
258,0,258,0,,,,,,,,,,,,,,,,,,,,,,,,,,,,,,,,,,1006.7086404999718,1007.7313271000749,1005.4851947000716,1005.4851947000716,1005.4851947000716,1005.4851947000716,new_stationery_20.png,259,4.0,1.226869500009343,,,038,10,2025-01-23_16h03.26.623,Surprise recog test,2023.1.3,59.94186838000393,
259,0,259,0,,,,,,,,,,,,,,,,,,,,,,,,,,,,,,,,,,1008.6148695000447,1009.6485351000447,1007.7313271000749,1007.7313271000749,1007.7313271000749,1007.7313271000749,old_sceneOut_27.png,260,4.0,0.885449199937284,,,038,10,2025-01-23_16h03.26.623,Surprise recog test,2023.1.3,59.94186838000393,
260,0,260,0,,,,,,,,,,,,,,,,,,,,,,,,,,,,,,,,,,1011.4004966000794,1012.4344944000477,1009.6485351000447,1009.6485351000447,1009.6485351000447,1009.6485351000447,old_stationery_42.png,261,2.0,1.7519937000470236,,,038,10,2025-01-23_16h03.26.623,Surprise recog test,2023.1.3,59.94186838000393,
261,0,261,0,,,,,,,,,,,,,,,,,,,,,,,,,,,,,,,,,,1015.0091494000517,1016.0360214000102,1012.4344944000477,1012.4344944000477,1012.4344944000477,1012.4344944000477,new_sceneIn_42.png,262,4.0,2.5774127999320626,,,038,10,2025-01-23_16h03.26.623,Surprise recog test,2023.1.3,59.94186838000393,
262,0,262,0,,,,,,,,,,,,,,,,,,,,,,,,,,,,,,,,,,1017.5242784000002,1018.5548450000351,1016.0360214000102,1016.0360214000102,1016.0360214000102,1016.0360214000102,new_sceneOut_48.png,263,4.0,1.4901416000211611,,,038,10,2025-01-23_16h03.26.623,Surprise recog test,2023.1.3,59.94186838000393,
263,0,263,0,,,,,,,,,,,,,,,,,,,,,,,,,,,,,,,,,,1020.2315456999931,1021.2596424000803,1018.5548450000351,1018.5548450000351,1018.5548450000351,1018.5548450000351,old_fruit_41.png,264,2.0,1.6787263998994604,,,038,10,2025-01-23_16h03.26.623,Surprise recog test,2023.1.3,59.94186838000393,
264,0,264,0,,,,,,,,,,,,,,,,,,,,,,,,,,,,,,,,,,1023.2011237000115,1024.214185800054,1021.2596424000803,1021.2596424000803,1021.2596424000803,1021.2596424000803,new_fruit_28.png,265,3.0,1.9459249000065029,,,038,10,2025-01-23_16h03.26.623,Surprise recog test,2023.1.3,59.94186838000393,
265,0,265,0,,,,,,,,,,,,,,,,,,,,,,,,,,,,,,,,,,1026.7691122000106,1027.8006836000131,1024.214185800054,1024.214185800054,1024.214185800054,1024.214185800054,new_sceneOut_10.png,266,4.0,2.55070059990976,,,038,10,2025-01-23_16h03.26.623,Surprise recog test,2023.1.3,59.94186838000393,
266,0,266,0,,,,,,,,,,,,,,,,,,,,,,,,,,,,,,,,,,1029.861249800073,1030.8790015999693,1027.8006836000131,1027.8006836000131,1027.8006836000131,1027.8006836000131,new_fruit_23.png,267,2.0,2.0620200000703335,,,038,10,2025-01-23_16h03.26.623,Surprise recog test,2023.1.3,59.94186838000393,
267,0,267,0,,,,,,,,,,,,,,,,,,,,,,,,,,,,,,,,,,1033.7341457000002,,1030.8790015999693,1030.8790015999693,1030.8790015999693,1030.8790015999693,new_sceneOut_36.png,268,4.0,2.857388300006278,,,038,10,2025-01-23_16h03.26.623,Surprise recog test,2023.1.3,59.94186838000393,
268,0,268,0,,,,,,,,,,,,,,,,,,,,,,,,,,,,,,,,,,1035.941920400015,1036.9707428000402,1034.7698580999859,1034.7698580999859,1034.7698580999859,1034.7698580999859,old_sceneIn_42.png,269,4.0,1.1723743000766262,,,038,10,2025-01-23_16h03.26.623,Surprise recog test,2023.1.3,59.94186838000393,
269,0,269,0,,,,,,,,,,,,,,,,,,,,,,,,,,,,,,,,,,1039.755328600062,,1036.9707428000402,1036.9707428000402,1036.9707428000402,1036.9707428000402,new_fruit_32.png,270,3.0,2.7870983999455348,,,038,10,2025-01-23_16h03.26.623,Surprise recog test,2023.1.3,59.94186838000393,
270,0,270,0,,,,,,,,,,,,,,,,,,,,,,,,,,,,,,,,,,1042.3397294000024,1043.347743500024,1040.7888321999926,1040.7888321999926,1040.7888321999926,1040.7888321999926,new_sceneOut_50.png,271,4.0,1.5535922000417486,,,038,10,2025-01-23_16h03.26.623,Surprise recog test,2023.1.3,59.94186838000393,
271,0,271,0,,,,,,,,,,,,,,,,,,,,,,,,,,,,,,,,,,1044.6096298000775,,1043.347743500024,1043.347743500024,1043.347743500024,1043.347743500024,new_fruit_15.png,272,2.0,1.2590605999575928,,,038,10,2025-01-23_16h03.26.623,Surprise recog test,2023.1.3,59.94186838000393,
272,0,272,0,,,,,,,,,,,,,,,,,,,,,,,,,,,,,,,,,,1048.155540100066,1049.1804588000523,1045.6303301000735,1045.6303301000735,1045.6303301000735,1045.6303301000735,new_sceneOut_1.png,273,3.0,2.5207044000271708,,,038,10,2025-01-23_16h03.26.623,Surprise recog test,2023.1.3,59.94186838000393,
273,0,273,0,,,,,,,,,,,,,,,,,,,,,,,,,,,,,,,,,,1050.5911527000135,1051.6149596000323,1049.1804588000523,1049.1804588000523,1049.1804588000523,1049.1804588000523,new_stationery_21.png,274,4.0,1.411795699968934,,,038,10,2025-01-23_16h03.26.623,Surprise recog test,2023.1.3,59.94186838000393,
274,0,274,0,,,,,,,,,,,,,,,,,,,,,,,,,,,,,,,,,,1052.5883318000706,1053.6109948999947,1051.6149596000323,1051.6149596000323,1051.6149596000323,1051.6149596000323,new_sceneIn_49.png,275,4.0,0.9732409999705851,,,038,10,2025-01-23_16h03.26.623,Surprise recog test,2023.1.3,59.94186838000393,
275,0,275,0,,,,,,,,,,,,,,,,,,,,,,,,,,,,,,,,,,1054.62315400003,1055.6515128000174,1053.6109948999947,1053.6109948999947,1053.6109948999947,1053.6109948999947,new_sceneIn_40.png,276,4.0,1.0114462999626994,,,038,10,2025-01-23_16h03.26.623,Surprise recog test,2023.1.3,59.94186838000393,
276,0,276,0,,,,,,,,,,,,,,,,,,,,,,,,,,,,,,,,,,1056.3771368999733,1057.391762800049,1055.6515128000174,1055.6515128000174,1055.6515128000174,1055.6515128000174,old_sceneOut_3.png,277,4.0,0.7282230000710115,,,038,10,2025-01-23_16h03.26.623,Surprise recog test,2023.1.3,59.94186838000393,
277,0,277,0,,,,,,,,,,,,,,,,,,,,,,,,,,,,,,,,,,1058.5007650000043,1059.5131219000323,1057.391762800049,1057.391762800049,1057.391762800049,1057.391762800049,new_stationery_39.png,278,4.0,1.1022773999720812,,,038,10,2025-01-23_16h03.26.623,Surprise recog test,2023.1.3,59.94186838000393,
278,0,278,0,,,,,,,,,,,,,,,,,,,,,,,,,,,,,,,,,,1061.4945051000686,1062.5127956999931,1059.5131219000323,1059.5131219000323,1059.5131219000323,1059.5131219000323,new_sceneIn_45.png,279,3.0,1.9803194999694824,,,038,10,2025-01-23_16h03.26.623,Surprise recog test,2023.1.3,59.94186838000393,
279,0,279,0,,,,,,,,,,,,,,,,,,,,,,,,,,,,,,,,,,1064.6677600999828,1065.6887155000586,1062.5127956999931,1062.5127956999931,1062.5127956999931,1062.5127956999931,new_sceneOut_2.png,280,4.0,2.147768500028178,,,038,10,2025-01-23_16h03.26.623,Surprise recog test,2023.1.3,59.94186838000393,
280,0,280,0,,,,,,,,,,,,,,,,,,,,,,,,,,,,,,,,,,1067.9080677999882,1068.9296057000756,1065.6887155000586,1065.6887155000586,1065.6887155000586,1065.6887155000586,old_fruit_38.png,281,2.0,2.220731300069019,,,038,10,2025-01-23_16h03.26.623,Surprise recog test,2023.1.3,59.94186838000393,
281,0,281,0,,,,,,,,,,,,,,,,,,,,,,,,,,,,,,,,,,1070.100450900034,1071.1183300000848,1068.9296057000756,1068.9296057000756,1068.9296057000756,1068.9296057000756,old_sceneIn_1.png,282,3.0,1.1701151999877766,,,038,10,2025-01-23_16h03.26.623,Surprise recog test,2023.1.3,59.94186838000393,
282,0,282,0,,,,,,,,,,,,,,,,,,,,,,,,,,,,,,,,,,1072.2424284999724,1073.254848200013,1071.1183300000848,1071.1183300000848,1071.1183300000848,1071.1183300000848,old_fruit_44.png,283,2.0,1.1186362999724224,,,038,10,2025-01-23_16h03.26.623,Surprise recog test,2023.1.3,59.94186838000393,
283,0,283,0,,,,,,,,,,,,,,,,,,,,,,,,,,,,,,,,,,1074.9161290000193,1075.9373456999892,1073.254848200013,1073.254848200013,1073.254848200013,1073.254848200013,old_sceneOut_26.png,284,4.0,1.656369199976325,,,038,10,2025-01-23_16h03.26.623,Surprise recog test,2023.1.3,59.94186838000393,
284,0,284,0,,,,,,,,,,,,,,,,,,,,,,,,,,,,,,,,,,1077.601866299985,1078.6231849000324,1075.9373456999892,1075.9373456999892,1075.9373456999892,1075.9373456999892,new_sceneIn_27.png,285,3.0,1.6656349999830127,,,038,10,2025-01-23_16h03.26.623,Surprise recog test,2023.1.3,59.94186838000393,
285,0,285,0,,,,,,,,,,,,,,,,,,,,,,,,,,,,,,,,,,1079.8061721000122,,1078.6231849000324,1078.6231849000324,1078.6231849000324,1078.6231849000324,old_sceneOut_21.png,286,4.0,1.1837103000143543,,,038,10,2025-01-23_16h03.26.623,Surprise recog test,2023.1.3,59.94186838000393,
286,0,286,0,,,,,,,,,,,,,,,,,,,,,,,,,,,,,,,,,,1082.1840041000396,1083.2051538000815,1080.8351444000145,1080.8351444000145,1080.8351444000145,1080.8351444000145,old_sceneIn_29.png,287,4.0,1.3511006999760866,,,038,10,2025-01-23_16h03.26.623,Surprise recog test,2023.1.3,59.94186838000393,
287,0,287,0,,,,,,,,,,,,,,,,,,,,,,,,,,,,,,,,,,1085.3783648000099,,1083.2051538000815,1083.2051538000815,1083.2051538000815,1083.2051538000815,new_fruit_38.png,288,3.0,2.1724783000536263,,,038,10,2025-01-23_16h03.26.623,Surprise recog test,2023.1.3,59.94186838000393,
288,0,288,0,,,,,,,,,,,,,,,,,,,,,,,,,,,,,,,,,,1087.5516390000703,1088.5800680000102,1086.417470699991,1086.417470699991,1086.417470699991,1086.417470699991,new_stationery_23.png,289,3.0,1.1381713000591844,,,038,10,2025-01-23_16h03.26.623,Surprise recog test,2023.1.3,59.94186838000393,
289,0,289,0,,,,,,,,,,,,,,,,,,,,,,,,,,,,,,,,,,1090.208423800068,1091.2197888999945,1088.5800680000102,1088.5800680000102,1088.5800680000102,1088.5800680000102,old_stationery_32.png,290,2.0,1.6293834000825882,,,038,10,2025-01-23_16h03.26.623,Surprise recog test,2023.1.3,59.94186838000393,
290,0,290,0,,,,,,,,,,,,,,,,,,,,,,,,,,,,,,,,,,1092.6967212000163,1093.7051652000519,1091.2197888999945,1091.2197888999945,1091.2197888999945,1091.2197888999945,new_stationery_12.png,291,2.0,1.4683418000349775,,,038,10,2025-01-23_16h03.26.623,Surprise recog test,2023.1.3,59.94186838000393,
291,0,291,0,,,,,,,,,,,,,,,,,,,,,,,,,,,,,,,,,,1095.1950090000173,1096.2070246000076,1093.7051652000519,1093.7051652000519,1093.7051652000519,1093.7051652000519,new_sceneIn_26.png,292,2.0,1.484152500052005,,,038,10,2025-01-23_16h03.26.623,Surprise recog test,2023.1.3,59.94186838000393,
292,0,292,0,,,,,,,,,,,,,,,,,,,,,,,,,,,,,,,,,,1097.6666555000702,1098.6823234000476,1096.2070246000076,1096.2070246000076,1096.2070246000076,1096.2070246000076,new_sceneIn_31.png,293,4.0,1.452866500010714,,,038,10,2025-01-23_16h03.26.623,Surprise recog test,2023.1.3,59.94186838000393,
293,0,293,0,,,,,,,,,,,,,,,,,,,,,,,,,,,,,,,,,,1100.210281000007,1101.239847299992,1098.6823234000476,1098.6823234000476,1098.6823234000476,1098.6823234000476,old_stationery_30.png,294,4.0,1.5290413000620902,,,038,10,2025-01-23_16h03.26.623,Surprise recog test,2023.1.3,59.94186838000393,
294,0,294,0,,,,,,,,,,,,,,,,,,,,,,,,,,,,,,,,,,1102.5360660000006,1103.5550914000487,1101.239847299992,1101.239847299992,1101.239847299992,1101.239847299992,old_sceneIn_38.png,295,4.0,1.297137500019744,,,038,10,2025-01-23_16h03.26.623,Surprise recog test,2023.1.3,59.94186838000393,
295,0,295,0,,,,,,,,,,,,,,,,,,,,,,,,,,,,,,,,,,1104.5545441000722,1105.5753770000301,1103.5550914000487,1103.5550914000487,1103.5550914000487,1103.5550914000487,old_sceneIn_35.png,296,4.0,1.0005520000122488,,,038,10,2025-01-23_16h03.26.623,Surprise recog test,2023.1.3,59.94186838000393,
296,0,296,0,,,,,,,,,,,,,,,,,,,,,,,,,,,,,,,,,,1106.833538100007,1107.8563925999915,1105.5753770000301,1105.5753770000301,1105.5753770000301,1105.5753770000301,old_sceneIn_18.png,297,5.0,1.2595512999687344,,,038,10,2025-01-23_16h03.26.623,Surprise recog test,2023.1.3,59.94186838000393,
297,0,297,0,,,,,,,,,,,,,,,,,,,,,,,,,,,,,,,,,,1109.084938700078,1110.114768599975,1107.8563925999915,1107.8563925999915,1107.8563925999915,1107.8563925999915,old_stationery_19.png,298,5.0,1.22440079995431,,,038,10,2025-01-23_16h03.26.623,Surprise recog test,2023.1.3,59.94186838000393,
298,0,298,0,,,,,,,,,,,,,,,,,,,,,,,,,,,,,,,,,,1111.3707669000141,1112.3890383000253,1110.114768599975,1110.114768599975,1110.114768599975,1110.114768599975,old_stationery_5.png,299,5.0,1.2562782000750303,,,038,10,2025-01-23_16h03.26.623,Surprise recog test,2023.1.3,59.94186838000393,
299,0,299,0,,,,,,,,,,,,,,,,,,,,,,,,,,,,,,,,,,1114.9426943999715,1115.9567888000747,1112.3890383000253,1112.3890383000253,1112.3890383000253,1112.3890383000253,new_sceneOut_33.png,300,4.0,2.5503160998923704,,,038,10,2025-01-23_16h03.26.623,Surprise recog test,2023.1.3,59.94186838000393,
300,0,300,0,,,,,,,,,,,,,,,,,,,,,,,,,,,,,,,,,,1117.5315641000634,1118.547073499998,1115.9567888000747,1115.9567888000747,1115.9567888000747,1115.9567888000747,old_fruit_50.png,301,2.0,1.5706461999798194,,,038,10,2025-01-23_16h03.26.623,Surprise recog test,2023.1.3,59.94186838000393,
301,0,301,0,,,,,,,,,,,,,,,,,,,,,,,,,,,,,,,,,,1120.887827700004,1121.9029700000538,1118.547073499998,1118.547073499998,1118.547073499998,1118.547073499998,new_sceneIn_13.png,302,3.0,2.3391390000469983,,,038,10,2025-01-23_16h03.26.623,Surprise recog test,2023.1.3,59.94186838000393,
302,0,302,0,,,,,,,,,,,,,,,,,,,,,,,,,,,,,,,,,,1122.9257190000499,,1121.9029700000538,1121.9029700000538,1121.9029700000538,1121.9029700000538,new_sceneIn_2.png,303,3.0,1.0199449000647292,,,038,10,2025-01-23_16h03.26.623,Surprise recog test,2023.1.3,59.94186838000393,
303,0,303,0,,,,,,,,,,,,,,,,,,,,,,,,,,,,,,,,,,1125.358417200041,1126.3787625000114,1123.9457816000795,1123.9457816000795,1123.9457816000795,1123.9457816000795,new_sceneOut_12.png,304,4.0,1.4080337999621406,,,038,10,2025-01-23_16h03.26.623,Surprise recog test,2023.1.3,59.94186838000393,
304,0,304,0,,,,,,,,,,,,,,,,,,,,,,,,,,,,,,,,,,1127.1753894999856,1128.1800719000166,1126.3787625000114,1126.3787625000114,1126.3787625000114,1126.3787625000114,old_stationery_7.png,305,4.0,0.7952426000265405,,,038,10,2025-01-23_16h03.26.623,Surprise recog test,2023.1.3,59.94186838000393,
305,0,305,0,,,,,,,,,,,,,,,,,,,,,,,,,,,,,,,,,,1129.4427014000248,1130.4686697999714,1128.1800719000166,1128.1800719000166,1128.1800719000166,1128.1800719000166,new_stationery_34.png,306,4.0,1.2588222998892888,,,038,10,2025-01-23_16h03.26.623,Surprise recog test,2023.1.3,59.94186838000393,
306,0,306,0,,,,,,,,,,,,,,,,,,,,,,,,,,,,,,,,,,1131.5218759999843,1132.543741100002,1130.4686697999714,1130.4686697999714,1130.4686697999714,1130.4686697999714,old_stationery_13.png,307,4.0,1.0573066000360996,,,038,10,2025-01-23_16h03.26.623,Surprise recog test,2023.1.3,59.94186838000393,
307,0,307,0,,,,,,,,,,,,,,,,,,,,,,,,,,,,,,,,,,1133.9228818999836,1134.9513719000388,1132.543741100002,1132.543741100002,1132.543741100002,1132.543741100002,old_fruit_10.png,308,1.0,1.3802495000418276,,,038,10,2025-01-23_16h03.26.623,Surprise recog test,2023.1.3,59.94186838000393,
308,0,308,0,,,,,,,,,,,,,,,,,,,,,,,,,,,,,,,,,,1136.2139934999868,1137.2401274000295,1134.9513719000388,1134.9513719000388,1134.9513719000388,1134.9513719000388,old_sceneIn_4.png,309,3.0,1.2642016001045704,,,038,10,2025-01-23_16h03.26.623,Surprise recog test,2023.1.3,59.94186838000393,
309,0,309,0,,,,,,,,,,,,,,,,,,,,,,,,,,,,,,,,,,1138.3444850000087,1139.3617361000506,1137.2401274000295,1137.2401274000295,1137.2401274000295,1137.2401274000295,new_sceneOut_20.png,310,4.0,1.1044293000595644,,,038,10,2025-01-23_16h03.26.623,Surprise recog test,2023.1.3,59.94186838000393,
310,0,310,0,,,,,,,,,,,,,,,,,,,,,,,,,,,,,,,,,,1141.4036811999977,1142.4302429000381,1139.3617361000506,1139.3617361000506,1139.3617361000506,1139.3617361000506,old_stationery_29.png,311,1.0,2.0379254000727087,,,038,10,2025-01-23_16h03.26.623,Surprise recog test,2023.1.3,59.94186838000393,
311,0,311,0,,,,,,,,,,,,,,,,,,,,,,,,,,,,,,,,,,1143.7550697000697,1144.7637188000372,1142.4302429000381,1142.4302429000381,1142.4302429000381,1142.4302429000381,old_sceneOut_17.png,312,4.0,1.3280652000103146,,,038,10,2025-01-23_16h03.26.623,Surprise recog test,2023.1.3,59.94186838000393,
312,0,312,0,,,,,,,,,,,,,,,,,,,,,,,,,,,,,,,,,,1145.8316443000222,1146.8592490999727,1144.7637188000372,1144.7637188000372,1144.7637188000372,1144.7637188000372,new_stationery_25.png,313,4.0,1.06340620003175,,,038,10,2025-01-23_16h03.26.623,Surprise recog test,2023.1.3,59.94186838000393,
313,0,313,0,,,,,,,,,,,,,,,,,,,,,,,,,,,,,,,,,,1147.5126787000336,,1146.8592490999727,1146.8592490999727,1146.8592490999727,1146.8592490999727,new_sceneOut_31.png,314,4.0,0.6555219000438228,,,038,10,2025-01-23_16h03.26.623,Surprise recog test,2023.1.3,59.94186838000393,
314,0,314,0,,,,,,,,,,,,,,,,,,,,,,,,,,,,,,,,,,1150.1582576000364,1151.1767266000388,1148.5455526000587,1148.5455526000587,1148.5455526000587,1148.5455526000587,new_fruit_10.png,315,5.0,1.6138514999765903,,,038,10,2025-01-23_16h03.26.623,Surprise recog test,2023.1.3,59.94186838000393,
315,0,315,0,,,,,,,,,,,,,,,,,,,,,,,,,,,,,,,,,,1152.554364199983,1153.571703499998,1151.1767266000388,1151.1767266000388,1151.1767266000388,1151.1767266000388,new_stationery_46.png,316,5.0,1.3765851999633014,,,038,10,2025-01-23_16h03.26.623,Surprise recog test,2023.1.3,59.94186838000393,
316,0,316,0,,,,,,,,,,,,,,,,,,,,,,,,,,,,,,,,,,1154.8740126000484,1155.9070872999728,1153.571703499998,1153.571703499998,1153.571703499998,1153.571703499998,new_fruit_25.png,317,3.0,1.2975978000322357,,,038,10,2025-01-23_16h03.26.623,Surprise recog test,2023.1.3,59.94186838000393,
317,0,317,0,,,,,,,,,,,,,,,,,,,,,,,,,,,,,,,,,,1157.9072116999887,1158.9376841000048,1155.9070872999728,1155.9070872999728,1155.9070872999728,1155.9070872999728,old_stationery_16.png,318,3.0,2.000127900042571,,,038,10,2025-01-23_16h03.26.623,Surprise recog test,2023.1.3,59.94186838000393,
318,0,318,0,,,,,,,,,,,,,,,,,,,,,,,,,,,,,,,,,,1160.1528692999855,1161.1719530000119,1158.9376841000048,1158.9376841000048,1158.9376841000048,1158.9376841000048,old_sceneIn_48.png,319,4.0,1.2153697001049295,,,038,10,2025-01-23_16h03.26.623,Surprise recog test,2023.1.3,59.94186838000393,
319,0,319,0,,,,,,,,,,,,,,,,,,,,,,,,,,,,,,,,,,1163.133970899973,1164.1468468999956,1161.1719530000119,1161.1719530000119,1161.1719530000119,1161.1719530000119,new_sceneIn_46.png,320,4.0,1.9623013000236824,,,038,10,2025-01-23_16h03.26.623,Surprise recog test,2023.1.3,59.94186838000393,
320,0,320,0,,,,,,,,,,,,,,,,,,,,,,,,,,,,,,,,,,1165.8712566000177,1166.896296299994,1164.1468468999956,1164.1468468999956,1164.1468468999956,1164.1468468999956,new_fruit_2.png,321,1.0,1.7174127000616863,,,038,10,2025-01-23_16h03.26.623,Surprise recog test,2023.1.3,59.94186838000393,
321,0,321,0,,,,,,,,,,,,,,,,,,,,,,,,,,,,,,,,,,1168.7526053000474,1169.772025900078,1166.896296299994,1166.896296299994,1166.896296299994,1166.896296299994,new_fruit_7.png,322,3.0,1.8559755999594927,,,038,10,2025-01-23_16h03.26.623,Surprise recog test,2023.1.3,59.94186838000393,
322,0,322,0,,,,,,,,,,,,,,,,,,,,,,,,,,,,,,,,,,1171.4420766000403,1172.4654639000073,1169.772025900078,1169.772025900078,1169.772025900078,1169.772025900078,new_stationery_38.png,323,4.0,1.6684664998902008,,,038,10,2025-01-23_16h03.26.623,Surprise recog test,2023.1.3,59.94186838000393,
323,0,323,0,,,,,,,,,,,,,,,,,,,,,,,,,,,,,,,,,,1173.3876577999908,1174.4054296000395,1172.4654639000073,1172.4654639000073,1172.4654639000073,1172.4654639000073,old_sceneOut_36.png,324,4.0,0.9221869999310002,,,038,10,2025-01-23_16h03.26.623,Surprise recog test,2023.1.3,59.94186838000393,
324,0,324,0,,,,,,,,,,,,,,,,,,,,,,,,,,,,,,,,,,1176.2361061000265,,1174.4054296000395,1174.4054296000395,1174.4054296000395,1174.4054296000395,new_fruit_36.png,325,3.0,1.8259776000631973,,,038,10,2025-01-23_16h03.26.623,Surprise recog test,2023.1.3,59.94186838000393,
325,0,325,0,,,,,,,,,,,,,,,,,,,,,,,,,,,,,,,,,,1178.4161242999835,1179.4383566000033,1177.2662480999716,1177.2662480999716,1177.2662480999716,1177.2662480999716,new_fruit_34.png,326,3.0,1.1494528000475839,,,038,10,2025-01-23_16h03.26.623,Surprise recog test,2023.1.3,59.94186838000393,
326,0,326,0,,,,,,,,,,,,,,,,,,,,,,,,,,,,,,,,,,1181.111110100057,1182.143615100067,1179.4383566000033,1179.4383566000033,1179.4383566000033,1179.4383566000033,new_sceneOut_29.png,327,4.0,1.6732515000039712,,,038,10,2025-01-23_16h03.26.623,Surprise recog test,2023.1.3,59.94186838000393,
327,0,327,0,,,,,,,,,,,,,,,,,,,,,,,,,,,,,,,,,,1183.3915594000136,,1182.143615100067,1182.143615100067,1182.143615100067,1182.143615100067,new_fruit_21.png,328,3.0,1.247019000002183,,,038,10,2025-01-23_16h03.26.623,Surprise recog test,2023.1.3,59.94186838000393,
328,0,328,0,,,,,,,,,,,,,,,,,,,,,,,,,,,,,,,,,,1185.885416300036,1186.9042406000663,1184.4132111000363,1184.4132111000363,1184.4132111000363,1184.4132111000363,new_fruit_33.png,329,3.0,1.467397200060077,,,038,10,2025-01-23_16h03.26.623,Surprise recog test,2023.1.3,59.94186838000393,
329,0,329,0,,,,,,,,,,,,,,,,,,,,,,,,,,,,,,,,,,1189.7440804999787,1190.7581928999862,1186.9042406000663,1186.9042406000663,1186.9042406000663,1186.9042406000663,old_sceneIn_19.png,330,4.0,2.8349146000109613,,,038,10,2025-01-23_16h03.26.623,Surprise recog test,2023.1.3,59.94186838000393,
330,0,330,0,,,,,,,,,,,,,,,,,,,,,,,,,,,,,,,,,,1191.9354914000724,1192.9512438999955,1190.7581928999862,1190.7581928999862,1190.7581928999862,1190.7581928999862,new_sceneOut_32.png,331,4.0,1.1766687999479473,,,038,10,2025-01-23_16h03.26.623,Surprise recog test,2023.1.3,59.94186838000393,
331,0,331,0,,,,,,,,,,,,,,,,,,,,,,,,,,,,,,,,,,1193.9006469000597,,1192.9512438999955,1192.9512438999955,1192.9512438999955,1192.9512438999955,new_sceneIn_22.png,332,4.0,0.9426857000216842,,,038,10,2025-01-23_16h03.26.623,Surprise recog test,2023.1.3,59.94186838000393,
332,0,332,0,,,,,,,,,,,,,,,,,,,,,,,,,,,,,,,,,,1195.6875313000055,1196.7059710000176,1194.9342407999793,1194.9342407999793,1194.9342407999793,1194.9342407999793,old_sceneOut_30.png,333,4.0,0.7546746999723837,,,038,10,2025-01-23_16h03.26.623,Surprise recog test,2023.1.3,59.94186838000393,
333,0,333,0,,,,,,,,,,,,,,,,,,,,,,,,,,,,,,,,,,1197.3559034999926,1198.3752252999693,1196.7059710000176,1196.7059710000176,1196.7059710000176,1196.7059710000176,old_sceneIn_39.png,334,4.0,0.6433988000499085,,,038,10,2025-01-23_16h03.26.623,Surprise recog test,2023.1.3,59.94186838000393,
334,0,334,0,,,,,,,,,,,,,,,,,,,,,,,,,,,,,,,,,,1199.9455431000097,1200.970072300057,1198.3752252999693,1198.3752252999693,1198.3752252999693,1198.3752252999693,new_stationery_13.png,335,5.0,1.5657333000563085,,,038,10,2025-01-23_16h03.26.623,Surprise recog test,2023.1.3,59.94186838000393,
335,0,335,0,,,,,,,,,,,,,,,,,,,,,,,,,,,,,,,,,,1202.1309253000654,1203.1532269000309,1200.970072300057,1200.970072300057,1200.970072300057,1200.970072300057,new_fruit_50.png,336,3.0,1.1624922000337392,,,038,10,2025-01-23_16h03.26.623,Surprise recog test,2023.1.3,59.94186838000393,
336,0,336,0,,,,,,,,,,,,,,,,,,,,,,,,,,,,,,,,,,1204.2673237000126,1205.2820024000248,1203.1532269000309,1203.1532269000309,1203.1532269000309,1203.1532269000309,new_sceneIn_33.png,337,4.0,1.1136636000592262,,,038,10,2025-01-23_16h03.26.623,Surprise recog test,2023.1.3,59.94186838000393,
337,0,337,0,,,,,,,,,,,,,,,,,,,,,,,,,,,,,,,,,,1207.1783352000639,,1205.2820024000248,1205.2820024000248,1205.2820024000248,1205.2820024000248,new_sceneIn_23.png,338,3.0,1.888296899967827,,,038,10,2025-01-23_16h03.26.623,Surprise recog test,2023.1.3,59.94186838000393,
338,0,338,0,,,,,,,,,,,,,,,,,,,,,,,,,,,,,,,,,,1213.1967208000133,,1208.2114773000358,1208.2114773000358,1208.2114773000358,1208.2114773000358,old_stationery_33.png,339,None,None,1213.1815289000515,,038,10,2025-01-23_16h03.26.623,Surprise recog test,2023.1.3,59.94186838000393,
339,0,339,0,,,,,,,,,,,,,,,,,,,,,,,,,,,,,,,,,,1215.689343700069,1216.7207713000244,1214.2050675000064,1214.2050675000064,1214.2050675000064,1214.2050675000064,old_stationery_1.png,340,4.0,1.4799661000724882,,,038,10,2025-01-23_16h03.26.623,Surprise recog test,2023.1.3,59.94186838000393,
340,0,340,0,,,,,,,,,,,,,,,,,,,,,,,,,,,,,,,,,,1218.592569099972,1219.6106215000618,1216.7207713000244,1216.7207713000244,1216.7207713000244,1216.7207713000244,old_sceneOut_49.png,341,4.0,1.8713577000889927,,,038,10,2025-01-23_16h03.26.623,Surprise recog test,2023.1.3,59.94186838000393,
341,0,341,0,,,,,,,,,,,,,,,,,,,,,,,,,,,,,,,,,,1222.0568658000557,,1219.6106215000618,1219.6106215000618,1219.6106215000618,1219.6106215000618,new_sceneIn_7.png,342,4.0,2.440997499972582,,,038,10,2025-01-23_16h03.26.623,Surprise recog test,2023.1.3,59.94186838000393,
342,0,342,0,,,,,,,,,,,,,,,,,,,,,,,,,,,,,,,,,,1224.0034405000042,1225.0205982000334,1223.0793392000487,1223.0793392000487,1223.0793392000487,1223.0793392000487,old_stationery_20.png,343,4.0,0.9186588999582455,,,038,10,2025-01-23_16h03.26.623,Surprise recog test,2023.1.3,59.94186838000393,
343,0,343,0,,,,,,,,,,,,,,,,,,,,,,,,,,,,,,,,,,1225.7410692999838,1226.7626408999786,1225.0205982000334,1225.0205982000334,1225.0205982000334,1225.0205982000334,old_sceneOut_18.png,344,4.0,0.7210851999698207,,,038,10,2025-01-23_16h03.26.623,Surprise recog test,2023.1.3,59.94186838000393,
344,0,344,0,,,,,,,,,,,,,,,,,,,,,,,,,,,,,,,,,,1228.2815249999985,1229.3009475000435,1226.7626408999786,1226.7626408999786,1226.7626408999786,1226.7626408999786,old_sceneOut_34.png,345,3.0,1.5208926999475807,,,038,10,2025-01-23_16h03.26.623,Surprise recog test,2023.1.3,59.94186838000393,
345,0,345,0,,,,,,,,,,,,,,,,,,,,,,,,,,,,,,,,,,1230.6960757999914,1231.7039676000131,1229.3009475000435,1229.3009475000435,1229.3009475000435,1229.3009475000435,old_fruit_24.png,346,1.0,1.3899455000646412,,,038,10,2025-01-23_16h03.26.623,Surprise recog test,2023.1.3,59.94186838000393,
346,0,346,0,,,,,,,,,,,,,,,,,,,,,,,,,,,,,,,,,,1234.251405099989,,1231.7039676000131,1231.7039676000131,1231.7039676000131,1231.7039676000131,new_stationery_31.png,347,4.0,2.5419490999775007,,,038,10,2025-01-23_16h03.26.623,Surprise recog test,2023.1.3,59.94186838000393,
347,0,347,0,,,,,,,,,,,,,,,,,,,,,,,,,,,,,,,,,,1236.7343621000182,1237.7562766000628,1235.2722035000334,1235.2722035000334,1235.2722035000334,1235.2722035000334,old_fruit_47.png,348,1.0,1.4550418000435457,,,038,10,2025-01-23_16h03.26.623,Surprise recog test,2023.1.3,59.94186838000393,
348,0,348,0,,,,,,,,,,,,,,,,,,,,,,,,,,,,,,,,,,1239.6462554000318,1240.661117700045,1237.7562766000628,1237.7562766000628,1237.7562766000628,1237.7562766000628,old_sceneIn_8.png,349,4.0,1.8935818000463769,,,038,10,2025-01-23_16h03.26.623,Surprise recog test,2023.1.3,59.94186838000393,
349,0,349,0,,,,,,,,,,,,,,,,,,,,,,,,,,,,,,,,,,1242.4439541000174,1243.467669900041,1240.661117700045,1240.661117700045,1240.661117700045,1240.661117700045,old_sceneOut_43.png,350,5.0,1.778361800010316,,,038,10,2025-01-23_16h03.26.623,Surprise recog test,2023.1.3,59.94186838000393,
350,0,350,0,,,,,,,,,,,,,,,,,,,,,,,,,,,,,,,,,,1245.78133909998,1246.7987625000533,1243.467669900041,1243.467669900041,1243.467669900041,1243.467669900041,old_sceneIn_28.png,351,3.0,2.314250100054778,,,038,10,2025-01-23_16h03.26.623,Surprise recog test,2023.1.3,59.94186838000393,
351,0,351,0,,,,,,,,,,,,,,,,,,,,,,,,,,,,,,,,,,1248.131029100041,1249.1712896000827,1246.7987625000533,1246.7987625000533,1246.7987625000533,1246.7987625000533,new_stationery_22.png,352,4.0,1.327951299957931,,,038,10,2025-01-23_16h03.26.623,Surprise recog test,2023.1.3,59.94186838000393,
352,0,352,0,,,,,,,,,,,,,,,,,,,,,,,,,,,,,,,,,,1250.47127920005,1251.4834621000336,1249.1712896000827,1249.1712896000827,1249.1712896000827,1249.1712896000827,old_sceneIn_11.png,353,4.0,1.3045738999499008,,,038,10,2025-01-23_16h03.26.623,Surprise recog test,2023.1.3,59.94186838000393,
