trial_loop.thisRepN,trial_loop.thisTrialN,trial_loop.thisN,trial_loop.thisIndex,VAS_slider.started,VAS_text.started,VAS_notstressed_text.started,VAS_stressed_text.started,continue_input.started,continue_text.started,label0.started,label10.started,label20.started,label30.started,label40.started,label50.started,label60.started,label70.started,label80.started,label90.started,label100.started,VAS_slider.response,VAS_slider.rt,VAS_slider.history,Answer_VAS,continue_input.keys,instruction_text.started,continue_text_2.started,continue_input_2.started,continue_input_2.keys,continue_input_2.rt,continue_input_2.duration,example_text.started,example_slider_2.started,example_image.started,example_slider_2.response,example_slider_2.rt,fixcross.started,fixcross.stopped,front_square.started,stim_images.started,trial_inst_images.started,slider_images.started,thisImg,trial_count,slider_images.response,slider_images.rt,outro.started,participant,condition,date,expName,psychopyVersion,frameRate,
,,,,257.73223680000046,257.73223680000046,257.73223680000046,257.73223680000046,257.73223680000046,257.73223680000046,257.73223680000046,257.73223680000046,257.73223680000046,257.73223680000046,257.73223680000046,257.73223680000046,257.73223680000046,257.73223680000046,257.73223680000046,257.73223680000046,257.73223680000046,0,3.4459131000003254,"[(0, 3.4459131000003254)]",0,None,,,,,,,,,,,,,,,,,,,,,,,041,01,2025-02-13_16h33.08.776,Surprise recog test,2023.1.3,59.86514776817705,
,,,,,,,,,,,,,,,,,,,,,,,,,,261.20939010000075,261.20939010000075,261.20939010000075,space,22.517262800000026,None,,,,,,,,,,,,,,,,,041,01,2025-02-13_16h33.08.776,Surprise recog test,2023.1.3,59.86514776817705,
0,0,0,0,,,,,,,,,,,,,,,,,,,,,,,,,,,,,283.8459189999994,283.8459189999994,283.8459189999994,4.0,4.394801100001132,291.9447106000007,292.9675881000003,289.21460429999934,289.21460429999934,289.21460429999934,289.21460429999934,old_stationery_40.png,1,1.0,2.733603200000289,,041,01,2025-02-13_16h33.08.776,Surprise recog test,2023.1.3,59.86514776817705,
1,0,1,0,,,,,,,,,,,,,,,,,,,,,,,,,,,,,,,,,,295.15138090000073,296.15974070000084,292.9675881000003,292.9675881000003,292.9675881000003,292.9675881000003,old_sceneOut_36.png,2,3.0,2.1817714999997406,,041,01,2025-02-13_16h33.08.776,Surprise recog test,2023.1.3,59.86514776817705,
2,0,2,0,,,,,,,,,,,,,,,,,,,,,,,,,,,,,,,,,,299.49058479999985,,296.15974070000084,296.15974070000084,296.15974070000084,296.15974070000084,old_stationery_32.png,3,3.0,3.327167499999632,,041,01,2025-02-13_16h33.08.776,Surprise recog test,2023.1.3,59.86514776817705,
3,0,3,0,,,,,,,,,,,,,,,,,,,,,,,,,,,,,,,,,,302.0336287000009,303.0486772999993,300.52065330000005,300.52065330000005,300.52065330000005,300.52065330000005,new_stationery_37.png,4,4.0,1.514403000001039,,041,01,2025-02-13_16h33.08.776,Surprise recog test,2023.1.3,59.86514776817705,
4,0,4,0,,,,,,,,,,,,,,,,,,,,,,,,,,,,,,,,,,304.49301059999925,305.5113225999994,303.0486772999993,303.0486772999993,303.0486772999993,303.0486772999993,old_stationery_1.png,5,2.0,1.440268800000922,,041,01,2025-02-13_16h33.08.776,Surprise recog test,2023.1.3,59.86514776817705,
5,0,5,0,,,,,,,,,,,,,,,,,,,,,,,,,,,,,,,,,,307.87221409999984,308.88723630000095,305.5113225999994,305.5113225999994,305.5113225999994,305.5113225999994,new_sceneIn_17.png,6,4.0,2.362669599999208,,041,01,2025-02-13_16h33.08.776,Surprise recog test,2023.1.3,59.86514776817705,
6,0,6,0,,,,,,,,,,,,,,,,,,,,,,,,,,,,,,,,,,311.0710498999997,312.0855496000004,308.88723630000095,308.88723630000095,308.88723630000095,308.88723630000095,new_sceneIn_11.png,7,4.0,2.179565399999774,,041,01,2025-02-13_16h33.08.776,Surprise recog test,2023.1.3,59.86514776817705,
7,0,7,0,,,,,,,,,,,,,,,,,,,,,,,,,,,,,,,,,,313.73331490000055,314.7550811000001,312.0855496000004,312.0855496000004,312.0855496000004,312.0855496000004,new_stationery_26.png,8,3.0,1.636785400000008,,041,01,2025-02-13_16h33.08.776,Surprise recog test,2023.1.3,59.86514776817705,
8,0,8,0,,,,,,,,,,,,,,,,,,,,,,,,,,,,,,,,,,316.8121847000002,317.83604659999946,314.7550811000001,314.7550811000001,314.7550811000001,314.7550811000001,old_sceneOut_41.png,9,4.0,2.057615600000645,,041,01,2025-02-13_16h33.08.776,Surprise recog test,2023.1.3,59.86514776817705,
9,0,9,0,,,,,,,,,,,,,,,,,,,,,,,,,,,,,,,,,,319.39037669999925,,317.83604659999946,317.83604659999946,317.83604659999946,317.83604659999946,new_sceneIn_6.png,10,3.0,1.5567821000004187,,041,01,2025-02-13_16h33.08.776,Surprise recog test,2023.1.3,59.86514776817705,
10,0,10,0,,,,,,,,,,,,,,,,,,,,,,,,,,,,,,,,,,321.6654615999996,322.6967476000009,320.4233815000007,320.4233815000007,320.4233815000007,320.4233815000007,old_stationery_35.png,11,1.0,1.2448238000015408,,041,01,2025-02-13_16h33.08.776,Surprise recog test,2023.1.3,59.86514776817705,
11,0,11,0,,,,,,,,,,,,,,,,,,,,,,,,,,,,,,,,,,324.77711590000035,325.79796200000055,322.6967476000009,322.6967476000009,322.6967476000009,322.6967476000009,old_sceneOut_37.png,12,4.0,2.083868600000642,,041,01,2025-02-13_16h33.08.776,Surprise recog test,2023.1.3,59.86514776817705,
12,0,12,0,,,,,,,,,,,,,,,,,,,,,,,,,,,,,,,,,,327.63467909999963,328.66538519999995,325.79796200000055,325.79796200000055,325.79796200000055,325.79796200000055,new_fruit_46.png,13,3.0,1.8400104999982432,,041,01,2025-02-13_16h33.08.776,Surprise recog test,2023.1.3,59.86514776817705,
13,0,13,0,,,,,,,,,,,,,,,,,,,,,,,,,,,,,,,,,,331.29242429999977,332.3180472999993,328.66538519999995,328.66538519999995,328.66538519999995,328.66538519999995,new_sceneOut_21.png,14,4.0,2.629362300000139,,041,01,2025-02-13_16h33.08.776,Surprise recog test,2023.1.3,59.86514776817705,
14,0,14,0,,,,,,,,,,,,,,,,,,,,,,,,,,,,,,,,,,333.4901246999998,334.5184239000009,332.3180472999993,332.3180472999993,332.3180472999993,332.3180472999993,new_fruit_4.png,15,2.0,1.1723849999998492,,041,01,2025-02-13_16h33.08.776,Surprise recog test,2023.1.3,59.86514776817705,
15,0,15,0,,,,,,,,,,,,,,,,,,,,,,,,,,,,,,,,,,336.41599470000074,337.42758929999945,334.5184239000009,334.5184239000009,334.5184239000009,334.5184239000009,new_sceneIn_29.png,16,4.0,1.8999394999991637,,041,01,2025-02-13_16h33.08.776,Surprise recog test,2023.1.3,59.86514776817705,
16,0,16,0,,,,,,,,,,,,,,,,,,,,,,,,,,,,,,,,,,339.2812678999999,340.2987783000008,337.42758929999945,337.42758929999945,337.42758929999945,337.42758929999945,new_sceneIn_30.png,17,3.0,1.848544899999979,,041,01,2025-02-13_16h33.08.776,Surprise recog test,2023.1.3,59.86514776817705,
17,0,17,0,,,,,,,,,,,,,,,,,,,,,,,,,,,,,,,,,,341.87328460000026,342.88722269999926,340.2987783000008,340.2987783000008,340.2987783000008,340.2987783000008,old_sceneIn_11.png,18,2.0,1.5654591000002256,,041,01,2025-02-13_16h33.08.776,Surprise recog test,2023.1.3,59.86514776817705,
18,0,18,0,,,,,,,,,,,,,,,,,,,,,,,,,,,,,,,,,,344.6898672999996,345.7069649999994,342.88722269999926,342.88722269999926,342.88722269999926,342.88722269999926,new_sceneIn_10.png,19,3.0,1.801511699999537,,041,01,2025-02-13_16h33.08.776,Surprise recog test,2023.1.3,59.86514776817705,
19,0,19,0,,,,,,,,,,,,,,,,,,,,,,,,,,,,,,,,,,347.0888470000009,348.0995724000004,345.7069649999994,345.7069649999994,345.7069649999994,345.7069649999994,old_stationery_47.png,20,2.0,1.3824158999996143,,041,01,2025-02-13_16h33.08.776,Surprise recog test,2023.1.3,59.86514776817705,
20,0,20,0,,,,,,,,,,,,,,,,,,,,,,,,,,,,,,,,,,349.1266159000006,350.13388789999954,348.0995724000004,348.0995724000004,348.0995724000004,348.0995724000004,new_fruit_36.png,21,2.0,1.0229789999993955,,041,01,2025-02-13_16h33.08.776,Surprise recog test,2023.1.3,59.86514776817705,
21,0,21,0,,,,,,,,,,,,,,,,,,,,,,,,,,,,,,,,,,351.8288666999997,352.85188279999966,350.13388789999954,350.13388789999954,350.13388789999954,350.13388789999954,old_fruit_11.png,22,1.0,1.6875254999995377,,041,01,2025-02-13_16h33.08.776,Surprise recog test,2023.1.3,59.86514776817705,
22,0,22,0,,,,,,,,,,,,,,,,,,,,,,,,,,,,,,,,,,353.8539352000007,,352.85188279999966,352.85188279999966,352.85188279999966,352.85188279999966,new_stationery_15.png,23,1.0,1.0016781000012998,,041,01,2025-02-13_16h33.08.776,Surprise recog test,2023.1.3,59.86514776817705,
23,0,23,0,,,,,,,,,,,,,,,,,,,,,,,,,,,,,,,,,,355.59849740000027,356.6206748000004,354.87563240000054,354.87563240000054,354.87563240000054,354.87563240000054,old_stationery_45.png,24,1.0,0.7178027999998449,,041,01,2025-02-13_16h33.08.776,Surprise recog test,2023.1.3,59.86514776817705,
24,0,24,0,,,,,,,,,,,,,,,,,,,,,,,,,,,,,,,,,,357.4463108,358.47429809999994,356.6206748000004,356.6206748000004,356.6206748000004,356.6206748000004,new_fruit_8.png,25,1.0,0.8275727000000188,,041,01,2025-02-13_16h33.08.776,Surprise recog test,2023.1.3,59.86514776817705,
25,0,25,0,,,,,,,,,,,,,,,,,,,,,,,,,,,,,,,,,,360.0731916000004,361.0906885000004,358.47429809999994,358.47429809999994,358.47429809999994,358.47429809999994,old_stationery_5.png,26,3.0,1.6012197000000015,,041,01,2025-02-13_16h33.08.776,Surprise recog test,2023.1.3,59.86514776817705,
26,0,26,0,,,,,,,,,,,,,,,,,,,,,,,,,,,,,,,,,,362.34247569999934,,361.0906885000004,361.0906885000004,361.0906885000004,361.0906885000004,old_stationery_21.png,27,2.0,1.2526505999994697,,041,01,2025-02-13_16h33.08.776,Surprise recog test,2023.1.3,59.86514776817705,
27,0,27,0,,,,,,,,,,,,,,,,,,,,,,,,,,,,,,,,,,365.1993170000005,366.22946520000005,363.37047600000005,363.37047600000005,363.37047600000005,363.37047600000005,new_stationery_6.png,28,5.0,1.8286294999998063,,041,01,2025-02-13_16h33.08.776,Surprise recog test,2023.1.3,59.86514776817705,
28,0,28,0,,,,,,,,,,,,,,,,,,,,,,,,,,,,,,,,,,368.2624278000003,369.266517,366.22946520000005,366.22946520000005,366.22946520000005,366.22946520000005,new_fruit_27.png,29,3.0,2.034037700001136,,041,01,2025-02-13_16h33.08.776,Surprise recog test,2023.1.3,59.86514776817705,
29,0,29,0,,,,,,,,,,,,,,,,,,,,,,,,,,,,,,,,,,371.0312766999996,372.0446393000002,369.266517,369.266517,369.266517,369.266517,old_sceneOut_40.png,30,4.0,1.7606224000010116,,041,01,2025-02-13_16h33.08.776,Surprise recog test,2023.1.3,59.86514776817705,
30,0,30,0,,,,,,,,,,,,,,,,,,,,,,,,,,,,,,,,,,373.5546402,374.5852589999995,372.0446393000002,372.0446393000002,372.0446393000002,372.0446393000002,new_sceneOut_42.png,31,3.0,1.5115046999999322,,041,01,2025-02-13_16h33.08.776,Surprise recog test,2023.1.3,59.86514776817705,
31,0,31,0,,,,,,,,,,,,,,,,,,,,,,,,,,,,,,,,,,375.6478232999998,376.67148500000076,374.5852589999995,374.5852589999995,374.5852589999995,374.5852589999995,new_fruit_14.png,32,2.0,1.0635294000003341,,041,01,2025-02-13_16h33.08.776,Surprise recog test,2023.1.3,59.86514776817705,
32,0,32,0,,,,,,,,,,,,,,,,,,,,,,,,,,,,,,,,,,378.3449249999994,379.36779190000016,376.67148500000076,376.67148500000076,376.67148500000076,376.67148500000076,old_sceneOut_48.png,33,3.0,1.6757863000002544,,041,01,2025-02-13_16h33.08.776,Surprise recog test,2023.1.3,59.86514776817705,
33,0,33,0,,,,,,,,,,,,,,,,,,,,,,,,,,,,,,,,,,380.7598624000002,,379.36779190000016,379.36779190000016,379.36779190000016,379.36779190000016,old_stationery_36.png,34,2.0,1.3931358999998338,,041,01,2025-02-13_16h33.08.776,Surprise recog test,2023.1.3,59.86514776817705,
34,0,34,0,,,,,,,,,,,,,,,,,,,,,,,,,,,,,,,,,,384.3544614000002,385.3770217000001,381.7896670000009,381.7896670000009,381.7896670000009,381.7896670000009,new_sceneIn_27.png,35,4.0,2.5640329999987443,,041,01,2025-02-13_16h33.08.776,Surprise recog test,2023.1.3,59.86514776817705,
35,0,35,0,,,,,,,,,,,,,,,,,,,,,,,,,,,,,,,,,,386.7296002999992,,385.3770217000001,385.3770217000001,385.3770217000001,385.3770217000001,new_fruit_28.png,36,2.0,1.3550799999993615,,041,01,2025-02-13_16h33.08.776,Surprise recog test,2023.1.3,59.86514776817705,
36,0,36,0,,,,,,,,,,,,,,,,,,,,,,,,,,,,,,,,,,390.40528500000073,391.41838760000064,387.75377370000024,387.75377370000024,387.75377370000024,387.75377370000024,old_sceneIn_5.png,37,5.0,2.647632500000327,,041,01,2025-02-13_16h33.08.776,Surprise recog test,2023.1.3,59.86514776817705,
37,0,37,0,,,,,,,,,,,,,,,,,,,,,,,,,,,,,,,,,,392.90466449999985,393.9243365000002,391.41838760000064,391.41838760000064,391.41838760000064,391.41838760000064,old_stationery_28.png,38,2.0,1.4788137000014103,,041,01,2025-02-13_16h33.08.776,Surprise recog test,2023.1.3,59.86514776817705,
38,0,38,0,,,,,,,,,,,,,,,,,,,,,,,,,,,,,,,,,,395.6830331000001,396.6997578999999,393.9243365000002,393.9243365000002,393.9243365000002,393.9243365000002,old_sceneIn_25.png,39,3.0,1.7519876000005752,,041,01,2025-02-13_16h33.08.776,Surprise recog test,2023.1.3,59.86514776817705,
39,0,39,0,,,,,,,,,,,,,,,,,,,,,,,,,,,,,,,,,,398.2656958000007,399.28972299999987,396.6997578999999,396.6997578999999,396.6997578999999,396.6997578999999,old_sceneOut_42.png,40,3.0,1.567658100000699,,041,01,2025-02-13_16h33.08.776,Surprise recog test,2023.1.3,59.86514776817705,
40,0,40,0,,,,,,,,,,,,,,,,,,,,,,,,,,,,,,,,,,401.1892485999997,402.21099010000034,399.28972299999987,399.28972299999987,399.28972299999987,399.28972299999987,old_sceneIn_1.png,41,3.0,1.8969821999999112,,041,01,2025-02-13_16h33.08.776,Surprise recog test,2023.1.3,59.86514776817705,
41,0,41,0,,,,,,,,,,,,,,,,,,,,,,,,,,,,,,,,,,403.45682599999964,404.4756823000007,402.21099010000034,402.21099010000034,402.21099010000034,402.21099010000034,old_sceneOut_33.png,42,4.0,1.24807680000049,,041,01,2025-02-13_16h33.08.776,Surprise recog test,2023.1.3,59.86514776817705,
42,0,42,0,,,,,,,,,,,,,,,,,,,,,,,,,,,,,,,,,,406.16092150000077,407.16862089999995,404.4756823000007,404.4756823000007,404.4756823000007,404.4756823000007,old_sceneIn_32.png,43,4.0,1.6837319999995088,,041,01,2025-02-13_16h33.08.776,Surprise recog test,2023.1.3,59.86514776817705,
43,0,43,0,,,,,,,,,,,,,,,,,,,,,,,,,,,,,,,,,,408.2768541000005,409.2970791000007,407.16862089999995,407.16862089999995,407.16862089999995,407.16862089999995,old_sceneOut_23.png,44,4.0,1.1037755999986985,,041,01,2025-02-13_16h33.08.776,Surprise recog test,2023.1.3,59.86514776817705,
44,0,44,0,,,,,,,,,,,,,,,,,,,,,,,,,,,,,,,,,,410.8669854,,409.2970791000007,409.2970791000007,409.2970791000007,409.2970791000007,new_sceneOut_17.png,45,3.0,1.569102399998883,,041,01,2025-02-13_16h33.08.776,Surprise recog test,2023.1.3,59.86514776817705,
45,0,45,0,,,,,,,,,,,,,,,,,,,,,,,,,,,,,,,,,,413.6342112000002,414.6414015999999,411.90697779999937,411.90697779999937,411.90697779999937,411.90697779999937,new_stationery_20.png,46,4.0,1.732225699999617,,041,01,2025-02-13_16h33.08.776,Surprise recog test,2023.1.3,59.86514776817705,
46,0,46,0,,,,,,,,,,,,,,,,,,,,,,,,,,,,,,,,,,416.02656989999923,417.04855920000045,414.6414015999999,414.6414015999999,414.6414015999999,414.6414015999999,new_fruit_11.png,47,4.0,1.3813379000002897,,041,01,2025-02-13_16h33.08.776,Surprise recog test,2023.1.3,59.86514776817705,
47,0,47,0,,,,,,,,,,,,,,,,,,,,,,,,,,,,,,,,,,418.35100860000057,419.37474959999963,417.04855920000045,417.04855920000045,417.04855920000045,417.04855920000045,new_sceneOut_5.png,48,4.0,1.3021805999997014,,041,01,2025-02-13_16h33.08.776,Surprise recog test,2023.1.3,59.86514776817705,
48,0,48,0,,,,,,,,,,,,,,,,,,,,,,,,,,,,,,,,,,420.40860520000024,,419.37474959999963,419.37474959999963,419.37474959999963,419.37474959999963,old_fruit_35.png,49,2.0,1.0370598999998037,,041,01,2025-02-13_16h33.08.776,Surprise recog test,2023.1.3,59.86514776817705,
49,0,49,0,,,,,,,,,,,,,,,,,,,,,,,,,,,,,,,,,,422.69585860000007,423.72623720000047,421.4391071000009,421.4391071000009,421.4391071000009,421.4391071000009,new_sceneIn_14.png,50,3.0,1.2543152999987797,,041,01,2025-02-13_16h33.08.776,Surprise recog test,2023.1.3,59.86514776817705,
50,0,50,0,,,,,,,,,,,,,,,,,,,,,,,,,,,,,,,,,,425.85964330000024,426.876018500001,423.72623720000047,423.72623720000047,423.72623720000047,423.72623720000047,new_sceneOut_43.png,51,4.0,2.13389449999886,,041,01,2025-02-13_16h33.08.776,Surprise recog test,2023.1.3,59.86514776817705,
51,0,51,0,,,,,,,,,,,,,,,,,,,,,,,,,,,,,,,,,,428.56955689999995,429.59867590000067,426.876018500001,426.876018500001,426.876018500001,426.876018500001,new_sceneOut_15.png,52,3.0,1.6939100999989023,,041,01,2025-02-13_16h33.08.776,Surprise recog test,2023.1.3,59.86514776817705,
52,0,52,0,,,,,,,,,,,,,,,,,,,,,,,,,,,,,,,,,,430.969137600001,432.00183930000094,429.59867590000067,429.59867590000067,429.59867590000067,429.59867590000067,new_sceneIn_45.png,53,4.0,1.3711340000008931,,041,01,2025-02-13_16h33.08.776,Surprise recog test,2023.1.3,59.86514776817705,
53,0,53,0,,,,,,,,,,,,,,,,,,,,,,,,,,,,,,,,,,433.4096792,434.4402848999998,432.00183930000094,432.00183930000094,432.00183930000094,432.00183930000094,old_fruit_50.png,54,2.0,1.4088685999995505,,041,01,2025-02-13_16h33.08.776,Surprise recog test,2023.1.3,59.86514776817705,
54,0,54,0,,,,,,,,,,,,,,,,,,,,,,,,,,,,,,,,,,435.6450050000003,436.66828410000016,434.4402848999998,434.4402848999998,434.4402848999998,434.4402848999998,new_fruit_21.png,55,2.0,1.207619099999647,,041,01,2025-02-13_16h33.08.776,Surprise recog test,2023.1.3,59.86514776817705,
55,0,55,0,,,,,,,,,,,,,,,,,,,,,,,,,,,,,,,,,,437.9934358999999,439.0246081999994,436.66828410000016,436.66828410000016,436.66828410000016,436.66828410000016,new_stationery_3.png,56,4.0,1.3266944999995758,,041,01,2025-02-13_16h33.08.776,Surprise recog test,2023.1.3,59.86514776817705,
56,0,56,0,,,,,,,,,,,,,,,,,,,,,,,,,,,,,,,,,,440.6188430000002,441.6431556999996,439.0246081999994,439.0246081999994,439.0246081999994,439.0246081999994,new_fruit_43.png,57,4.0,1.5971341000004031,,041,01,2025-02-13_16h33.08.776,Surprise recog test,2023.1.3,59.86514776817705,
57,0,57,0,,,,,,,,,,,,,,,,,,,,,,,,,,,,,,,,,,443.3737256000004,444.39607369999976,441.6431556999996,441.6431556999996,441.6431556999996,441.6431556999996,old_stationery_37.png,58,2.0,1.732697499999631,,041,01,2025-02-13_16h33.08.776,Surprise recog test,2023.1.3,59.86514776817705,
58,0,58,0,,,,,,,,,,,,,,,,,,,,,,,,,,,,,,,,,,445.73889249999957,446.76457839999966,444.39607369999976,444.39607369999976,444.39607369999976,444.39607369999976,old_sceneOut_43.png,59,3.0,1.3455782000000909,,041,01,2025-02-13_16h33.08.776,Surprise recog test,2023.1.3,59.86514776817705,
59,0,59,0,,,,,,,,,,,,,,,,,,,,,,,,,,,,,,,,,,448.4647476000009,,446.76457839999966,446.76457839999966,446.76457839999966,446.76457839999966,old_sceneIn_8.png,60,3.0,1.7001112999987527,,041,01,2025-02-13_16h33.08.776,Surprise recog test,2023.1.3,59.86514776817705,
60,0,60,0,,,,,,,,,,,,,,,,,,,,,,,,,,,,,,,,,,451.40270430000055,452.4340665,449.4977294,449.4977294,449.4977294,449.4977294,new_fruit_45.png,61,3.0,1.9072617000001628,,041,01,2025-02-13_16h33.08.776,Surprise recog test,2023.1.3,59.86514776817705,
61,0,61,0,,,,,,,,,,,,,,,,,,,,,,,,,,,,,,,,,,453.774973900001,454.8051864000008,452.4340665,452.4340665,452.4340665,452.4340665,old_stationery_10.png,62,1.0,1.3420593999999255,,041,01,2025-02-13_16h33.08.776,Surprise recog test,2023.1.3,59.86514776817705,
62,0,62,0,,,,,,,,,,,,,,,,,,,,,,,,,,,,,,,,,,456.6248976000006,457.6497448000009,454.8051864000008,454.8051864000008,454.8051864000008,454.8051864000008,new_sceneIn_13.png,63,5.0,1.8221176999995805,,041,01,2025-02-13_16h33.08.776,Surprise recog test,2023.1.3,59.86514776817705,
63,0,63,0,,,,,,,,,,,,,,,,,,,,,,,,,,,,,,,,,,459.7165685,460.72946989999946,457.6497448000009,457.6497448000009,457.6497448000009,457.6497448000009,old_sceneIn_39.png,64,3.0,2.0625882000003912,,041,01,2025-02-13_16h33.08.776,Surprise recog test,2023.1.3,59.86514776817705,
64,0,64,0,,,,,,,,,,,,,,,,,,,,,,,,,,,,,,,,,,462.8189237000006,463.84515180000017,460.72946989999946,460.72946989999946,460.72946989999946,460.72946989999946,old_sceneIn_33.png,65,4.0,2.0833625000013853,,041,01,2025-02-13_16h33.08.776,Surprise recog test,2023.1.3,59.86514776817705,
65,0,65,0,,,,,,,,,,,,,,,,,,,,,,,,,,,,,,,,,,465.0895313000001,466.10072390000096,463.84515180000017,463.84515180000017,463.84515180000017,463.84515180000017,new_sceneOut_8.png,66,4.0,1.2469221000010293,,041,01,2025-02-13_16h33.08.776,Surprise recog test,2023.1.3,59.86514776817705,
66,0,66,0,,,,,,,,,,,,,,,,,,,,,,,,,,,,,,,,,,467.3270190000003,468.34362839999994,466.10072390000096,466.10072390000096,466.10072390000096,466.10072390000096,old_fruit_15.png,67,1.0,1.2222254999996949,,041,01,2025-02-13_16h33.08.776,Surprise recog test,2023.1.3,59.86514776817705,
67,0,67,0,,,,,,,,,,,,,,,,,,,,,,,,,,,,,,,,,,470.1503470000007,,468.34362839999994,468.34362839999994,468.34362839999994,468.34362839999994,old_sceneOut_50.png,68,4.0,1.808572500000082,,041,01,2025-02-13_16h33.08.776,Surprise recog test,2023.1.3,59.86514776817705,
68,0,68,0,,,,,,,,,,,,,,,,,,,,,,,,,,,,,,,,,,472.89877700000034,473.91180499999973,471.17065139999977,471.17065139999977,471.17065139999977,471.17065139999977,new_sceneIn_33.png,69,3.0,1.7178772000006575,,041,01,2025-02-13_16h33.08.776,Surprise recog test,2023.1.3,59.86514776817705,
69,0,69,0,,,,,,,,,,,,,,,,,,,,,,,,,,,,,,,,,,474.8665667000005,475.8870014000004,473.91180499999973,473.91180499999973,473.91180499999973,473.91180499999973,new_sceneOut_2.png,70,3.0,0.9490353999990475,,041,01,2025-02-13_16h33.08.776,Surprise recog test,2023.1.3,59.86514776817705,
70,0,70,0,,,,,,,,,,,,,,,,,,,,,,,,,,,,,,,,,,477.06906230000095,478.08963179999955,475.8870014000004,475.8870014000004,475.8870014000004,475.8870014000004,old_fruit_22.png,71,1.0,1.1830891000008705,,041,01,2025-02-13_16h33.08.776,Surprise recog test,2023.1.3,59.86514776817705,
71,0,71,0,,,,,,,,,,,,,,,,,,,,,,,,,,,,,,,,,,479.60327940000025,480.6216968000008,478.08963179999955,478.08963179999955,478.08963179999955,478.08963179999955,new_sceneOut_3.png,72,4.0,1.5166964000000007,,041,01,2025-02-13_16h33.08.776,Surprise recog test,2023.1.3,59.86514776817705,
72,0,72,0,,,,,,,,,,,,,,,,,,,,,,,,,,,,,,,,,,481.8692656000003,482.8944854000001,480.6216968000008,480.6216968000008,480.6216968000008,480.6216968000008,new_sceneOut_18.png,73,4.0,1.2444369000004372,,041,01,2025-02-13_16h33.08.776,Surprise recog test,2023.1.3,59.86514776817705,
73,0,73,0,,,,,,,,,,,,,,,,,,,,,,,,,,,,,,,,,,484.4268752000007,,482.8944854000001,482.8944854000001,482.8944854000001,482.8944854000001,old_stationery_9.png,74,1.0,1.5347227000002022,,041,01,2025-02-13_16h33.08.776,Surprise recog test,2023.1.3,59.86514776817705,
74,0,74,0,,,,,,,,,,,,,,,,,,,,,,,,,,,,,,,,,,486.4795675999994,,485.4619781000001,485.4619781000001,485.4619781000001,485.4619781000001,new_fruit_7.png,75,1.0,1.01789639999879,,041,01,2025-02-13_16h33.08.776,Surprise recog test,2023.1.3,59.86514776817705,
75,0,75,0,,,,,,,,,,,,,,,,,,,,,,,,,,,,,,,,,,489.8839953000006,490.9126176999998,487.49790009999924,487.49790009999924,487.49790009999924,487.49790009999924,new_sceneOut_4.png,76,3.0,2.382267099999808,,041,01,2025-02-13_16h33.08.776,Surprise recog test,2023.1.3,59.86514776817705,
76,0,76,0,,,,,,,,,,,,,,,,,,,,,,,,,,,,,,,,,,492.7176880999996,,490.9126176999998,490.9126176999998,490.9126176999998,490.9126176999998,new_stationery_10.png,77,4.0,1.8050917000000481,,041,01,2025-02-13_16h33.08.776,Surprise recog test,2023.1.3,59.86514776817705,
77,0,77,0,,,,,,,,,,,,,,,,,,,,,,,,,,,,,,,,,,494.8054594000005,495.82549690000087,493.7527549000006,493.7527549000006,493.7527549000006,493.7527549000006,new_sceneIn_20.png,78,4.0,1.0559346999998525,,041,01,2025-02-13_16h33.08.776,Surprise recog test,2023.1.3,59.86514776817705,
78,0,78,0,,,,,,,,,,,,,,,,,,,,,,,,,,,,,,,,,,496.7178404999995,497.7276619999993,495.82549690000087,495.82549690000087,495.82549690000087,495.82549690000087,new_stationery_2.png,79,4.0,0.8859176000005391,,041,01,2025-02-13_16h33.08.776,Surprise recog test,2023.1.3,59.86514776817705,
79,0,79,0,,,,,,,,,,,,,,,,,,,,,,,,,,,,,,,,,,499.3770064,500.4065644000002,497.7276619999993,497.7276619999993,497.7276619999993,497.7276619999993,old_sceneIn_42.png,80,4.0,1.6435807999987446,,041,01,2025-02-13_16h33.08.776,Surprise recog test,2023.1.3,59.86514776817705,
80,0,80,0,,,,,,,,,,,,,,,,,,,,,,,,,,,,,,,,,,502.07576270000027,,500.4065644000002,500.4065644000002,500.4065644000002,500.4065644000002,old_sceneIn_3.png,81,4.0,1.6650076000005356,,041,01,2025-02-13_16h33.08.776,Surprise recog test,2023.1.3,59.86514776817705,
81,0,81,0,,,,,,,,,,,,,,,,,,,,,,,,,,,,,,,,,,504.4669066000006,505.49279770000066,503.1108289999993,503.1108289999993,503.1108289999993,503.1108289999993,old_fruit_25.png,82,1.0,1.3588196000000607,,041,01,2025-02-13_16h33.08.776,Surprise recog test,2023.1.3,59.86514776817705,
82,0,82,0,,,,,,,,,,,,,,,,,,,,,,,,,,,,,,,,,,508.0885502000001,509.1178806000007,505.49279770000066,505.49279770000066,505.49279770000066,505.49279770000066,old_fruit_20.png,83,3.0,2.5972533999993175,,041,01,2025-02-13_16h33.08.776,Surprise recog test,2023.1.3,59.86514776817705,
83,0,83,0,,,,,,,,,,,,,,,,,,,,,,,,,,,,,,,,,,510.68108949999987,511.7032648000004,509.1178806000007,509.1178806000007,509.1178806000007,509.1178806000007,new_sceneIn_49.png,84,4.0,1.5667293000005884,,041,01,2025-02-13_16h33.08.776,Surprise recog test,2023.1.3,59.86514776817705,
84,0,84,0,,,,,,,,,,,,,,,,,,,,,,,,,,,,,,,,,,514.0150795999998,515.0357562999998,511.7032648000004,511.7032648000004,511.7032648000004,511.7032648000004,old_sceneIn_43.png,85,4.0,2.3153452000005927,,041,01,2025-02-13_16h33.08.776,Surprise recog test,2023.1.3,59.86514776817705,
85,0,85,0,,,,,,,,,,,,,,,,,,,,,,,,,,,,,,,,,,516.8636502999998,517.8855961000008,515.0357562999998,515.0357562999998,515.0357562999998,515.0357562999998,old_sceneIn_18.png,86,4.0,1.827849100000094,,041,01,2025-02-13_16h33.08.776,Surprise recog test,2023.1.3,59.86514776817705,
86,0,86,0,,,,,,,,,,,,,,,,,,,,,,,,,,,,,,,,,,519.5852508000007,520.5927787,517.8855961000008,517.8855961000008,517.8855961000008,517.8855961000008,new_sceneOut_35.png,87,4.0,1.7020789999987755,,041,01,2025-02-13_16h33.08.776,Surprise recog test,2023.1.3,59.86514776817705,
87,0,87,0,,,,,,,,,,,,,,,,,,,,,,,,,,,,,,,,,,521.7726416000005,522.7772528999994,520.5927787,520.5927787,520.5927787,520.5927787,old_sceneIn_41.png,88,4.0,1.1709138999995048,,041,01,2025-02-13_16h33.08.776,Surprise recog test,2023.1.3,59.86514776817705,
88,0,88,0,,,,,,,,,,,,,,,,,,,,,,,,,,,,,,,,,,524.6749562999994,525.6793902999998,522.7772528999994,522.7772528999994,522.7772528999994,522.7772528999994,new_sceneIn_2.png,89,5.0,1.8878714999991644,,041,01,2025-02-13_16h33.08.776,Surprise recog test,2023.1.3,59.86514776817705,
89,0,89,0,,,,,,,,,,,,,,,,,,,,,,,,,,,,,,,,,,527.126972,528.1322216000008,525.6793902999998,525.6793902999998,525.6793902999998,525.6793902999998,new_fruit_39.png,90,2.0,1.4367731000002095,,041,01,2025-02-13_16h33.08.776,Surprise recog test,2023.1.3,59.86514776817705,
90,0,90,0,,,,,,,,,,,,,,,,,,,,,,,,,,,,,,,,,,529.7303472999993,530.7519702999998,528.1322216000008,528.1322216000008,528.1322216000008,528.1322216000008,old_fruit_17.png,91,1.0,1.5909255000005942,,041,01,2025-02-13_16h33.08.776,Surprise recog test,2023.1.3,59.86514776817705,
91,0,91,0,,,,,,,,,,,,,,,,,,,,,,,,,,,,,,,,,,532.7938291999999,533.8061926000009,530.7519702999998,530.7519702999998,530.7519702999998,530.7519702999998,new_fruit_49.png,92,2.0,2.043522399999347,,041,01,2025-02-13_16h33.08.776,Surprise recog test,2023.1.3,59.86514776817705,
92,0,92,0,,,,,,,,,,,,,,,,,,,,,,,,,,,,,,,,,,535.3352888000009,536.3395880000007,533.8061926000009,533.8061926000009,533.8061926000009,533.8061926000009,new_sceneIn_24.png,93,4.0,1.5236628000002383,,041,01,2025-02-13_16h33.08.776,Surprise recog test,2023.1.3,59.86514776817705,
93,0,93,0,,,,,,,,,,,,,,,,,,,,,,,,,,,,,,,,,,538.2529003,539.2592432000001,536.3395880000007,536.3395880000007,536.3395880000007,536.3395880000007,old_stationery_39.png,94,2.0,1.90490680000039,,041,01,2025-02-13_16h33.08.776,Surprise recog test,2023.1.3,59.86514776817705,
94,0,94,0,,,,,,,,,,,,,,,,,,,,,,,,,,,,,,,,,,540.7883507000006,541.7937364999998,539.2592432000001,539.2592432000001,539.2592432000001,539.2592432000001,new_fruit_50.png,95,2.0,1.520615800000087,,041,01,2025-02-13_16h33.08.776,Surprise recog test,2023.1.3,59.86514776817705,
95,0,95,0,,,,,,,,,,,,,,,,,,,,,,,,,,,,,,,,,,543.0903295000007,544.0950470000007,541.7937364999998,541.7937364999998,541.7937364999998,541.7937364999998,old_sceneIn_47.png,96,3.0,1.287689999999202,,041,01,2025-02-13_16h33.08.776,Surprise recog test,2023.1.3,59.86514776817705,
96,0,96,0,,,,,,,,,,,,,,,,,,,,,,,,,,,,,,,,,,545.5206478,546.5353276999995,544.0950470000007,544.0950470000007,544.0950470000007,544.0950470000007,old_fruit_29.png,97,2.0,1.4148036999995384,,041,01,2025-02-13_16h33.08.776,Surprise recog test,2023.1.3,59.86514776817705,
97,0,97,0,,,,,,,,,,,,,,,,,,,,,,,,,,,,,,,,,,547.9266031000006,548.9531917000004,546.5353276999995,546.5353276999995,546.5353276999995,546.5353276999995,new_stationery_31.png,98,4.0,1.3881110999991506,,041,01,2025-02-13_16h33.08.776,Surprise recog test,2023.1.3,59.86514776817705,
98,0,98,0,,,,,,,,,,,,,,,,,,,,,,,,,,,,,,,,,,549.9726799,550.9854890999995,548.9531917000004,548.9531917000004,548.9531917000004,548.9531917000004,old_sceneIn_9.png,99,4.0,1.0230145000004995,,041,01,2025-02-13_16h33.08.776,Surprise recog test,2023.1.3,59.86514776817705,
99,0,99,0,,,,,,,,,,,,,,,,,,,,,,,,,,,,,,,,,,552.6835902000003,553.7036396000003,550.9854890999995,550.9854890999995,550.9854890999995,550.9854890999995,new_sceneIn_46.png,100,3.0,1.6931953000002977,,041,01,2025-02-13_16h33.08.776,Surprise recog test,2023.1.3,59.86514776817705,
100,0,100,0,,,,,,,,,,,,,,,,,,,,,,,,,,,,,,,,,,556.2783743,557.2955523,553.7036396000003,553.7036396000003,553.7036396000003,553.7036396000003,new_sceneIn_35.png,101,4.0,2.5764758000004804,,041,01,2025-02-13_16h33.08.776,Surprise recog test,2023.1.3,59.86514776817705,
101,0,101,0,,,,,,,,,,,,,,,,,,,,,,,,,,,,,,,,,,558.654563,559.6688233000004,557.2955523,557.2955523,557.2955523,557.2955523,new_fruit_35.png,102,2.0,1.3580485000002227,,041,01,2025-02-13_16h33.08.776,Surprise recog test,2023.1.3,59.86514776817705,
102,0,102,0,,,,,,,,,,,,,,,,,,,,,,,,,,,,,,,,,,561.6264909000001,,559.6688233000004,559.6688233000004,559.6688233000004,559.6688233000004,new_stationery_7.png,103,4.0,1.9572426000013365,,041,01,2025-02-13_16h33.08.776,Surprise recog test,2023.1.3,59.86514776817705,
103,0,103,0,,,,,,,,,,,,,,,,,,,,,,,,,,,,,,,,,,563.6406112999994,564.6579093,562.6489975999993,562.6489975999993,562.6489975999993,562.6489975999993,new_sceneOut_11.png,104,4.0,0.9853628000000754,,041,01,2025-02-13_16h33.08.776,Surprise recog test,2023.1.3,59.86514776817705,
104,0,104,0,,,,,,,,,,,,,,,,,,,,,,,,,,,,,,,,,,565.936516400001,566.9631458999993,564.6579093,564.6579093,564.6579093,564.6579093,old_fruit_43.png,105,1.0,1.279118099999323,,041,01,2025-02-13_16h33.08.776,Surprise recog test,2023.1.3,59.86514776817705,
105,0,105,0,,,,,,,,,,,,,,,,,,,,,,,,,,,,,,,,,,568.5522946000001,569.5692490000001,566.9631458999993,566.9631458999993,566.9631458999993,566.9631458999993,new_stationery_23.png,106,3.0,1.5918438999997306,,041,01,2025-02-13_16h33.08.776,Surprise recog test,2023.1.3,59.86514776817705,
106,0,106,0,,,,,,,,,,,,,,,,,,,,,,,,,,,,,,,,,,570.5735196999995,571.6009020000001,569.5692490000001,569.5692490000001,569.5692490000001,569.5692490000001,old_stationery_43.png,107,3.0,0.9980044000003545,,041,01,2025-02-13_16h33.08.776,Surprise recog test,2023.1.3,59.86514776817705,
107,0,107,0,,,,,,,,,,,,,,,,,,,,,,,,,,,,,,,,,,573.006589300001,574.037392100001,571.6009020000001,571.6009020000001,571.6009020000001,571.6009020000001,old_fruit_18.png,108,1.0,1.408534399999553,,041,01,2025-02-13_16h33.08.776,Surprise recog test,2023.1.3,59.86514776817705,
108,0,108,0,,,,,,,,,,,,,,,,,,,,,,,,,,,,,,,,,,575.4849391999996,576.5027181000005,574.037392100001,574.037392100001,574.037392100001,574.037392100001,old_sceneOut_20.png,109,3.0,1.4502009000007092,,041,01,2025-02-13_16h33.08.776,Surprise recog test,2023.1.3,59.86514776817705,
109,0,109,0,,,,,,,,,,,,,,,,,,,,,,,,,,,,,,,,,,579.3273673999993,580.3420031999995,576.5027181000005,576.5027181000005,576.5027181000005,576.5027181000005,old_fruit_19.png,110,3.0,2.8235468000002584,,041,01,2025-02-13_16h33.08.776,Surprise recog test,2023.1.3,59.86514776817705,
110,0,110,0,,,,,,,,,,,,,,,,,,,,,,,,,,,,,,,,,,581.9443625999993,582.9772766999995,580.3420031999995,580.3420031999995,580.3420031999995,580.3420031999995,old_sceneOut_24.png,111,4.0,1.5984807000004366,,041,01,2025-02-13_16h33.08.776,Surprise recog test,2023.1.3,59.86514776817705,
111,0,111,0,,,,,,,,,,,,,,,,,,,,,,,,,,,,,,,,,,584.2805521000009,585.3086480000002,582.9772766999995,582.9772766999995,582.9772766999995,582.9772766999995,new_fruit_6.png,112,1.0,1.3050991999989492,,041,01,2025-02-13_16h33.08.776,Surprise recog test,2023.1.3,59.86514776817705,
112,0,112,0,,,,,,,,,,,,,,,,,,,,,,,,,,,,,,,,,,587.1171979999999,588.1439855999997,585.3086480000002,585.3086480000002,585.3086480000002,585.3086480000002,old_sceneOut_26.png,113,3.0,1.8111464999983582,,041,01,2025-02-13_16h33.08.776,Surprise recog test,2023.1.3,59.86514776817705,
113,0,113,0,,,,,,,,,,,,,,,,,,,,,,,,,,,,,,,,,,590.4978327999997,591.5041031000001,588.1439855999997,588.1439855999997,588.1439855999997,588.1439855999997,new_sceneOut_48.png,114,4.0,2.353321299999152,,041,01,2025-02-13_16h33.08.776,Surprise recog test,2023.1.3,59.86514776817705,
114,0,114,0,,,,,,,,,,,,,,,,,,,,,,,,,,,,,,,,,,592.6214450000007,593.6379336999998,591.5041031000001,591.5041031000001,591.5041031000001,591.5041031000001,old_sceneOut_1.png,115,4.0,1.1121272000000317,,041,01,2025-02-13_16h33.08.776,Surprise recog test,2023.1.3,59.86514776817705,
115,0,115,0,,,,,,,,,,,,,,,,,,,,,,,,,,,,,,,,,,595.2967196999998,596.3095458999996,593.6379336999998,593.6379336999998,593.6379336999998,593.6379336999998,new_fruit_19.png,116,3.0,1.6545848000005208,,041,01,2025-02-13_16h33.08.776,Surprise recog test,2023.1.3,59.86514776817705,
116,0,116,0,,,,,,,,,,,,,,,,,,,,,,,,,,,,,,,,,,598.1044695,599.1222225000001,596.3095458999996,596.3095458999996,596.3095458999996,596.3095458999996,old_fruit_46.png,117,2.0,1.7890492000005906,,041,01,2025-02-13_16h33.08.776,Surprise recog test,2023.1.3,59.86514776817705,
117,0,117,0,,,,,,,,,,,,,,,,,,,,,,,,,,,,,,,,,,601.0942465999997,602.1297279999999,599.1222225000001,599.1222225000001,599.1222225000001,599.1222225000001,old_fruit_45.png,118,1.0,1.9726064999995288,,041,01,2025-02-13_16h33.08.776,Surprise recog test,2023.1.3,59.86514776817705,
118,0,118,0,,,,,,,,,,,,,,,,,,,,,,,,,,,,,,,,,,604.1043255999994,605.1175628000001,602.1297279999999,602.1297279999999,602.1297279999999,602.1297279999999,new_fruit_22.png,119,3.0,1.9769622999992862,,041,01,2025-02-13_16h33.08.776,Surprise recog test,2023.1.3,59.86514776817705,
119,0,119,0,,,,,,,,,,,,,,,,,,,,,,,,,,,,,,,,,,606.5393874000001,607.5476808999992,605.1175628000001,605.1175628000001,605.1175628000001,605.1175628000001,old_fruit_16.png,120,1.0,1.4182453000012174,,041,01,2025-02-13_16h33.08.776,Surprise recog test,2023.1.3,59.86514776817705,
120,0,120,0,,,,,,,,,,,,,,,,,,,,,,,,,,,,,,,,,,608.3404344999999,609.3654050000005,607.5476808999992,607.5476808999992,607.5476808999992,607.5476808999992,old_fruit_9.png,121,1.0,0.7888573999989603,,041,01,2025-02-13_16h33.08.776,Surprise recog test,2023.1.3,59.86514776817705,
121,0,121,0,,,,,,,,,,,,,,,,,,,,,,,,,,,,,,,,,,611.5298088,612.5436363999997,609.3654050000005,609.3654050000005,609.3654050000005,609.3654050000005,new_sceneOut_47.png,122,3.0,2.16648879999957,,041,01,2025-02-13_16h33.08.776,Surprise recog test,2023.1.3,59.86514776817705,
122,0,122,0,,,,,,,,,,,,,,,,,,,,,,,,,,,,,,,,,,613.7255932000007,614.7535552000008,612.5436363999997,612.5436363999997,612.5436363999997,612.5436363999997,old_sceneOut_38.png,123,3.0,1.1793749000007665,,041,01,2025-02-13_16h33.08.776,Surprise recog test,2023.1.3,59.86514776817705,
123,0,123,0,,,,,,,,,,,,,,,,,,,,,,,,,,,,,,,,,,615.8340494000004,616.8432260999998,614.7535552000008,614.7535552000008,614.7535552000008,614.7535552000008,new_fruit_31.png,124,2.0,1.080544700000246,,041,01,2025-02-13_16h33.08.776,Surprise recog test,2023.1.3,59.86514776817705,
124,0,124,0,,,,,,,,,,,,,,,,,,,,,,,,,,,,,,,,,,618.8743436000004,,616.8432260999998,616.8432260999998,616.8432260999998,616.8432260999998,new_sceneIn_18.png,125,4.0,2.027089100000012,,041,01,2025-02-13_16h33.08.776,Surprise recog test,2023.1.3,59.86514776817705,
125,0,125,0,,,,,,,,,,,,,,,,,,,,,,,,,,,,,,,,,,621.5922993000004,,619.8914822000006,619.8914822000006,619.8914822000006,619.8914822000006,new_stationery_13.png,126,3.0,1.6969083999993018,,041,01,2025-02-13_16h33.08.776,Surprise recog test,2023.1.3,59.86514776817705,
126,0,126,0,,,,,,,,,,,,,,,,,,,,,,,,,,,,,,,,,,625.3311119000009,626.361797900001,622.6242679000006,622.6242679000006,622.6242679000006,622.6242679000006,old_fruit_12.png,127,2.0,2.708938499999931,,041,01,2025-02-13_16h33.08.776,Surprise recog test,2023.1.3,59.86514776817705,
127,0,127,0,,,,,,,,,,,,,,,,,,,,,,,,,,,,,,,,,,628.1526028000007,629.1710204999999,626.361797900001,626.361797900001,626.361797900001,626.361797900001,old_stationery_3.png,128,4.0,1.7931222999995953,,041,01,2025-02-13_16h33.08.776,Surprise recog test,2023.1.3,59.86514776817705,
128,0,128,0,,,,,,,,,,,,,,,,,,,,,,,,,,,,,,,,,,631.5772871999998,632.5966681999998,629.1710204999999,629.1710204999999,629.1710204999999,629.1710204999999,old_sceneOut_10.png,129,4.0,2.4024155999995855,,041,01,2025-02-13_16h33.08.776,Surprise recog test,2023.1.3,59.86514776817705,
129,0,129,0,,,,,,,,,,,,,,,,,,,,,,,,,,,,,,,,,,634.8695485999997,,632.5966681999998,632.5966681999998,632.5966681999998,632.5966681999998,new_stationery_16.png,130,4.0,2.270643800000471,,041,01,2025-02-13_16h33.08.776,Surprise recog test,2023.1.3,59.86514776817705,
130,0,130,0,,,,,,,,,,,,,,,,,,,,,,,,,,,,,,,,,,637.8313945999998,638.8412174000005,635.8912474999997,635.8912474999997,635.8912474999997,635.8912474999997,new_sceneOut_29.png,131,4.0,1.9361636000012368,,041,01,2025-02-13_16h33.08.776,Surprise recog test,2023.1.3,59.86514776817705,
131,0,131,0,,,,,,,,,,,,,,,,,,,,,,,,,,,,,,,,,,640.5680104999992,641.5901157000008,638.8412174000005,638.8412174000005,638.8412174000005,638.8412174000005,new_sceneOut_32.png,132,2.0,1.722759500000393,,041,01,2025-02-13_16h33.08.776,Surprise recog test,2023.1.3,59.86514776817705,
132,0,132,0,,,,,,,,,,,,,,,,,,,,,,,,,,,,,,,,,,642.9737165000006,643.9929733999998,641.5901157000008,641.5901157000008,641.5901157000008,641.5901157000008,old_sceneOut_45.png,133,3.0,1.3840091000001848,,041,01,2025-02-13_16h33.08.776,Surprise recog test,2023.1.3,59.86514776817705,
133,0,133,0,,,,,,,,,,,,,,,,,,,,,,,,,,,,,,,,,,645.8314675000001,646.8600652999994,643.9929733999998,643.9929733999998,643.9929733999998,643.9929733999998,new_stationery_40.png,134,3.0,1.8379932000007102,,041,01,2025-02-13_16h33.08.776,Surprise recog test,2023.1.3,59.86514776817705,
134,0,134,0,,,,,,,,,,,,,,,,,,,,,,,,,,,,,,,,,,648.4247228000004,649.4395165000005,646.8600652999994,646.8600652999994,646.8600652999994,646.8600652999994,old_stationery_30.png,135,2.0,1.5620224999984202,,041,01,2025-02-13_16h33.08.776,Surprise recog test,2023.1.3,59.86514776817705,
135,0,135,0,,,,,,,,,,,,,,,,,,,,,,,,,,,,,,,,,,652.0294971000003,653.0544575999993,649.4395165000005,649.4395165000005,649.4395165000005,649.4395165000005,old_sceneOut_5.png,136,3.0,2.5867269999998825,,041,01,2025-02-13_16h33.08.776,Surprise recog test,2023.1.3,59.86514776817705,
136,0,136,0,,,,,,,,,,,,,,,,,,,,,,,,,,,,,,,,,,654.7047480000001,655.7395257999997,653.0544575999993,653.0544575999993,653.0544575999993,653.0544575999993,old_sceneIn_38.png,137,4.0,1.6524894000012864,,041,01,2025-02-13_16h33.08.776,Surprise recog test,2023.1.3,59.86514776817705,
137,0,137,0,,,,,,,,,,,,,,,,,,,,,,,,,,,,,,,,,,657.1314720999999,658.1545915999995,655.7395257999997,655.7395257999997,655.7395257999997,655.7395257999997,old_sceneIn_21.png,138,4.0,1.3965399999997317,,041,01,2025-02-13_16h33.08.776,Surprise recog test,2023.1.3,59.86514776817705,
138,0,138,0,,,,,,,,,,,,,,,,,,,,,,,,,,,,,,,,,,659.2771534000003,660.3089512000006,658.1545915999995,658.1545915999995,658.1545915999995,658.1545915999995,old_sceneIn_48.png,139,4.0,1.1248611999999412,,041,01,2025-02-13_16h33.08.776,Surprise recog test,2023.1.3,59.86514776817705,
139,0,139,0,,,,,,,,,,,,,,,,,,,,,,,,,,,,,,,,,,661.8221424999992,662.8429169999999,660.3089512000006,660.3089512000006,660.3089512000006,660.3089512000006,new_stationery_28.png,140,1.0,1.5134133999999904,,041,01,2025-02-13_16h33.08.776,Surprise recog test,2023.1.3,59.86514776817705,
140,0,140,0,,,,,,,,,,,,,,,,,,,,,,,,,,,,,,,,,,665.1537503,666.171730600001,662.8429169999999,662.8429169999999,662.8429169999999,662.8429169999999,old_sceneIn_12.png,141,3.0,2.3146598000002996,,041,01,2025-02-13_16h33.08.776,Surprise recog test,2023.1.3,59.86514776817705,
141,0,141,0,,,,,,,,,,,,,,,,,,,,,,,,,,,,,,,,,,668.3630756000002,,666.171730600001,666.171730600001,666.171730600001,666.171730600001,new_stationery_18.png,142,4.0,2.18755069999861,,041,01,2025-02-13_16h33.08.776,Surprise recog test,2023.1.3,59.86514776817705,
142,0,142,0,,,,,,,,,,,,,,,,,,,,,,,,,,,,,,,,,,671.141388,672.164074100001,669.3864539999995,669.3864539999995,669.3864539999995,669.3864539999995,new_sceneIn_8.png,143,3.0,1.7522655000011582,,041,01,2025-02-13_16h33.08.776,Surprise recog test,2023.1.3,59.86514776817705,
143,0,143,0,,,,,,,,,,,,,,,,,,,,,,,,,,,,,,,,,,673.3952821000003,674.4053239000004,672.164074100001,672.164074100001,672.164074100001,672.164074100001,old_fruit_32.png,144,2.0,1.2338078000011592,,041,01,2025-02-13_16h33.08.776,Surprise recog test,2023.1.3,59.86514776817705,
144,0,144,0,,,,,,,,,,,,,,,,,,,,,,,,,,,,,,,,,,676.7400197999996,677.764087900001,674.4053239000004,674.4053239000004,674.4053239000004,674.4053239000004,new_sceneOut_30.png,145,4.0,2.33314910000081,,041,01,2025-02-13_16h33.08.776,Surprise recog test,2023.1.3,59.86514776817705,
145,0,145,0,,,,,,,,,,,,,,,,,,,,,,,,,,,,,,,,,,679.2652706999997,680.2748401000008,677.764087900001,677.764087900001,677.764087900001,677.764087900001,new_stationery_42.png,146,3.0,1.50141369999983,,041,01,2025-02-13_16h33.08.776,Surprise recog test,2023.1.3,59.86514776817705,
146,0,146,0,,,,,,,,,,,,,,,,,,,,,,,,,,,,,,,,,,681.5501521000006,682.5684591999998,680.2748401000008,680.2748401000008,680.2748401000008,680.2748401000008,new_sceneIn_23.png,147,3.0,1.2716438999996171,,041,01,2025-02-13_16h33.08.776,Surprise recog test,2023.1.3,59.86514776817705,
147,0,147,0,,,,,,,,,,,,,,,,,,,,,,,,,,,,,,,,,,684.3080217999996,685.3301895000004,682.5684591999998,682.5684591999998,682.5684591999998,682.5684591999998,new_sceneOut_14.png,148,3.0,1.739284299999781,,041,01,2025-02-13_16h33.08.776,Surprise recog test,2023.1.3,59.86514776817705,
148,0,148,0,,,,,,,,,,,,,,,,,,,,,,,,,,,,,,,,,,687.5119462000002,688.5262518,685.3301895000004,685.3301895000004,685.3301895000004,685.3301895000004,new_stationery_41.png,149,4.0,2.186339300000327,,041,01,2025-02-13_16h33.08.776,Surprise recog test,2023.1.3,59.86514776817705,
149,0,149,0,,,,,,,,,,,,,,,,,,,,,,,,,,,,,,,,,,690.3209363000005,691.3500963999995,688.5262518,688.5262518,688.5262518,688.5262518,new_stationery_17.png,150,3.0,1.7916167000003043,,041,01,2025-02-13_16h33.08.776,Surprise recog test,2023.1.3,59.86514776817705,
150,0,150,0,,,,,,,,,,,,,,,,,,,,,,,,,,,,,,,,,,692.7433079000002,693.7595074000001,691.3500963999995,691.3500963999995,691.3500963999995,691.3500963999995,old_sceneOut_3.png,151,3.0,1.3933089000001928,,041,01,2025-02-13_16h33.08.776,Surprise recog test,2023.1.3,59.86514776817705,
151,0,151,0,,,,,,,,,,,,,,,,,,,,,,,,,,,,,,,,,,695.6738655000008,696.6918863999999,693.7595074000001,693.7595074000001,693.7595074000001,693.7595074000001,new_fruit_47.png,152,3.0,1.9142908999983774,,041,01,2025-02-13_16h33.08.776,Surprise recog test,2023.1.3,59.86514776817705,
152,0,152,0,,,,,,,,,,,,,,,,,,,,,,,,,,,,,,,,,,697.8440821999993,698.8664456999995,696.6918863999999,696.6918863999999,696.6918863999999,696.6918863999999,old_fruit_44.png,153,2.0,1.1457118000016635,,041,01,2025-02-13_16h33.08.776,Surprise recog test,2023.1.3,59.86514776817705,
153,0,153,0,,,,,,,,,,,,,,,,,,,,,,,,,,,,,,,,,,700.0376125000003,701.0631293000006,698.8664456999995,698.8664456999995,698.8664456999995,698.8664456999995,old_stationery_23.png,154,2.0,1.169915200000105,,041,01,2025-02-13_16h33.08.776,Surprise recog test,2023.1.3,59.86514776817705,
154,0,154,0,,,,,,,,,,,,,,,,,,,,,,,,,,,,,,,,,,701.8537133000009,702.8639504000002,701.0631293000006,701.0631293000006,701.0631293000006,701.0631293000006,old_stationery_48.png,155,2.0,0.7934385999997176,,041,01,2025-02-13_16h33.08.776,Surprise recog test,2023.1.3,59.86514776817705,
155,0,155,0,,,,,,,,,,,,,,,,,,,,,,,,,,,,,,,,,,705.1387529000003,706.1606343000003,702.8639504000002,702.8639504000002,702.8639504000002,702.8639504000002,old_sceneOut_25.png,156,3.0,2.268694200000027,,041,01,2025-02-13_16h33.08.776,Surprise recog test,2023.1.3,59.86514776817705,
156,0,156,0,,,,,,,,,,,,,,,,,,,,,,,,,,,,,,,,,,707.6252337000005,708.6341632999993,706.1606343000003,706.1606343000003,706.1606343000003,706.1606343000003,old_stationery_13.png,157,1.0,1.4646037999991677,,041,01,2025-02-13_16h33.08.776,Surprise recog test,2023.1.3,59.86514776817705,
157,0,157,0,,,,,,,,,,,,,,,,,,,,,,,,,,,,,,,,,,711.2265657000007,712.2497394000002,708.6341632999993,708.6341632999993,708.6341632999993,708.6341632999993,new_sceneOut_31.png,158,3.0,2.5883171999994374,,041,01,2025-02-13_16h33.08.776,Surprise recog test,2023.1.3,59.86514776817705,
158,0,158,0,,,,,,,,,,,,,,,,,,,,,,,,,,,,,,,,,,713.4121531000001,714.4352347999993,712.2497394000002,712.2497394000002,712.2497394000002,712.2497394000002,new_sceneOut_25.png,159,3.0,1.1620505999999295,,041,01,2025-02-13_16h33.08.776,Surprise recog test,2023.1.3,59.86514776817705,
159,0,159,0,,,,,,,,,,,,,,,,,,,,,,,,,,,,,,,,,,716.5094855000007,717.5326698000008,714.4352347999993,714.4352347999993,714.4352347999993,714.4352347999993,old_stationery_34.png,160,3.0,2.076155999999173,,041,01,2025-02-13_16h33.08.776,Surprise recog test,2023.1.3,59.86514776817705,
160,0,160,0,,,,,,,,,,,,,,,,,,,,,,,,,,,,,,,,,,719.8133340000004,720.828366400001,717.5326698000008,717.5326698000008,717.5326698000008,717.5326698000008,new_sceneIn_1.png,161,4.0,2.282463199999256,,041,01,2025-02-13_16h33.08.776,Surprise recog test,2023.1.3,59.86514776817705,
161,0,161,0,,,,,,,,,,,,,,,,,,,,,,,,,,,,,,,,,,722.4600644000002,,720.828366400001,720.828366400001,720.828366400001,720.828366400001,new_fruit_48.png,162,3.0,1.6276278999994247,,041,01,2025-02-13_16h33.08.776,Surprise recog test,2023.1.3,59.86514776817705,
162,0,162,0,,,,,,,,,,,,,,,,,,,,,,,,,,,,,,,,,,724.9246808999997,725.9328017999997,723.4802899000006,723.4802899000006,723.4802899000006,723.4802899000006,old_sceneIn_22.png,163,2.0,1.440539200000785,,041,01,2025-02-13_16h33.08.776,Surprise recog test,2023.1.3,59.86514776817705,
163,0,163,0,,,,,,,,,,,,,,,,,,,,,,,,,,,,,,,,,,727.5509132000007,728.5752809999994,725.9328017999997,725.9328017999997,725.9328017999997,725.9328017999997,new_stationery_27.png,164,4.0,1.6140419999992446,,041,01,2025-02-13_16h33.08.776,Surprise recog test,2023.1.3,59.86514776817705,
164,0,164,0,,,,,,,,,,,,,,,,,,,,,,,,,,,,,,,,,,729.5117621999998,730.5253030999993,728.5752809999994,728.5752809999994,728.5752809999994,728.5752809999994,new_stationery_14.png,165,4.0,0.9383227999987866,,041,01,2025-02-13_16h33.08.776,Surprise recog test,2023.1.3,59.86514776817705,
165,0,165,0,,,,,,,,,,,,,,,,,,,,,,,,,,,,,,,,,,731.7903059,732.8051649999998,730.5253030999993,730.5253030999993,730.5253030999993,730.5253030999993,old_stationery_31.png,166,3.0,1.2653418999998394,,041,01,2025-02-13_16h33.08.776,Surprise recog test,2023.1.3,59.86514776817705,
166,0,166,0,,,,,,,,,,,,,,,,,,,,,,,,,,,,,,,,,,734.5575792,735.5753265999992,732.8051649999998,732.8051649999998,732.8051649999998,732.8051649999998,old_stationery_22.png,167,4.0,1.747158500000296,,041,01,2025-02-13_16h33.08.776,Surprise recog test,2023.1.3,59.86514776817705,
167,0,167,0,,,,,,,,,,,,,,,,,,,,,,,,,,,,,,,,,,736.9945888000002,738.0220504000008,735.5753265999992,735.5753265999992,735.5753265999992,735.5753265999992,new_sceneIn_3.png,168,3.0,1.4133148000000801,,041,01,2025-02-13_16h33.08.776,Surprise recog test,2023.1.3,59.86514776817705,
168,0,168,0,,,,,,,,,,,,,,,,,,,,,,,,,,,,,,,,,,739.0484612,740.0731859000007,738.0220504000008,738.0220504000008,738.0220504000008,738.0220504000008,new_sceneIn_28.png,169,3.0,1.024953699999969,,041,01,2025-02-13_16h33.08.776,Surprise recog test,2023.1.3,59.86514776817705,
169,0,169,0,,,,,,,,,,,,,,,,,,,,,,,,,,,,,,,,,,740.8279430000002,741.8536449000003,740.0731859000007,740.0731859000007,740.0731859000007,740.0731859000007,old_fruit_42.png,170,3.0,0.7566779000007955,,041,01,2025-02-13_16h33.08.776,Surprise recog test,2023.1.3,59.86514776817705,
170,0,170,0,,,,,,,,,,,,,,,,,,,,,,,,,,,,,,,,,,743.7193062000006,744.7437307,741.8536449000003,741.8536449000003,741.8536449000003,741.8536449000003,new_sceneOut_38.png,171,3.0,1.8669308999997156,,041,01,2025-02-13_16h33.08.776,Surprise recog test,2023.1.3,59.86514776817705,
171,0,171,0,,,,,,,,,,,,,,,,,,,,,,,,,,,,,,,,,,745.6251659999998,746.6340586000006,744.7437307,744.7437307,744.7437307,744.7437307,new_sceneIn_9.png,172,3.0,0.876601899999514,,041,01,2025-02-13_16h33.08.776,Surprise recog test,2023.1.3,59.86514776817705,
172,0,172,0,,,,,,,,,,,,,,,,,,,,,,,,,,,,,,,,,,748.1701173000001,749.1987917999995,746.6340586000006,746.6340586000006,746.6340586000006,746.6340586000006,old_sceneIn_28.png,173,3.0,1.5314744999996037,,041,01,2025-02-13_16h33.08.776,Surprise recog test,2023.1.3,59.86514776817705,
173,0,173,0,,,,,,,,,,,,,,,,,,,,,,,,,,,,,,,,,,750.3783022000007,751.3945323999997,749.1987917999995,749.1987917999995,749.1987917999995,749.1987917999995,old_sceneIn_24.png,174,4.0,1.1805660999998508,,041,01,2025-02-13_16h33.08.776,Surprise recog test,2023.1.3,59.86514776817705,
174,0,174,0,,,,,,,,,,,,,,,,,,,,,,,,,,,,,,,,,,752.9835094999999,,751.3945323999997,751.3945323999997,751.3945323999997,751.3945323999997,new_sceneIn_15.png,175,4.0,1.587353400000211,,041,01,2025-02-13_16h33.08.776,Surprise recog test,2023.1.3,59.86514776817705,
175,0,175,0,,,,,,,,,,,,,,,,,,,,,,,,,,,,,,,,,,756.0612275999993,757.0861848999994,754.0062151000002,754.0062151000002,754.0062151000002,754.0062151000002,old_sceneIn_7.png,176,2.0,2.049968799999988,,041,01,2025-02-13_16h33.08.776,Surprise recog test,2023.1.3,59.86514776817705,
176,0,176,0,,,,,,,,,,,,,,,,,,,,,,,,,,,,,,,,,,758.5198273999995,759.5397800999999,757.0861848999994,757.0861848999994,757.0861848999994,757.0861848999994,old_stationery_38.png,177,2.0,1.434571899999355,,041,01,2025-02-13_16h33.08.776,Surprise recog test,2023.1.3,59.86514776817705,
177,0,177,0,,,,,,,,,,,,,,,,,,,,,,,,,,,,,,,,,,760.4707290000006,761.4916668999995,759.5397800999999,759.5397800999999,759.5397800999999,759.5397800999999,old_stationery_7.png,178,2.0,0.9259485000002314,,041,01,2025-02-13_16h33.08.776,Surprise recog test,2023.1.3,59.86514776817705,
178,0,178,0,,,,,,,,,,,,,,,,,,,,,,,,,,,,,,,,,,762.9547125999998,763.977641200001,761.4916668999995,761.4916668999995,761.4916668999995,761.4916668999995,new_stationery_43.png,179,5.0,1.4653858000001492,,041,01,2025-02-13_16h33.08.776,Surprise recog test,2023.1.3,59.86514776817705,
179,0,179,0,,,,,,,,,,,,,,,,,,,,,,,,,,,,,,,,,,765.3130774000001,766.3454994999993,763.977641200001,763.977641200001,763.977641200001,763.977641200001,old_sceneIn_40.png,180,4.0,1.3374610999999277,,041,01,2025-02-13_16h33.08.776,Surprise recog test,2023.1.3,59.86514776817705,
180,0,180,0,,,,,,,,,,,,,,,,,,,,,,,,,,,,,,,,,,767.3081476999996,768.3237332000008,766.3454994999993,766.3454994999993,766.3454994999993,766.3454994999993,old_sceneOut_27.png,181,4.0,0.9624246999992465,,041,01,2025-02-13_16h33.08.776,Surprise recog test,2023.1.3,59.86514776817705,
181,0,181,0,,,,,,,,,,,,,,,,,,,,,,,,,,,,,,,,,,769.6529207999993,770.6821737000009,768.3237332000008,768.3237332000008,768.3237332000008,768.3237332000008,old_fruit_33.png,182,1.0,1.329314800001157,,041,01,2025-02-13_16h33.08.776,Surprise recog test,2023.1.3,59.86514776817705,
182,0,182,0,,,,,,,,,,,,,,,,,,,,,,,,,,,,,,,,,,772.6370031999995,773.6696757000009,770.6821737000009,770.6821737000009,770.6821737000009,770.6821737000009,old_sceneOut_4.png,183,4.0,1.9573515000010957,,041,01,2025-02-13_16h33.08.776,Surprise recog test,2023.1.3,59.86514776817705,
183,0,183,0,,,,,,,,,,,,,,,,,,,,,,,,,,,,,,,,,,774.9408349999994,775.9694870999992,773.6696757000009,773.6696757000009,773.6696757000009,773.6696757000009,old_stationery_17.png,184,4.0,1.2742275000000518,,041,01,2025-02-13_16h33.08.776,Surprise recog test,2023.1.3,59.86514776817705,
184,0,184,0,,,,,,,,,,,,,,,,,,,,,,,,,,,,,,,,,,777.2747251000001,778.2891701999997,775.9694870999992,775.9694870999992,775.9694870999992,775.9694870999992,new_fruit_17.png,185,1.0,1.305543000000398,,041,01,2025-02-13_16h33.08.776,Surprise recog test,2023.1.3,59.86514776817705,
185,0,185,0,,,,,,,,,,,,,,,,,,,,,,,,,,,,,,,,,,779.8638320000009,780.8919951999997,778.2891701999997,778.2891701999997,778.2891701999997,778.2891701999997,old_sceneOut_11.png,186,3.0,1.5702029999993101,,041,01,2025-02-13_16h33.08.776,Surprise recog test,2023.1.3,59.86514776817705,
186,0,186,0,,,,,,,,,,,,,,,,,,,,,,,,,,,,,,,,,,782.5159739999999,783.5413798000009,780.8919951999997,780.8919951999997,780.8919951999997,780.8919951999997,old_fruit_13.png,187,2.0,1.6263791999990644,,041,01,2025-02-13_16h33.08.776,Surprise recog test,2023.1.3,59.86514776817705,
187,0,187,0,,,,,,,,,,,,,,,,,,,,,,,,,,,,,,,,,,784.6807712999998,785.7007933000004,783.5413798000009,783.5413798000009,783.5413798000009,783.5413798000009,old_fruit_40.png,188,1.0,1.1403226000002178,,041,01,2025-02-13_16h33.08.776,Surprise recog test,2023.1.3,59.86514776817705,
188,0,188,0,,,,,,,,,,,,,,,,,,,,,,,,,,,,,,,,,,787.2096191,788.2319062999995,785.7007933000004,785.7007933000004,785.7007933000004,785.7007933000004,new_stationery_36.png,189,4.0,1.5024761999993643,,041,01,2025-02-13_16h33.08.776,Surprise recog test,2023.1.3,59.86514776817705,
189,0,189,0,,,,,,,,,,,,,,,,,,,,,,,,,,,,,,,,,,790.240967400001,791.2642754000008,788.2319062999995,788.2319062999995,788.2319062999995,788.2319062999995,old_stationery_29.png,190,3.0,2.0116308000015124,,041,01,2025-02-13_16h33.08.776,Surprise recog test,2023.1.3,59.86514776817705,
190,0,190,0,,,,,,,,,,,,,,,,,,,,,,,,,,,,,,,,,,792.3139953999998,793.3336593000004,791.2642754000008,791.2642754000008,791.2642754000008,791.2642754000008,old_stationery_41.png,191,3.0,1.0484030000006896,,041,01,2025-02-13_16h33.08.776,Surprise recog test,2023.1.3,59.86514776817705,
191,0,191,0,,,,,,,,,,,,,,,,,,,,,,,,,,,,,,,,,,795.3199776000001,,793.3336593000004,793.3336593000004,793.3336593000004,793.3336593000004,old_sceneOut_28.png,192,4.0,1.9844663000003493,,041,01,2025-02-13_16h33.08.776,Surprise recog test,2023.1.3,59.86514776817705,
192,0,192,0,,,,,,,,,,,,,,,,,,,,,,,,,,,,,,,,,,797.7568319000002,,796.3529653000005,796.3529653000005,796.3529653000005,796.3529653000005,old_fruit_48.png,193,1.0,1.3971847999982856,,041,01,2025-02-13_16h33.08.776,Surprise recog test,2023.1.3,59.86514776817705,
193,0,193,0,,,,,,,,,,,,,,,,,,,,,,,,,,,,,,,,,,800.3710893000007,801.3945272000001,798.7823575000002,798.7823575000002,798.7823575000002,798.7823575000002,new_sceneOut_7.png,194,4.0,1.5880276000007143,,041,01,2025-02-13_16h33.08.776,Surprise recog test,2023.1.3,59.86514776817705,
194,0,194,0,,,,,,,,,,,,,,,,,,,,,,,,,,,,,,,,,,803.3631358000002,804.3950303000001,801.3945272000001,801.3945272000001,801.3945272000001,801.3945272000001,old_stationery_14.png,195,3.0,1.9685701000016707,,041,01,2025-02-13_16h33.08.776,Surprise recog test,2023.1.3,59.86514776817705,
195,0,195,0,,,,,,,,,,,,,,,,,,,,,,,,,,,,,,,,,,805.5517237000004,806.5668846999997,804.3950303000001,804.3950303000001,804.3950303000001,804.3950303000001,old_sceneOut_12.png,196,4.0,1.1601949999985663,,041,01,2025-02-13_16h33.08.776,Surprise recog test,2023.1.3,59.86514776817705,
196,0,196,0,,,,,,,,,,,,,,,,,,,,,,,,,,,,,,,,,,808.5802217,,806.5668846999997,806.5668846999997,806.5668846999997,806.5668846999997,old_sceneIn_46.png,197,5.0,2.0095239999991463,,041,01,2025-02-13_16h33.08.776,Surprise recog test,2023.1.3,59.86514776817705,
197,0,197,0,,,,,,,,,,,,,,,,,,,,,,,,,,,,,,,,,,810.7913652000007,811.8155069000004,809.6140360999998,809.6140360999998,809.6140360999998,809.6140360999998,old_fruit_8.png,198,1.0,1.1792640999992727,,041,01,2025-02-13_16h33.08.776,Surprise recog test,2023.1.3,59.86514776817705,
198,0,198,0,,,,,,,,,,,,,,,,,,,,,,,,,,,,,,,,,,813.4001848000007,,811.8155069000004,811.8155069000004,811.8155069000004,811.8155069000004,old_stationery_11.png,199,4.0,1.585443199999645,,041,01,2025-02-13_16h33.08.776,Surprise recog test,2023.1.3,59.86514776817705,
199,0,199,0,,,,,,,,,,,,,,,,,,,,,,,,,,,,,,,,,,816.3896203000004,817.4162495,814.4228949999997,814.4228949999997,814.4228949999997,814.4228949999997,old_sceneIn_37.png,200,3.0,1.9618485999999393,,041,01,2025-02-13_16h33.08.776,Surprise recog test,2023.1.3,59.86514776817705,
200,0,200,0,,,,,,,,,,,,,,,,,,,,,,,,,,,,,,,,,,818.9660454000004,819.9784333999996,817.4162495,817.4162495,817.4162495,817.4162495,new_fruit_5.png,201,2.0,1.544767100000172,,041,01,2025-02-13_16h33.08.776,Surprise recog test,2023.1.3,59.86514776817705,
201,0,201,0,,,,,,,,,,,,,,,,,,,,,,,,,,,,,,,,,,821.1041994000007,822.1243931000008,819.9784333999996,819.9784333999996,819.9784333999996,819.9784333999996,new_fruit_42.png,202,2.0,1.1215697999996337,,041,01,2025-02-13_16h33.08.776,Surprise recog test,2023.1.3,59.86514776817705,
202,0,202,0,,,,,,,,,,,,,,,,,,,,,,,,,,,,,,,,,,822.8919697000001,,822.1243931000008,822.1243931000008,822.1243931000008,822.1243931000008,new_fruit_26.png,203,2.0,0.7691709000009723,,041,01,2025-02-13_16h33.08.776,Surprise recog test,2023.1.3,59.86514776817705,
203,0,203,0,,,,,,,,,,,,,,,,,,,,,,,,,,,,,,,,,,825.4482442999997,826.4789824,823.9201563000006,823.9201563000006,823.9201563000006,823.9201563000006,new_stationery_5.png,204,1.0,1.529776800000036,,041,01,2025-02-13_16h33.08.776,Surprise recog test,2023.1.3,59.86514776817705,
204,0,204,0,,,,,,,,,,,,,,,,,,,,,,,,,,,,,,,,,,828.4295660999996,,826.4789824,826.4789824,826.4789824,826.4789824,new_sceneIn_38.png,205,4.0,1.9534647000000405,,041,01,2025-02-13_16h33.08.776,Surprise recog test,2023.1.3,59.86514776817705,
205,0,205,0,,,,,,,,,,,,,,,,,,,,,,,,,,,,,,,,,,830.5745127999999,831.5996792000005,829.4630345999994,829.4630345999994,829.4630345999994,829.4630345999994,new_fruit_23.png,206,4.0,1.1111724999991566,,041,01,2025-02-13_16h33.08.776,Surprise recog test,2023.1.3,59.86514776817705,
206,0,206,0,,,,,,,,,,,,,,,,,,,,,,,,,,,,,,,,,,832.9067261,833.9222135,831.5996792000005,831.5996792000005,831.5996792000005,831.5996792000005,old_stationery_42.png,207,3.0,1.3098388999987947,,041,01,2025-02-13_16h33.08.776,Surprise recog test,2023.1.3,59.86514776817705,
207,0,207,0,,,,,,,,,,,,,,,,,,,,,,,,,,,,,,,,,,834.9805770000003,835.9903897999993,833.9222135,833.9222135,833.9222135,833.9222135,old_sceneIn_30.png,208,3.0,1.0539654000003793,,041,01,2025-02-13_16h33.08.776,Surprise recog test,2023.1.3,59.86514776817705,
208,0,208,0,,,,,,,,,,,,,,,,,,,,,,,,,,,,,,,,,,837.2346011000009,838.256147600001,835.9903897999993,835.9903897999993,835.9903897999993,835.9903897999993,old_fruit_38.png,209,2.0,1.240114000000176,,041,01,2025-02-13_16h33.08.776,Surprise recog test,2023.1.3,59.86514776817705,
209,0,209,0,,,,,,,,,,,,,,,,,,,,,,,,,,,,,,,,,,840.2941281000003,841.3241866000008,838.256147600001,838.256147600001,838.256147600001,838.256147600001,old_stationery_25.png,210,3.0,2.0387315999996645,,041,01,2025-02-13_16h33.08.776,Surprise recog test,2023.1.3,59.86514776817705,
210,0,210,0,,,,,,,,,,,,,,,,,,,,,,,,,,,,,,,,,,842.7741145,843.7948206000001,841.3241866000008,841.3241866000008,841.3241866000008,841.3241866000008,old_sceneIn_34.png,211,4.0,1.4517603999993298,,041,01,2025-02-13_16h33.08.776,Surprise recog test,2023.1.3,59.86514776817705,
211,0,211,0,,,,,,,,,,,,,,,,,,,,,,,,,,,,,,,,,,846.0637320999995,847.0935659000006,843.7948206000001,843.7948206000001,843.7948206000001,843.7948206000001,old_sceneIn_6.png,212,4.0,2.2715185999986716,,041,01,2025-02-13_16h33.08.776,Surprise recog test,2023.1.3,59.86514776817705,
212,0,212,0,,,,,,,,,,,,,,,,,,,,,,,,,,,,,,,,,,848.5448183000008,849.5642222000006,847.0935659000006,847.0935659000006,847.0935659000006,847.0935659000006,new_fruit_9.png,213,3.0,1.4536379000001034,,041,01,2025-02-13_16h33.08.776,Surprise recog test,2023.1.3,59.86514776817705,
213,0,213,0,,,,,,,,,,,,,,,,,,,,,,,,,,,,,,,,,,851.6440763999999,852.6633564999993,849.5642222000006,849.5642222000006,849.5642222000006,849.5642222000006,new_stationery_29.png,214,3.0,2.0795251000017743,,041,01,2025-02-13_16h33.08.776,Surprise recog test,2023.1.3,59.86514776817705,
214,0,214,0,,,,,,,,,,,,,,,,,,,,,,,,,,,,,,,,,,854.0411774000004,855.0530192999995,852.6633564999993,852.6633564999993,852.6633564999993,852.6633564999993,new_sceneIn_22.png,215,4.0,1.3772828000001027,,041,01,2025-02-13_16h33.08.776,Surprise recog test,2023.1.3,59.86514776817705,
215,0,215,0,,,,,,,,,,,,,,,,,,,,,,,,,,,,,,,,,,856.2762038000001,857.3041911,855.0530192999995,855.0530192999995,855.0530192999995,855.0530192999995,new_sceneIn_16.png,216,4.0,1.218912199999977,,041,01,2025-02-13_16h33.08.776,Surprise recog test,2023.1.3,59.86514776817705,
216,0,216,0,,,,,,,,,,,,,,,,,,,,,,,,,,,,,,,,,,858.638148,,857.3041911,857.3041911,857.3041911,857.3041911,old_fruit_10.png,217,1.0,1.3356526999996277,,041,01,2025-02-13_16h33.08.776,Surprise recog test,2023.1.3,59.86514776817705,
217,0,217,0,,,,,,,,,,,,,,,,,,,,,,,,,,,,,,,,,,860.6619460000002,861.6899279000008,859.6760398999995,859.6760398999995,859.6760398999995,859.6760398999995,old_sceneIn_31.png,218,1.0,0.9891449000006105,,041,01,2025-02-13_16h33.08.776,Surprise recog test,2023.1.3,59.86514776817705,
218,0,218,0,,,,,,,,,,,,,,,,,,,,,,,,,,,,,,,,,,863.4562513000001,864.4647970999995,861.6899279000008,861.6899279000008,861.6899279000008,861.6899279000008,old_stationery_44.png,219,3.0,1.7658776999996917,,041,01,2025-02-13_16h33.08.776,Surprise recog test,2023.1.3,59.86514776817705,
219,0,219,0,,,,,,,,,,,,,,,,,,,,,,,,,,,,,,,,,,866.4430537999997,867.4715314999994,864.4647970999995,864.4647970999995,864.4647970999995,864.4647970999995,new_sceneIn_41.png,220,3.0,1.9741219999996247,,041,01,2025-02-13_16h33.08.776,Surprise recog test,2023.1.3,59.86514776817705,
220,0,220,0,,,,,,,,,,,,,,,,,,,,,,,,,,,,,,,,,,869.4111835000003,870.4198149000003,867.4715314999994,867.4715314999994,867.4715314999994,867.4715314999994,new_fruit_16.png,221,3.0,1.937524000000849,,041,01,2025-02-13_16h33.08.776,Surprise recog test,2023.1.3,59.86514776817705,
221,0,221,0,,,,,,,,,,,,,,,,,,,,,,,,,,,,,,,,,,871.7313195999996,872.7449479000006,870.4198149000003,870.4198149000003,870.4198149000003,870.4198149000003,new_stationery_50.png,222,4.0,1.3055557999996381,,041,01,2025-02-13_16h33.08.776,Surprise recog test,2023.1.3,59.86514776817705,
222,0,222,0,,,,,,,,,,,,,,,,,,,,,,,,,,,,,,,,,,874.2282794000002,875.2526871000009,872.7449479000006,872.7449479000006,872.7449479000006,872.7449479000006,new_sceneIn_40.png,223,4.0,1.4815572000006796,,041,01,2025-02-13_16h33.08.776,Surprise recog test,2023.1.3,59.86514776817705,
223,0,223,0,,,,,,,,,,,,,,,,,,,,,,,,,,,,,,,,,,876.8869381000004,,875.2526871000009,875.2526871000009,875.2526871000009,875.2526871000009,old_fruit_31.png,224,2.0,1.6362306999999419,,041,01,2025-02-13_16h33.08.776,Surprise recog test,2023.1.3,59.86514776817705,
224,0,224,0,,,,,,,,,,,,,,,,,,,,,,,,,,,,,,,,,,879.3203056000002,880.3398271999995,877.9127850999994,877.9127850999994,877.9127850999994,877.9127850999994,old_sceneOut_32.png,225,3.0,1.4035032000010688,,041,01,2025-02-13_16h33.08.776,Surprise recog test,2023.1.3,59.86514776817705,
225,0,225,0,,,,,,,,,,,,,,,,,,,,,,,,,,,,,,,,,,881.7620370999994,882.7950424999999,880.3398271999995,880.3398271999995,880.3398271999995,880.3398271999995,old_sceneOut_14.png,226,3.0,1.4255739000000176,,041,01,2025-02-13_16h33.08.776,Surprise recog test,2023.1.3,59.86514776817705,
226,0,226,0,,,,,,,,,,,,,,,,,,,,,,,,,,,,,,,,,,885.1253680999998,886.1457484000002,882.7950424999999,882.7950424999999,882.7950424999999,882.7950424999999,new_stationery_12.png,227,4.0,2.3315910000001168,,041,01,2025-02-13_16h33.08.776,Surprise recog test,2023.1.3,59.86514776817705,
227,0,227,0,,,,,,,,,,,,,,,,,,,,,,,,,,,,,,,,,,887.046530900001,,886.1457484000002,886.1457484000002,886.1457484000002,886.1457484000002,new_sceneOut_36.png,228,4.0,0.9037734000012279,,041,01,2025-02-13_16h33.08.776,Surprise recog test,2023.1.3,59.86514776817705,
228,0,228,0,,,,,,,,,,,,,,,,,,,,,,,,,,,,,,,,,,889.5408098999997,890.5678129999997,888.0662505,888.0662505,888.0662505,888.0662505,new_fruit_10.png,229,5.0,1.46969849999914,,041,01,2025-02-13_16h33.08.776,Surprise recog test,2023.1.3,59.86514776817705,
229,0,229,0,,,,,,,,,,,,,,,,,,,,,,,,,,,,,,,,,,891.8999144999998,,890.5678129999997,890.5678129999997,890.5678129999997,890.5678129999997,old_sceneOut_21.png,230,4.0,1.3330447999996977,,041,01,2025-02-13_16h33.08.776,Surprise recog test,2023.1.3,59.86514776817705,
230,0,230,0,,,,,,,,,,,,,,,,,,,,,,,,,,,,,,,,,,894.2401098999999,895.2605253000002,892.9309389000009,892.9309389000009,892.9309389000009,892.9309389000009,new_sceneOut_45.png,231,4.0,1.311585199999172,,041,01,2025-02-13_16h33.08.776,Surprise recog test,2023.1.3,59.86514776817705,
231,0,231,0,,,,,,,,,,,,,,,,,,,,,,,,,,,,,,,,,,896.4926075000003,897.5212967999996,895.2605253000002,895.2605253000002,895.2605253000002,895.2605253000002,old_fruit_2.png,232,1.0,1.2324236999993445,,041,01,2025-02-13_16h33.08.776,Surprise recog test,2023.1.3,59.86514776817705,
232,0,232,0,,,,,,,,,,,,,,,,,,,,,,,,,,,,,,,,,,900.6562140000005,,897.5212967999996,897.5212967999996,897.5212967999996,897.5212967999996,new_stationery_49.png,233,3.0,3.1340657000000647,,041,01,2025-02-13_16h33.08.776,Surprise recog test,2023.1.3,59.86514776817705,
233,0,233,0,,,,,,,,,,,,,,,,,,,,,,,,,,,,,,,,,,903.1299280000003,904.1664517000008,901.6906832000004,901.6906832000004,901.6906832000004,901.6906832000004,new_fruit_44.png,234,2.0,1.4398381000009977,,041,01,2025-02-13_16h33.08.776,Surprise recog test,2023.1.3,59.86514776817705,
234,0,234,0,,,,,,,,,,,,,,,,,,,,,,,,,,,,,,,,,,905.9967355999997,907.0182148000004,904.1664517000008,904.1664517000008,904.1664517000008,904.1664517000008,old_stationery_46.png,235,3.0,1.8323329000013473,,041,01,2025-02-13_16h33.08.776,Surprise recog test,2023.1.3,59.86514776817705,
235,0,235,0,,,,,,,,,,,,,,,,,,,,,,,,,,,,,,,,,,908.6390644000003,909.6713641000006,907.0182148000004,907.0182148000004,907.0182148000004,907.0182148000004,new_stationery_24.png,236,4.0,1.619375600001149,,041,01,2025-02-13_16h33.08.776,Surprise recog test,2023.1.3,59.86514776817705,
236,0,236,0,,,,,,,,,,,,,,,,,,,,,,,,,,,,,,,,,,910.8080879999998,911.8208510000004,909.6713641000006,909.6713641000006,909.6713641000006,909.6713641000006,new_stationery_45.png,237,4.0,1.138015299999097,,041,01,2025-02-13_16h33.08.776,Surprise recog test,2023.1.3,59.86514776817705,
237,0,237,0,,,,,,,,,,,,,,,,,,,,,,,,,,,,,,,,,,913.2148247999994,914.2360208999999,911.8208510000004,911.8208510000004,911.8208510000004,911.8208510000004,old_sceneOut_29.png,238,3.0,1.388814399999319,,041,01,2025-02-13_16h33.08.776,Surprise recog test,2023.1.3,59.86514776817705,
238,0,238,0,,,,,,,,,,,,,,,,,,,,,,,,,,,,,,,,,,915.5902182999998,916.6078696000004,914.2360208999999,914.2360208999999,914.2360208999999,914.2360208999999,new_sceneOut_50.png,239,3.0,1.3575344000000769,,041,01,2025-02-13_16h33.08.776,Surprise recog test,2023.1.3,59.86514776817705,
239,0,239,0,,,,,,,,,,,,,,,,,,,,,,,,,,,,,,,,,,918.1045042000005,,916.6078696000004,916.6078696000004,916.6078696000004,916.6078696000004,old_fruit_5.png,240,1.0,1.490506699999969,,041,01,2025-02-13_16h33.08.776,Surprise recog test,2023.1.3,59.86514776817705,
240,0,240,0,,,,,,,,,,,,,,,,,,,,,,,,,,,,,,,,,,920.7047187999997,921.7241243999997,919.1365361999997,919.1365361999997,919.1365361999997,919.1365361999997,old_fruit_37.png,241,2.0,1.57064790000004,,041,01,2025-02-13_16h33.08.776,Surprise recog test,2023.1.3,59.86514776817705,
241,0,241,0,,,,,,,,,,,,,,,,,,,,,,,,,,,,,,,,,,923.8017333000007,924.8264538000003,921.7241243999997,921.7241243999997,921.7241243999997,921.7241243999997,new_sceneOut_41.png,242,2.0,2.0787927999990643,,041,01,2025-02-13_16h33.08.776,Surprise recog test,2023.1.3,59.86514776817705,
242,0,242,0,,,,,,,,,,,,,,,,,,,,,,,,,,,,,,,,,,926.0695899000002,927.0893037000005,924.8264538000003,924.8264538000003,924.8264538000003,924.8264538000003,old_fruit_49.png,243,1.0,1.2432459999999992,,041,01,2025-02-13_16h33.08.776,Surprise recog test,2023.1.3,59.86514776817705,
243,0,243,0,,,,,,,,,,,,,,,,,,,,,,,,,,,,,,,,,,928.5074662000006,929.5188627999996,927.0893037000005,927.0893037000005,927.0893037000005,927.0893037000005,old_sceneOut_15.png,244,3.0,1.4178845000005822,,041,01,2025-02-13_16h33.08.776,Surprise recog test,2023.1.3,59.86514776817705,
244,0,244,0,,,,,,,,,,,,,,,,,,,,,,,,,,,,,,,,,,932.3012777000004,933.3335511000005,929.5188627999996,929.5188627999996,929.5188627999996,929.5188627999996,old_stationery_20.png,245,3.0,2.778417100000297,,041,01,2025-02-13_16h33.08.776,Surprise recog test,2023.1.3,59.86514776817705,
245,0,245,0,,,,,,,,,,,,,,,,,,,,,,,,,,,,,,,,,,934.4985216000005,935.5174322000003,933.3335511000005,933.3335511000005,933.3335511000005,933.3335511000005,old_sceneOut_13.png,246,3.0,1.1654019999987213,,041,01,2025-02-13_16h33.08.776,Surprise recog test,2023.1.3,59.86514776817705,
246,0,246,0,,,,,,,,,,,,,,,,,,,,,,,,,,,,,,,,,,936.9038199999995,,935.5174322000003,935.5174322000003,935.5174322000003,935.5174322000003,new_stationery_38.png,247,4.0,1.38544709999951,,041,01,2025-02-13_16h33.08.776,Surprise recog test,2023.1.3,59.86514776817705,
247,0,247,0,,,,,,,,,,,,,,,,,,,,,,,,,,,,,,,,,,939.1758241000007,940.1912878000003,937.9403867000001,937.9403867000001,937.9403867000001,937.9403867000001,old_fruit_24.png,248,1.0,1.2372493000002578,,041,01,2025-02-13_16h33.08.776,Surprise recog test,2023.1.3,59.86514776817705,
248,0,248,0,,,,,,,,,,,,,,,,,,,,,,,,,,,,,,,,,,941.8711077000007,942.8927194999997,940.1912878000003,940.1912878000003,940.1912878000003,940.1912878000003,new_stationery_48.png,249,3.0,1.6697604000000865,,041,01,2025-02-13_16h33.08.776,Surprise recog test,2023.1.3,59.86514776817705,
249,0,249,0,,,,,,,,,,,,,,,,,,,,,,,,,,,,,,,,,,944.5256470000004,,942.8927194999997,942.8927194999997,942.8927194999997,942.8927194999997,new_fruit_41.png,250,4.0,1.6349774000009347,,041,01,2025-02-13_16h33.08.776,Surprise recog test,2023.1.3,59.86514776817705,
250,0,250,0,,,,,,,,,,,,,,,,,,,,,,,,,,,,,,,,,,946.9755399999995,947.9836316000001,945.5537244999996,945.5537244999996,945.5537244999996,945.5537244999996,old_sceneOut_7.png,251,3.0,1.4148786000005202,,041,01,2025-02-13_16h33.08.776,Surprise recog test,2023.1.3,59.86514776817705,
251,0,251,0,,,,,,,,,,,,,,,,,,,,,,,,,,,,,,,,,,949.7222327,950.7328455999996,947.9836316000001,947.9836316000001,947.9836316000001,947.9836316000001,old_stationery_27.png,252,2.0,1.7346674999989773,,041,01,2025-02-13_16h33.08.776,Surprise recog test,2023.1.3,59.86514776817705,
252,0,252,0,,,,,,,,,,,,,,,,,,,,,,,,,,,,,,,,,,952.8206227999999,953.8474031000005,950.7328455999996,950.7328455999996,950.7328455999996,950.7328455999996,new_fruit_2.png,253,3.0,2.083979699998963,,041,01,2025-02-13_16h33.08.776,Surprise recog test,2023.1.3,59.86514776817705,
253,0,253,0,,,,,,,,,,,,,,,,,,,,,,,,,,,,,,,,,,955.3840006999999,956.4053378000008,953.8474031000005,953.8474031000005,953.8474031000005,953.8474031000005,old_sceneIn_50.png,254,2.0,1.5358201999988523,,041,01,2025-02-13_16h33.08.776,Surprise recog test,2023.1.3,59.86514776817705,
254,0,254,0,,,,,,,,,,,,,,,,,,,,,,,,,,,,,,,,,,957.3106000999996,958.3376802000002,956.4053378000008,956.4053378000008,956.4053378000008,956.4053378000008,new_fruit_32.png,255,2.0,0.9093056000001525,,041,01,2025-02-13_16h33.08.776,Surprise recog test,2023.1.3,59.86514776817705,
255,0,255,0,,,,,,,,,,,,,,,,,,,,,,,,,,,,,,,,,,959.4955282999999,960.5183003000002,958.3376802000002,958.3376802000002,958.3376802000002,958.3376802000002,old_fruit_30.png,256,2.0,1.1611838000007992,,041,01,2025-02-13_16h33.08.776,Surprise recog test,2023.1.3,59.86514776817705,
256,0,256,0,,,,,,,,,,,,,,,,,,,,,,,,,,,,,,,,,,962.2022828999998,963.213678600001,960.5183003000002,960.5183003000002,960.5183003000002,960.5183003000002,new_sceneOut_39.png,257,4.0,1.6847854000006919,,041,01,2025-02-13_16h33.08.776,Surprise recog test,2023.1.3,59.86514776817705,
257,0,257,0,,,,,,,,,,,,,,,,,,,,,,,,,,,,,,,,,,965.1302023999997,966.1628371999996,963.213678600001,963.213678600001,963.213678600001,963.213678600001,old_sceneIn_14.png,258,2.0,1.9126352999992378,,041,01,2025-02-13_16h33.08.776,Surprise recog test,2023.1.3,59.86514776817705,
258,0,258,0,,,,,,,,,,,,,,,,,,,,,,,,,,,,,,,,,,967.8914213999997,968.90157,966.1628371999996,966.1628371999996,966.1628371999996,966.1628371999996,new_sceneIn_43.png,259,3.0,1.7295150000009016,,041,01,2025-02-13_16h33.08.776,Surprise recog test,2023.1.3,59.86514776817705,
259,0,259,0,,,,,,,,,,,,,,,,,,,,,,,,,,,,,,,,,,970.177075900001,971.1859526000007,968.90157,968.90157,968.90157,968.90157,new_stationery_22.png,260,2.0,1.2694154000000708,,041,01,2025-02-13_16h33.08.776,Surprise recog test,2023.1.3,59.86514776817705,
260,0,260,0,,,,,,,,,,,,,,,,,,,,,,,,,,,,,,,,,,972.503169900001,973.5354463000003,971.1859526000007,971.1859526000007,971.1859526000007,971.1859526000007,new_stationery_9.png,261,4.0,1.3129308999996283,,041,01,2025-02-13_16h33.08.776,Surprise recog test,2023.1.3,59.86514776817705,
261,0,261,0,,,,,,,,,,,,,,,,,,,,,,,,,,,,,,,,,,974.8990513000008,975.9074782000007,973.5354463000003,973.5354463000003,973.5354463000003,973.5354463000003,new_sceneIn_39.png,262,4.0,1.3636649000000034,,041,01,2025-02-13_16h33.08.776,Surprise recog test,2023.1.3,59.86514776817705,
262,0,262,0,,,,,,,,,,,,,,,,,,,,,,,,,,,,,,,,,,977.7513333999996,978.7763054999996,975.9074782000007,975.9074782000007,975.9074782000007,975.9074782000007,new_sceneIn_44.png,263,4.0,1.8389394000005268,,041,01,2025-02-13_16h33.08.776,Surprise recog test,2023.1.3,59.86514776817705,
263,0,263,0,,,,,,,,,,,,,,,,,,,,,,,,,,,,,,,,,,980.2110482000007,981.2419878000001,978.7763054999996,978.7763054999996,978.7763054999996,978.7763054999996,new_fruit_15.png,264,2.0,1.4383684000003996,,041,01,2025-02-13_16h33.08.776,Surprise recog test,2023.1.3,59.86514776817705,
264,0,264,0,,,,,,,,,,,,,,,,,,,,,,,,,,,,,,,,,,983.1931373999996,,981.2419878000001,981.2419878000001,981.2419878000001,981.2419878000001,new_stationery_32.png,265,2.0,1.9549334999992425,,041,01,2025-02-13_16h33.08.776,Surprise recog test,2023.1.3,59.86514776817705,
265,0,265,0,,,,,,,,,,,,,,,,,,,,,,,,,,,,,,,,,,985.6820198000005,986.7119961999997,984.2256610000004,984.2256610000004,984.2256610000004,984.2256610000004,old_stationery_16.png,266,2.0,1.4558051000003616,,041,01,2025-02-13_16h33.08.776,Surprise recog test,2023.1.3,59.86514776817705,
266,0,266,0,,,,,,,,,,,,,,,,,,,,,,,,,,,,,,,,,,988.1071085000003,989.1265841999993,986.7119961999997,986.7119961999997,986.7119961999997,986.7119961999997,new_fruit_12.png,267,2.0,1.3967537999997148,,041,01,2025-02-13_16h33.08.776,Surprise recog test,2023.1.3,59.86514776817705,
267,0,267,0,,,,,,,,,,,,,,,,,,,,,,,,,,,,,,,,,,990.9361867999996,991.9679102999999,989.1265841999993,989.1265841999993,989.1265841999993,989.1265841999993,new_sceneIn_42.png,268,4.0,1.8110776000012265,,041,01,2025-02-13_16h33.08.776,Surprise recog test,2023.1.3,59.86514776817705,
268,0,268,0,,,,,,,,,,,,,,,,,,,,,,,,,,,,,,,,,,993.5406693999994,994.5586954999999,991.9679102999999,991.9679102999999,991.9679102999999,991.9679102999999,old_fruit_39.png,269,2.0,1.5769135000009555,,041,01,2025-02-13_16h33.08.776,Surprise recog test,2023.1.3,59.86514776817705,
269,0,269,0,,,,,,,,,,,,,,,,,,,,,,,,,,,,,,,,,,996.9337457000001,997.9573626000001,994.5586954999999,994.5586954999999,994.5586954999999,994.5586954999999,old_fruit_1.png,270,3.0,2.368014100000437,,041,01,2025-02-13_16h33.08.776,Surprise recog test,2023.1.3,59.86514776817705,
270,0,270,0,,,,,,,,,,,,,,,,,,,,,,,,,,,,,,,,,,998.892216100001,999.9170144,997.9573626000001,997.9573626000001,997.9573626000001,997.9573626000001,new_sceneIn_36.png,271,4.0,0.9388003999993089,,041,01,2025-02-13_16h33.08.776,Surprise recog test,2023.1.3,59.86514776817705,
271,0,271,0,,,,,,,,,,,,,,,,,,,,,,,,,,,,,,,,,,1001.0807404000006,1002.1089790999995,999.9170144,999.9170144,999.9170144,999.9170144,new_sceneIn_50.png,272,4.0,1.1657257000006211,,041,01,2025-02-13_16h33.08.776,Surprise recog test,2023.1.3,59.86514776817705,
272,0,272,0,,,,,,,,,,,,,,,,,,,,,,,,,,,,,,,,,,1003.0940800000008,1004.1218222999996,1002.1089790999995,1002.1089790999995,1002.1089790999995,1002.1089790999995,new_sceneOut_23.png,273,4.0,0.9863480999993044,,041,01,2025-02-13_16h33.08.776,Surprise recog test,2023.1.3,59.86514776817705,
273,0,273,0,,,,,,,,,,,,,,,,,,,,,,,,,,,,,,,,,,1006.0857054000007,1007.1091938000009,1004.1218222999996,1004.1218222999996,1004.1218222999996,1004.1218222999996,old_stationery_4.png,274,3.0,1.9671061999997619,,041,01,2025-02-13_16h33.08.776,Surprise recog test,2023.1.3,59.86514776817705,
274,0,274,0,,,,,,,,,,,,,,,,,,,,,,,,,,,,,,,,,,1008.7407765999997,1009.7649634999998,1007.1091938000009,1007.1091938000009,1007.1091938000009,1007.1091938000009,old_sceneOut_39.png,275,3.0,1.6313651999989816,,041,01,2025-02-13_16h33.08.776,Surprise recog test,2023.1.3,59.86514776817705,
275,0,275,0,,,,,,,,,,,,,,,,,,,,,,,,,,,,,,,,,,1010.9686120999995,1011.9985883000008,1009.7649634999998,1009.7649634999998,1009.7649634999998,1009.7649634999998,new_stationery_47.png,276,4.0,1.205279399999199,,041,01,2025-02-13_16h33.08.776,Surprise recog test,2023.1.3,59.86514776817705,
276,0,276,0,,,,,,,,,,,,,,,,,,,,,,,,,,,,,,,,,,1013.741939900001,1014.7671229000007,1011.9985883000008,1011.9985883000008,1011.9985883000008,1011.9985883000008,old_sceneIn_4.png,277,2.0,1.7450360000002547,,041,01,2025-02-13_16h33.08.776,Surprise recog test,2023.1.3,59.86514776817705,
277,0,277,0,,,,,,,,,,,,,,,,,,,,,,,,,,,,,,,,,,1016.5800180000006,1017.6052094000006,1014.7671229000007,1014.7671229000007,1014.7671229000007,1014.7671229000007,new_fruit_25.png,278,2.0,1.814195099999779,,041,01,2025-02-13_16h33.08.776,Surprise recog test,2023.1.3,59.86514776817705,
278,0,278,0,,,,,,,,,,,,,,,,,,,,,,,,,,,,,,,,,,1019.6376808000005,1020.6568337999997,1017.6052094000006,1017.6052094000006,1017.6052094000006,1017.6052094000006,old_sceneIn_19.png,279,3.0,2.0370468000000983,,041,01,2025-02-13_16h33.08.776,Surprise recog test,2023.1.3,59.86514776817705,
279,0,279,0,,,,,,,,,,,,,,,,,,,,,,,,,,,,,,,,,,1022.4043846000004,1023.4263551000004,1020.6568337999997,1020.6568337999997,1020.6568337999997,1020.6568337999997,old_sceneOut_17.png,280,4.0,1.749373700000433,,041,01,2025-02-13_16h33.08.776,Surprise recog test,2023.1.3,59.86514776817705,
280,0,280,0,,,,,,,,,,,,,,,,,,,,,,,,,,,,,,,,,,1025.0120527,1026.0439913999999,1023.4263551000004,1023.4263551000004,1023.4263551000004,1023.4263551000004,old_stationery_26.png,281,1.0,1.5882634999998118,,041,01,2025-02-13_16h33.08.776,Surprise recog test,2023.1.3,59.86514776817705,
281,0,281,0,,,,,,,,,,,,,,,,,,,,,,,,,,,,,,,,,,1028.2429892,1029.264268500001,1026.0439913999999,1026.0439913999999,1026.0439913999999,1026.0439913999999,old_sceneIn_44.png,282,3.0,2.2008003999999346,,041,01,2025-02-13_16h33.08.776,Surprise recog test,2023.1.3,59.86514776817705,
282,0,282,0,,,,,,,,,,,,,,,,,,,,,,,,,,,,,,,,,,1030.5999751,1031.6295702000007,1029.264268500001,1029.264268500001,1029.264268500001,1029.264268500001,new_sceneIn_47.png,283,4.0,1.3399282000009407,,041,01,2025-02-13_16h33.08.776,Surprise recog test,2023.1.3,59.86514776817705,
283,0,283,0,,,,,,,,,,,,,,,,,,,,,,,,,,,,,,,,,,1033.6140756000004,1034.6230787000004,1031.6295702000007,1031.6295702000007,1031.6295702000007,1031.6295702000007,new_stationery_35.png,284,1.0,1.9823808999990433,,041,01,2025-02-13_16h33.08.776,Surprise recog test,2023.1.3,59.86514776817705,
284,0,284,0,,,,,,,,,,,,,,,,,,,,,,,,,,,,,,,,,,1036.6426575000005,1037.6645718,1034.6230787000004,1034.6230787000004,1034.6230787000004,1034.6230787000004,new_sceneIn_32.png,285,3.0,2.0137020999991364,,041,01,2025-02-13_16h33.08.776,Surprise recog test,2023.1.3,59.86514776817705,
285,0,285,0,,,,,,,,,,,,,,,,,,,,,,,,,,,,,,,,,,1039.6528170000001,1040.6695309000006,1037.6645718,1037.6645718,1037.6645718,1037.6645718,old_fruit_28.png,286,3.0,1.9878551999991032,,041,01,2025-02-13_16h33.08.776,Surprise recog test,2023.1.3,59.86514776817705,
286,0,286,0,,,,,,,,,,,,,,,,,,,,,,,,,,,,,,,,,,1041.9995982,1043.0266367999993,1040.6695309000006,1040.6695309000006,1040.6695309000006,1040.6695309000006,new_sceneOut_37.png,287,3.0,1.331631400000333,,041,01,2025-02-13_16h33.08.776,Surprise recog test,2023.1.3,59.86514776817705,
287,0,287,0,,,,,,,,,,,,,,,,,,,,,,,,,,,,,,,,,,1044.734368200001,1045.7495928999997,1043.0266367999993,1043.0266367999993,1043.0266367999993,1043.0266367999993,new_stationery_34.png,288,3.0,1.710670400001618,,041,01,2025-02-13_16h33.08.776,Surprise recog test,2023.1.3,59.86514776817705,
288,0,288,0,,,,,,,,,,,,,,,,,,,,,,,,,,,,,,,,,,1046.9050621000006,1047.9296852000007,1045.7495928999997,1045.7495928999997,1045.7495928999997,1045.7495928999997,old_fruit_21.png,289,2.0,1.1529936999995698,,041,01,2025-02-13_16h33.08.776,Surprise recog test,2023.1.3,59.86514776817705,
289,0,289,0,,,,,,,,,,,,,,,,,,,,,,,,,,,,,,,,,,1049.1586537000003,1050.1813636999996,1047.9296852000007,1047.9296852000007,1047.9296852000007,1047.9296852000007,old_stationery_24.png,290,2.0,1.2314564000007522,,041,01,2025-02-13_16h33.08.776,Surprise recog test,2023.1.3,59.86514776817705,
290,0,290,0,,,,,,,,,,,,,,,,,,,,,,,,,,,,,,,,,,1051.8777083999994,1052.8954109000006,1050.1813636999996,1050.1813636999996,1050.1813636999996,1050.1813636999996,new_sceneIn_19.png,291,4.0,1.6983056999997643,,041,01,2025-02-13_16h33.08.776,Surprise recog test,2023.1.3,59.86514776817705,
291,0,291,0,,,,,,,,,,,,,,,,,,,,,,,,,,,,,,,,,,1054.9546909,1055.9828029,1052.8954109000006,1052.8954109000006,1052.8954109000006,1052.8954109000006,old_sceneOut_19.png,292,4.0,2.0608369999990828,,041,01,2025-02-13_16h33.08.776,Surprise recog test,2023.1.3,59.86514776817705,
292,0,292,0,,,,,,,,,,,,,,,,,,,,,,,,,,,,,,,,,,1057.7753496999994,1058.7888065000006,1055.9828029,1055.9828029,1055.9828029,1055.9828029,old_sceneIn_10.png,293,3.0,1.795124099999157,,041,01,2025-02-13_16h33.08.776,Surprise recog test,2023.1.3,59.86514776817705,
293,0,293,0,,,,,,,,,,,,,,,,,,,,,,,,,,,,,,,,,,1060.157901300001,1061.1893696999996,1058.7888065000006,1058.7888065000006,1058.7888065000006,1058.7888065000006,old_fruit_47.png,294,2.0,1.3655701999996381,,041,01,2025-02-13_16h33.08.776,Surprise recog test,2023.1.3,59.86514776817705,
294,0,294,0,,,,,,,,,,,,,,,,,,,,,,,,,,,,,,,,,,1063.9864070000003,1065.0112162000005,1061.1893696999996,1061.1893696999996,1061.1893696999996,1061.1893696999996,new_sceneOut_27.png,295,4.0,2.7998578999995516,,041,01,2025-02-13_16h33.08.776,Surprise recog test,2023.1.3,59.86514776817705,
295,0,295,0,,,,,,,,,,,,,,,,,,,,,,,,,,,,,,,,,,1066.0077082000007,1067.0284329000006,1065.0112162000005,1065.0112162000005,1065.0112162000005,1065.0112162000005,new_sceneIn_7.png,296,4.0,1.0011273999989498,,041,01,2025-02-13_16h33.08.776,Surprise recog test,2023.1.3,59.86514776817705,
296,0,296,0,,,,,,,,,,,,,,,,,,,,,,,,,,,,,,,,,,1068.0622471000006,,1067.0284329000006,1067.0284329000006,1067.0284329000006,1067.0284329000006,new_sceneOut_12.png,297,4.0,1.03473589999885,,041,01,2025-02-13_16h33.08.776,Surprise recog test,2023.1.3,59.86514776817705,
297,0,297,0,,,,,,,,,,,,,,,,,,,,,,,,,,,,,,,,,,1071.2959212000005,1072.3175953999998,1069.0969977999994,1069.0969977999994,1069.0969977999994,1069.0969977999994,new_sceneOut_34.png,298,4.0,2.1996452000003046,,041,01,2025-02-13_16h33.08.776,Surprise recog test,2023.1.3,59.86514776817705,
298,0,298,0,,,,,,,,,,,,,,,,,,,,,,,,,,,,,,,,,,1073.8494821999993,,1072.3175953999998,1072.3175953999998,1072.3175953999998,1072.3175953999998,new_sceneOut_40.png,299,4.0,1.535325400000147,,041,01,2025-02-13_16h33.08.776,Surprise recog test,2023.1.3,59.86514776817705,
299,0,299,0,,,,,,,,,,,,,,,,,,,,,,,,,,,,,,,,,,1076.2219136999993,1077.2541277,1074.8849162000006,1074.8849162000006,1074.8849162000006,1074.8849162000006,old_sceneIn_27.png,300,4.0,1.3383213999986765,,041,01,2025-02-13_16h33.08.776,Surprise recog test,2023.1.3,59.86514776817705,
300,0,300,0,,,,,,,,,,,,,,,,,,,,,,,,,,,,,,,,,,1078.9387109,,1077.2541277,1077.2541277,1077.2541277,1077.2541277,new_sceneIn_31.png,301,4.0,1.686715899999399,,041,01,2025-02-13_16h33.08.776,Surprise recog test,2023.1.3,59.86514776817705,
301,0,301,0,,,,,,,,,,,,,,,,,,,,,,,,,,,,,,,,,,1081.6332409000006,1082.6577331999997,1079.9734989999997,1079.9734989999997,1079.9734989999997,1079.9734989999997,new_sceneOut_26.png,302,2.0,1.6595378999991226,,041,01,2025-02-13_16h33.08.776,Surprise recog test,2023.1.3,59.86514776817705,
302,0,302,0,,,,,,,,,,,,,,,,,,,,,,,,,,,,,,,,,,1083.94924,1084.9754654999997,1082.6577331999997,1082.6577331999997,1082.6577331999997,1082.6577331999997,old_sceneIn_29.png,303,4.0,1.2908934999995836,,041,01,2025-02-13_16h33.08.776,Surprise recog test,2023.1.3,59.86514776817705,
303,0,303,0,,,,,,,,,,,,,,,,,,,,,,,,,,,,,,,,,,1086.7779867000008,,1084.9754654999997,1084.9754654999997,1084.9754654999997,1084.9754654999997,old_sceneOut_9.png,304,2.0,1.8047960000003513,,041,01,2025-02-13_16h33.08.776,Surprise recog test,2023.1.3,59.86514776817705,
304,0,304,0,,,,,,,,,,,,,,,,,,,,,,,,,,,,,,,,,,1089.320211100001,1090.349158000001,1087.803054600001,1087.803054600001,1087.803054600001,1087.803054600001,new_stationery_25.png,305,4.0,1.5170378999991954,,041,01,2025-02-13_16h33.08.776,Surprise recog test,2023.1.3,59.86514776817705,
305,0,305,0,,,,,,,,,,,,,,,,,,,,,,,,,,,,,,,,,,1091.217901,1092.2372338999994,1090.349158000001,1090.349158000001,1090.349158000001,1090.349158000001,old_sceneIn_26.png,306,4.0,0.8712420000010752,,041,01,2025-02-13_16h33.08.776,Surprise recog test,2023.1.3,59.86514776817705,
306,0,306,0,,,,,,,,,,,,,,,,,,,,,,,,,,,,,,,,,,1093.6775622000005,1094.7005991000005,1092.2372338999994,1092.2372338999994,1092.2372338999994,1092.2372338999994,new_fruit_30.png,307,2.0,1.4362979000015912,,041,01,2025-02-13_16h33.08.776,Surprise recog test,2023.1.3,59.86514776817705,
307,0,307,0,,,,,,,,,,,,,,,,,,,,,,,,,,,,,,,,,,1096.1498785999993,1097.1588262999994,1094.7005991000005,1094.7005991000005,1094.7005991000005,1094.7005991000005,new_sceneIn_37.png,308,2.0,1.45212889999857,,041,01,2025-02-13_16h33.08.776,Surprise recog test,2023.1.3,59.86514776817705,
308,0,308,0,,,,,,,,,,,,,,,,,,,,,,,,,,,,,,,,,,1098.0442972,1099.0697474999997,1097.1588262999994,1097.1588262999994,1097.1588262999994,1097.1588262999994,new_sceneIn_26.png,309,2.0,0.8828663999993296,,041,01,2025-02-13_16h33.08.776,Surprise recog test,2023.1.3,59.86514776817705,
309,0,309,0,,,,,,,,,,,,,,,,,,,,,,,,,,,,,,,,,,1100.206777200001,,1099.0697474999997,1099.0697474999997,1099.0697474999997,1099.0697474999997,old_fruit_34.png,310,2.0,1.139404800000193,,041,01,2025-02-13_16h33.08.776,Surprise recog test,2023.1.3,59.86514776817705,
310,0,310,0,,,,,,,,,,,,,,,,,,,,,,,,,,,,,,,,,,1102.1454357000002,1103.1632623999994,1101.2376246999993,1101.2376246999993,1101.2376246999993,1101.2376246999993,old_stationery_49.png,311,2.0,0.9096893000005366,,041,01,2025-02-13_16h33.08.776,Surprise recog test,2023.1.3,59.86514776817705,
311,0,311,0,,,,,,,,,,,,,,,,,,,,,,,,,,,,,,,,,,1104.2436653999994,,1103.1632623999994,1103.1632623999994,1103.1632623999994,1103.1632623999994,new_sceneOut_46.png,312,2.0,1.0760799999989104,,041,01,2025-02-13_16h33.08.776,Surprise recog test,2023.1.3,59.86514776817705,
312,0,312,0,,,,,,,,,,,,,,,,,,,,,,,,,,,,,,,,,,1106.4158509999997,1107.4407833999994,1105.2771567,1105.2771567,1105.2771567,1105.2771567,old_sceneOut_31.png,313,3.0,1.139397499999177,,041,01,2025-02-13_16h33.08.776,Surprise recog test,2023.1.3,59.86514776817705,
313,0,313,0,,,,,,,,,,,,,,,,,,,,,,,,,,,,,,,,,,1108.7648487999995,1109.7982888000006,1107.4407833999994,1107.4407833999994,1107.4407833999994,1107.4407833999994,new_fruit_40.png,314,4.0,1.3245031999995263,,041,01,2025-02-13_16h33.08.776,Surprise recog test,2023.1.3,59.86514776817705,
314,0,314,0,,,,,,,,,,,,,,,,,,,,,,,,,,,,,,,,,,1111.1678718999992,1112.2002207999994,1109.7982888000006,1109.7982888000006,1109.7982888000006,1109.7982888000006,new_sceneOut_10.png,315,3.0,1.371059900000546,,041,01,2025-02-13_16h33.08.776,Surprise recog test,2023.1.3,59.86514776817705,
315,0,315,0,,,,,,,,,,,,,,,,,,,,,,,,,,,,,,,,,,1113.0542107,1114.0846383999997,1112.2002207999994,1112.2002207999994,1112.2002207999994,1112.2002207999994,old_sceneOut_34.png,316,3.0,0.8559366999998019,,041,01,2025-02-13_16h33.08.776,Surprise recog test,2023.1.3,59.86514776817705,
316,0,316,0,,,,,,,,,,,,,,,,,,,,,,,,,,,,,,,,,,1115.5616221,1116.5733688,1114.0846383999997,1114.0846383999997,1114.0846383999997,1114.0846383999997,new_stationery_30.png,317,3.0,1.4766768999998021,,041,01,2025-02-13_16h33.08.776,Surprise recog test,2023.1.3,59.86514776817705,
317,0,317,0,,,,,,,,,,,,,,,,,,,,,,,,,,,,,,,,,,1118.4875634,,1116.5733688,1116.5733688,1116.5733688,1116.5733688,new_fruit_24.png,318,2.0,1.9057935000000725,,041,01,2025-02-13_16h33.08.776,Surprise recog test,2023.1.3,59.86514776817705,
318,0,318,0,,,,,,,,,,,,,,,,,,,,,,,,,,,,,,,,,,1121.4968227000008,1122.5251427999992,1119.5205717000008,1119.5205717000008,1119.5205717000008,1119.5205717000008,new_sceneOut_22.png,319,3.0,1.979264499999772,,041,01,2025-02-13_16h33.08.776,Surprise recog test,2023.1.3,59.86514776817705,
319,0,319,0,,,,,,,,,,,,,,,,,,,,,,,,,,,,,,,,,,1124.2951811999992,1125.3307425000003,1122.5251427999992,1122.5251427999992,1122.5251427999992,1122.5251427999992,old_sceneOut_22.png,320,2.0,1.773156100000051,,041,01,2025-02-13_16h33.08.776,Surprise recog test,2023.1.3,59.86514776817705,
320,0,320,0,,,,,,,,,,,,,,,,,,,,,,,,,,,,,,,,,,1127.2670880999995,1128.2954461999998,1125.3307425000003,1125.3307425000003,1125.3307425000003,1125.3307425000003,old_sceneIn_49.png,321,3.0,1.938102500000241,,041,01,2025-02-13_16h33.08.776,Surprise recog test,2023.1.3,59.86514776817705,
321,0,321,0,,,,,,,,,,,,,,,,,,,,,,,,,,,,,,,,,,1129.7172228,1130.7402015999996,1128.2954461999998,1128.2954461999998,1128.2954461999998,1128.2954461999998,new_sceneOut_28.png,322,3.0,1.4238763000012113,,041,01,2025-02-13_16h33.08.776,Surprise recog test,2023.1.3,59.86514776817705,
322,0,322,0,,,,,,,,,,,,,,,,,,,,,,,,,,,,,,,,,,1132.2874401999998,1133.3046371,1130.7402015999996,1130.7402015999996,1130.7402015999996,1130.7402015999996,new_stationery_46.png,323,4.0,1.5431853999998566,,041,01,2025-02-13_16h33.08.776,Surprise recog test,2023.1.3,59.86514776817705,
323,0,323,0,,,,,,,,,,,,,,,,,,,,,,,,,,,,,,,,,,1135.0177074000003,,1133.3046371,1133.3046371,1133.3046371,1133.3046371,old_sceneIn_35.png,324,4.0,1.7084355000006326,,041,01,2025-02-13_16h33.08.776,Surprise recog test,2023.1.3,59.86514776817705,
324,0,324,0,,,,,,,,,,,,,,,,,,,,,,,,,,,,,,,,,,1138.0409906999994,1139.0647200000003,1136.0532397000006,1136.0532397000006,1136.0532397000006,1136.0532397000006,old_sceneIn_13.png,325,4.0,1.9891996000005747,,041,01,2025-02-13_16h33.08.776,Surprise recog test,2023.1.3,59.86514776817705,
325,0,325,0,,,,,,,,,,,,,,,,,,,,,,,,,,,,,,,,,,1140.2904034000003,,1139.0647200000003,1139.0647200000003,1139.0647200000003,1139.0647200000003,old_sceneOut_18.png,326,4.0,1.223707999999533,,041,01,2025-02-13_16h33.08.776,Surprise recog test,2023.1.3,59.86514776817705,
326,0,326,0,,,,,,,,,,,,,,,,,,,,,,,,,,,,,,,,,,1142.5832573000007,1143.5963207999994,1141.3248413000001,1141.3248413000001,1141.3248413000001,1141.3248413000001,old_fruit_23.png,327,1.0,1.2607296999995015,,041,01,2025-02-13_16h33.08.776,Surprise recog test,2023.1.3,59.86514776817705,
327,0,327,0,,,,,,,,,,,,,,,,,,,,,,,,,,,,,,,,,,1145.5513241999997,1146.5768276,1143.5963207999994,1143.5963207999994,1143.5963207999994,1143.5963207999994,old_sceneIn_17.png,328,4.0,1.9469576999999845,,041,01,2025-02-13_16h33.08.776,Surprise recog test,2023.1.3,59.86514776817705,
328,0,328,0,,,,,,,,,,,,,,,,,,,,,,,,,,,,,,,,,,1148.1625509999994,,1146.5768276,1146.5768276,1146.5768276,1146.5768276,old_sceneIn_45.png,329,4.0,1.5862468000013905,,041,01,2025-02-13_16h33.08.776,Surprise recog test,2023.1.3,59.86514776817705,
329,0,329,0,,,,,,,,,,,,,,,,,,,,,,,,,,,,,,,,,,1150.8438693000007,1151.8664958000008,1149.1942416000002,1149.1942416000002,1149.1942416000002,1149.1942416000002,new_sceneOut_1.png,330,2.0,1.6523957999997947,,041,01,2025-02-13_16h33.08.776,Surprise recog test,2023.1.3,59.86514776817705,
330,0,330,0,,,,,,,,,,,,,,,,,,,,,,,,,,,,,,,,,,1154.6120099,1155.6335978000006,1151.8664958000008,1151.8664958000008,1151.8664958000008,1151.8664958000008,new_sceneIn_25.png,331,4.0,2.7482807999986107,,041,01,2025-02-13_16h33.08.776,Surprise recog test,2023.1.3,59.86514776817705,
331,0,331,0,,,,,,,,,,,,,,,,,,,,,,,,,,,,,,,,,,1157.036457100001,,1155.6335978000006,1155.6335978000006,1155.6335978000006,1155.6335978000006,new_sceneIn_12.png,332,3.0,1.4039090000005672,,041,01,2025-02-13_16h33.08.776,Surprise recog test,2023.1.3,59.86514776817705,
332,0,332,0,,,,,,,,,,,,,,,,,,,,,,,,,,,,,,,,,,1159.7353889999995,1160.7443445000008,1158.0668621000004,1158.0668621000004,1158.0668621000004,1158.0668621000004,old_sceneIn_20.png,333,3.0,1.6670443000002706,,041,01,2025-02-13_16h33.08.776,Surprise recog test,2023.1.3,59.86514776817705,
333,0,333,0,,,,,,,,,,,,,,,,,,,,,,,,,,,,,,,,,,1162.9548661999997,1163.9747958000007,1160.7443445000008,1160.7443445000008,1160.7443445000008,1160.7443445000008,new_fruit_38.png,334,3.0,2.2058868000003713,,041,01,2025-02-13_16h33.08.776,Surprise recog test,2023.1.3,59.86514776817705,
334,0,334,0,,,,,,,,,,,,,,,,,,,,,,,,,,,,,,,,,,1165.4734575000002,1166.4946571,1163.9747958000007,1163.9747958000007,1163.9747958000007,1163.9747958000007,old_stationery_2.png,335,3.0,1.4975752999998804,,041,01,2025-02-13_16h33.08.776,Surprise recog test,2023.1.3,59.86514776817705,
335,0,335,0,,,,,,,,,,,,,,,,,,,,,,,,,,,,,,,,,,1168.3910257999996,1169.4138889999995,1166.4946571,1166.4946571,1166.4946571,1166.4946571,new_sceneIn_48.png,336,4.0,1.8993683000007877,,041,01,2025-02-13_16h33.08.776,Surprise recog test,2023.1.3,59.86514776817705,
336,0,336,0,,,,,,,,,,,,,,,,,,,,,,,,,,,,,,,,,,1170.5098591000005,1171.532475600001,1169.4138889999995,1169.4138889999995,1169.4138889999995,1169.4138889999995,new_stationery_39.png,337,4.0,1.098749400000088,,041,01,2025-02-13_16h33.08.776,Surprise recog test,2023.1.3,59.86514776817705,
337,0,337,0,,,,,,,,,,,,,,,,,,,,,,,,,,,,,,,,,,1172.8028615000003,1173.8326916999995,1171.532475600001,1171.532475600001,1171.532475600001,1171.532475600001,old_fruit_7.png,338,1.0,1.2740231000007043,,041,01,2025-02-13_16h33.08.776,Surprise recog test,2023.1.3,59.86514776817705,
338,0,338,0,,,,,,,,,,,,,,,,,,,,,,,,,,,,,,,,,,1175.6338343999996,1176.6515817,1173.8326916999995,1173.8326916999995,1173.8326916999995,1173.8326916999995,old_sceneOut_16.png,339,3.0,1.8007918999992398,,041,01,2025-02-13_16h33.08.776,Surprise recog test,2023.1.3,59.86514776817705,
339,0,339,0,,,,,,,,,,,,,,,,,,,,,,,,,,,,,,,,,,1178.3672559999995,1179.3889830000007,1176.6515817,1176.6515817,1176.6515817,1176.6515817,new_stationery_4.png,340,2.0,1.7140020000006189,,041,01,2025-02-13_16h33.08.776,Surprise recog test,2023.1.3,59.86514776817705,
340,0,340,0,,,,,,,,,,,,,,,,,,,,,,,,,,,,,,,,,,1181.2712226999993,1182.2877786000008,1179.3889830000007,1179.3889830000007,1179.3889830000007,1179.3889830000007,new_fruit_13.png,341,2.0,1.8841270000011718,,041,01,2025-02-13_16h33.08.776,Surprise recog test,2023.1.3,59.86514776817705,
341,0,341,0,,,,,,,,,,,,,,,,,,,,,,,,,,,,,,,,,,1183.6469557,1184.6763692999994,1182.2877786000008,1182.2877786000008,1182.2877786000008,1182.2877786000008,new_stationery_1.png,342,2.0,1.3607018999991851,,041,01,2025-02-13_16h33.08.776,Surprise recog test,2023.1.3,59.86514776817705,
342,0,342,0,,,,,,,,,,,,,,,,,,,,,,,,,,,,,,,,,,1185.9830046999996,1187.011325200001,1184.6763692999994,1184.6763692999994,1184.6763692999994,1184.6763692999994,new_stationery_19.png,343,4.0,1.3061667999991187,,041,01,2025-02-13_16h33.08.776,Surprise recog test,2023.1.3,59.86514776817705,
343,0,343,0,,,,,,,,,,,,,,,,,,,,,,,,,,,,,,,,,,1189.5216263000002,1190.5336038000005,1187.011325200001,1187.011325200001,1187.011325200001,1187.011325200001,new_sceneOut_44.png,344,2.0,2.509491100001469,,041,01,2025-02-13_16h33.08.776,Surprise recog test,2023.1.3,59.86514776817705,
344,0,344,0,,,,,,,,,,,,,,,,,,,,,,,,,,,,,,,,,,1193.3425430999996,1194.3592155999995,1190.5336038000005,1190.5336038000005,1190.5336038000005,1190.5336038000005,old_sceneIn_36.png,345,5.0,2.803966900000887,,041,01,2025-02-13_16h33.08.776,Surprise recog test,2023.1.3,59.86514776817705,
345,0,345,0,,,,,,,,,,,,,,,,,,,,,,,,,,,,,,,,,,1195.8893057000005,1196.9071538999997,1194.3592155999995,1194.3592155999995,1194.3592155999995,1194.3592155999995,old_fruit_4.png,346,3.0,1.5303953000002366,,041,01,2025-02-13_16h33.08.776,Surprise recog test,2023.1.3,59.86514776817705,
346,0,346,0,,,,,,,,,,,,,,,,,,,,,,,,,,,,,,,,,,1198.1264166,1199.146154,1196.9071538999997,1196.9071538999997,1196.9071538999997,1196.9071538999997,old_sceneIn_16.png,347,1.0,1.2128081000009843,,041,01,2025-02-13_16h33.08.776,Surprise recog test,2023.1.3,59.86514776817705,
347,0,347,0,,,,,,,,,,,,,,,,,,,,,,,,,,,,,,,,,,1201.0671767000003,1202.0781967999992,1199.146154,1199.146154,1199.146154,1199.146154,old_sceneOut_2.png,348,3.0,1.9217816000000312,,041,01,2025-02-13_16h33.08.776,Surprise recog test,2023.1.3,59.86514776817705,
348,0,348,0,,,,,,,,,,,,,,,,,,,,,,,,,,,,,,,,,,1204.0006565999993,1205.0268455999994,1202.0781967999992,1202.0781967999992,1202.0781967999992,1202.0781967999992,new_stationery_21.png,349,4.0,1.9188235999990866,,041,01,2025-02-13_16h33.08.776,Surprise recog test,2023.1.3,59.86514776817705,
349,0,349,0,,,,,,,,,,,,,,,,,,,,,,,,,,,,,,,,,,1206.3785090000001,,1205.0268455999994,1205.0268455999994,1205.0268455999994,1205.0268455999994,new_sceneOut_6.png,350,3.0,1.3518767999994452,,041,01,2025-02-13_16h33.08.776,Surprise recog test,2023.1.3,59.86514776817705,
350,0,350,0,,,,,,,,,,,,,,,,,,,,,,,,,,,,,,,,,,1208.9111976999993,1209.9298951,1207.4137578999998,1207.4137578999998,1207.4137578999998,1207.4137578999998,new_sceneIn_34.png,351,4.0,1.5001078000004782,,041,01,2025-02-13_16h33.08.776,Surprise recog test,2023.1.3,59.86514776817705,
351,0,351,0,,,,,,,,,,,,,,,,,,,,,,,,,,,,,,,,,,1211.0848188,1212.1145983999995,1209.9298951,1209.9298951,1209.9298951,1209.9298951,new_fruit_37.png,352,2.0,1.1558512999999948,,041,01,2025-02-13_16h33.08.776,Surprise recog test,2023.1.3,59.86514776817705,
352,0,352,0,,,,,,,,,,,,,,,,,,,,,,,,,,,,,,,,,,1212.9321092999999,,1212.1145983999995,1212.1145983999995,1212.1145983999995,1212.1145983999995,new_fruit_3.png,353,2.0,0.8174588000001677,,041,01,2025-02-13_16h33.08.776,Surprise recog test,2023.1.3,59.86514776817705,
353,0,353,0,,,,,,,,,,,,,,,,,,,,,,,,,,,,,,,,,,1215.2053436000006,1216.2361743000001,1213.9539210999992,1213.9539210999992,1213.9539210999992,1213.9539210999992,new_fruit_1.png,354,2.0,1.2453973000010592,,041,01,2025-02-13_16h33.08.776,Surprise recog test,2023.1.3,59.86514776817705,
354,0,354,0,,,,,,,,,,,,,,,,,,,,,,,,,,,,,,,,,,1218.1749538000004,1219.2083024999993,1216.2361743000001,1216.2361743000001,1216.2361743000001,1216.2361743000001,old_sceneOut_47.png,355,2.0,1.9420551000002888,,041,01,2025-02-13_16h33.08.776,Surprise recog test,2023.1.3,59.86514776817705,
355,0,355,0,,,,,,,,,,,,,,,,,,,,,,,,,,,,,,,,,,1220.8352685999998,1221.8541765999998,1219.2083024999993,1219.2083024999993,1219.2083024999993,1219.2083024999993,new_sceneOut_20.png,356,3.0,1.6291823000010481,,041,01,2025-02-13_16h33.08.776,Surprise recog test,2023.1.3,59.86514776817705,
356,0,356,0,,,,,,,,,,,,,,,,,,,,,,,,,,,,,,,,,,1223.2223792000004,1224.2438454999992,1221.8541765999998,1221.8541765999998,1221.8541765999998,1221.8541765999998,new_sceneOut_16.png,357,3.0,1.3651417000000947,,041,01,2025-02-13_16h33.08.776,Surprise recog test,2023.1.3,59.86514776817705,
