trial_loop.thisRepN,trial_loop.thisTrialN,trial_loop.thisN,trial_loop.thisIndex,VAS_slider.started,VAS_text.started,VAS_notstressed_text.started,VAS_stressed_text.started,continue_input.started,continue_text.started,label0.started,label10.started,label20.started,label30.started,label40.started,label50.started,label60.started,label70.started,label80.started,label90.started,label100.started,VAS_slider.response,VAS_slider.rt,VAS_slider.history,Answer_VAS,continue_input.keys,continue_input.rt,continue_input.duration,instruction_text.started,continue_text_2.started,continue_input_2.started,continue_input_2.keys,continue_input_2.rt,continue_input_2.duration,example_text.started,example_slider_2.started,example_image.started,example_slider_2.response,example_slider_2.rt,fixcross.started,fixcross.stopped,front_square.started,stim_images.started,trial_inst_images.started,slider_images.started,thisImg,trial_count,slider_images.response,slider_images.rt,slider_images.stopped,outro.started,participant,condition,date,expName,psychopyVersion,frameRate,
,,,,621.7336109000025,621.7336109000025,621.7336109000025,621.7336109000025,621.7336109000025,621.7336109000025,621.7336109000025,621.7336109000025,621.7336109000025,621.7336109000025,621.7336109000025,621.7336109000025,621.7336109000025,621.7336109000025,621.7336109000025,621.7336109000025,621.7336109000025,None,None,[],2.039999999999999,space,14.074943700106815,None,,,,,,,,,,,,,,,,,,,,,,,,042,01,2025-02-06_14h05.13.954,Surprise recog test,2023.1.3,59.94916308551438,
,,,,,,,,,,,,,,,,,,,,,,,,,,,,635.8710372999776,635.8710372999776,635.8710372999776,space,24.018202500068583,None,,,,,,,,,,,,,,,,,,042,01,2025-02-06_14h05.13.954,Surprise recog test,2023.1.3,59.94916308551438,
0,0,0,0,,,,,,,,,,,,,,,,,,,,,,,,,,,,,,,660.0107726999559,660.0107726999559,660.0107726999559,5.0,17.674641799996607,683.2021032000193,678.6602202999638,678.6602202999638,678.6602202999638,678.6602202999638,678.6602202999638,old_sceneOut_2.png,1,3.0,4.546270499937236,,,042,01,2025-02-06_14h05.13.954,Surprise recog test,2023.1.3,59.94916308551438,
1,0,1,0,,,,,,,,,,,,,,,,,,,,,,,,,,,,,,,,,,,,689.2177931999322,,684.2376100999536,684.2376100999536,684.2376100999536,684.2376100999536,old_sceneOut_32.png,2,None,None,689.2031529999804,,042,01,2025-02-06_14h05.13.954,Surprise recog test,2023.1.3,59.94916308551438,
2,0,2,0,,,,,,,,,,,,,,,,,,,,,,,,,,,,,,,,,,,,693.0088693000143,,690.2285651999991,690.2285651999991,690.2285651999991,690.2285651999991,old_sceneIn_30.png,3,3.0,2.773056700010784,,,042,01,2025-02-06_14h05.13.954,Surprise recog test,2023.1.3,59.94916308551438,
3,0,3,0,,,,,,,,,,,,,,,,,,,,,,,,,,,,,,,,,,,,695.8653191999765,696.884382899967,694.0348092999775,694.0348092999775,694.0348092999775,694.0348092999775,new_sceneIn_31.png,4,1.0,1.8305055999662727,,,042,01,2025-02-06_14h05.13.954,Surprise recog test,2023.1.3,59.94916308551438,
4,0,4,0,,,,,,,,,,,,,,,,,,,,,,,,,,,,,,,,,,,,698.3684951999458,699.4050138000166,696.884382899967,696.884382899967,696.884382899967,696.884382899967,new_stationery_28.png,5,1.0,1.4776410000631586,,,042,01,2025-02-06_14h05.13.954,Surprise recog test,2023.1.3,59.94916308551438,
5,0,5,0,,,,,,,,,,,,,,,,,,,,,,,,,,,,,,,,,,,,700.6316600999562,701.6514507000102,699.4050138000166,699.4050138000166,699.4050138000166,699.4050138000166,old_stationery_36.png,6,1.0,1.2300809000153095,,,042,01,2025-02-06_14h05.13.954,Surprise recog test,2023.1.3,59.94916308551438,
6,0,6,0,,,,,,,,,,,,,,,,,,,,,,,,,,,,,,,,,,,,703.5188915999606,,701.6514507000102,701.6514507000102,701.6514507000102,701.6514507000102,old_sceneIn_10.png,7,2.0,1.868386899936013,,,042,01,2025-02-06_14h05.13.954,Surprise recog test,2023.1.3,59.94916308551438,
7,0,7,0,,,,,,,,,,,,,,,,,,,,,,,,,,,,,,,,,,,,706.5051223000046,,704.553462699987,704.553462699987,704.553462699987,704.553462699987,new_stationery_32.png,8,3.0,1.952698600012809,,,042,01,2025-02-06_14h05.13.954,Surprise recog test,2023.1.3,59.94916308551438,
8,0,8,0,,,,,,,,,,,,,,,,,,,,,,,,,,,,,,,,,,,,710.6131188999861,711.6410614999477,707.527018200024,707.527018200024,707.527018200024,707.527018200024,old_stationery_5.png,9,1.0,3.080955300014466,,,042,01,2025-02-06_14h05.13.954,Surprise recog test,2023.1.3,59.94916308551438,
9,0,9,0,,,,,,,,,,,,,,,,,,,,,,,,,,,,,,,,,,,,714.2687154000159,715.2825820000144,711.6410614999477,711.6410614999477,711.6410614999477,711.6410614999477,new_sceneOut_20.png,10,3.0,2.6285405999515206,,,042,01,2025-02-06_14h05.13.954,Surprise recog test,2023.1.3,59.94916308551438,
10,0,10,0,,,,,,,,,,,,,,,,,,,,,,,,,,,,,,,,,,,,717.5634855999378,,715.2825820000144,715.2825820000144,715.2825820000144,715.2825820000144,new_sceneOut_25.png,11,3.0,2.2761811000527814,,,042,01,2025-02-06_14h05.13.954,Surprise recog test,2023.1.3,59.94916308551438,
11,0,11,0,,,,,,,,,,,,,,,,,,,,,,,,,,,,,,,,,,,,720.3697619999293,721.4006394000025,718.5945158000104,718.5945158000104,718.5945158000104,718.5945158000104,new_sceneIn_7.png,12,1.0,1.7765042000683025,,,042,01,2025-02-06_14h05.13.954,Surprise recog test,2023.1.3,59.94916308551438,
12,0,12,0,,,,,,,,,,,,,,,,,,,,,,,,,,,,,,,,,,,,722.7932102000341,723.8236349000363,721.4006394000025,721.4006394000025,721.4006394000025,721.4006394000025,old_sceneIn_13.png,13,1.0,1.3962203999981284,,,042,01,2025-02-06_14h05.13.954,Surprise recog test,2023.1.3,59.94916308551438,
13,0,13,0,,,,,,,,,,,,,,,,,,,,,,,,,,,,,,,,,,,,725.3750652000308,726.3881539999275,723.8236349000363,723.8236349000363,723.8236349000363,723.8236349000363,old_sceneOut_33.png,14,2.0,1.5558650000020862,,,042,01,2025-02-06_14h05.13.954,Surprise recog test,2023.1.3,59.94916308551438,
14,0,14,0,,,,,,,,,,,,,,,,,,,,,,,,,,,,,,,,,,,,728.4584450999973,729.4868799999822,726.3881539999275,726.3881539999275,726.3881539999275,726.3881539999275,new_sceneOut_21.png,15,1.0,2.0653148000128567,,,042,01,2025-02-06_14h05.13.954,Surprise recog test,2023.1.3,59.94916308551438,
15,0,15,0,,,,,,,,,,,,,,,,,,,,,,,,,,,,,,,,,,,,732.1394906999776,733.1600158000365,729.4868799999822,729.4868799999822,729.4868799999822,729.4868799999822,old_sceneOut_9.png,16,2.0,2.649521099985577,,,042,01,2025-02-06_14h05.13.954,Surprise recog test,2023.1.3,59.94916308551438,
16,0,16,0,,,,,,,,,,,,,,,,,,,,,,,,,,,,,,,,,,,,734.5351326999953,735.5549014999997,733.1600158000365,733.1600158000365,733.1600158000365,733.1600158000365,old_stationery_38.png,17,1.0,1.3749075999949127,,,042,01,2025-02-06_14h05.13.954,Surprise recog test,2023.1.3,59.94916308551438,
17,0,17,0,,,,,,,,,,,,,,,,,,,,,,,,,,,,,,,,,,,,736.5163631000323,737.550738299964,735.5549014999997,735.5549014999997,735.5549014999997,735.5549014999997,old_fruit_27.png,18,1.0,0.9588348000543192,,,042,01,2025-02-06_14h05.13.954,Surprise recog test,2023.1.3,59.94916308551438,
18,0,18,0,,,,,,,,,,,,,,,,,,,,,,,,,,,,,,,,,,,,740.1138277000282,741.1338400000241,737.550738299964,737.550738299964,737.550738299964,737.550738299964,new_fruit_23.png,19,2.0,2.5682595999678597,,,042,01,2025-02-06_14h05.13.954,Surprise recog test,2023.1.3,59.94916308551438,
19,0,19,0,,,,,,,,,,,,,,,,,,,,,,,,,,,,,,,,,,,,742.9808540999657,744.0064686000114,741.1338400000241,741.1338400000241,741.1338400000241,741.1338400000241,new_sceneIn_48.png,20,2.0,1.8486517000710592,,,042,01,2025-02-06_14h05.13.954,Surprise recog test,2023.1.3,59.94916308551438,
20,0,20,0,,,,,,,,,,,,,,,,,,,,,,,,,,,,,,,,,,,,745.8717210999457,,744.0064686000114,744.0064686000114,744.0064686000114,744.0064686000114,old_sceneOut_10.png,21,3.0,1.8682508999481797,,,042,01,2025-02-06_14h05.13.954,Surprise recog test,2023.1.3,59.94916308551438,
21,0,21,0,,,,,,,,,,,,,,,,,,,,,,,,,,,,,,,,,,,,748.2565067999531,,746.8917268000077,746.8917268000077,746.8917268000077,746.8917268000077,new_sceneIn_20.png,22,3.0,1.3569607000099495,,,042,01,2025-02-06_14h05.13.954,Surprise recog test,2023.1.3,59.94916308551438,
22,0,22,0,,,,,,,,,,,,,,,,,,,,,,,,,,,,,,,,,,,,752.0570917000296,753.0774732999271,749.2842945000157,749.2842945000157,749.2842945000157,749.2842945000157,new_sceneOut_38.png,23,4.0,2.7743154999334365,,,042,01,2025-02-06_14h05.13.954,Surprise recog test,2023.1.3,59.94916308551438,
23,0,23,0,,,,,,,,,,,,,,,,,,,,,,,,,,,,,,,,,,,,754.378665999975,,753.0774732999271,753.0774732999271,753.0774732999271,753.0774732999271,old_stationery_27.png,24,1.0,1.3037767999339849,,,042,01,2025-02-06_14h05.13.954,Surprise recog test,2023.1.3,59.94916308551438,
24,0,24,0,,,,,,,,,,,,,,,,,,,,,,,,,,,,,,,,,,,,757.2511500000255,758.2829304999905,755.4060101000359,755.4060101000359,755.4060101000359,755.4060101000359,new_sceneIn_44.png,25,4.0,1.842429400072433,,,042,01,2025-02-06_14h05.13.954,Surprise recog test,2023.1.3,59.94916308551438,
25,0,25,0,,,,,,,,,,,,,,,,,,,,,,,,,,,,,,,,,,,,760.5737085000146,761.6006827999372,758.2829304999905,758.2829304999905,758.2829304999905,758.2829304999905,old_fruit_3.png,26,2.0,2.29163360001985,,,042,01,2025-02-06_14h05.13.954,Surprise recog test,2023.1.3,59.94916308551438,
26,0,26,0,,,,,,,,,,,,,,,,,,,,,,,,,,,,,,,,,,,,764.1066408000188,765.1341769000283,761.6006827999372,761.6006827999372,761.6006827999372,761.6006827999372,new_fruit_33.png,27,1.0,2.5083019000012428,,,042,01,2025-02-06_14h05.13.954,Surprise recog test,2023.1.3,59.94916308551438,
27,0,27,0,,,,,,,,,,,,,,,,,,,,,,,,,,,,,,,,,,,,766.8676203000359,767.8895561000099,765.1341769000283,765.1341769000283,765.1341769000283,765.1341769000283,old_sceneOut_27.png,28,3.0,1.7334771000314504,,,042,01,2025-02-06_14h05.13.954,Surprise recog test,2023.1.3,59.94916308551438,
28,0,28,0,,,,,,,,,,,,,,,,,,,,,,,,,,,,,,,,,,,,769.9418588000117,,767.8895561000099,767.8895561000099,767.8895561000099,767.8895561000099,old_fruit_41.png,29,1.0,2.052213600021787,,,042,01,2025-02-06_14h05.13.954,Surprise recog test,2023.1.3,59.94916308551438,
29,0,29,0,,,,,,,,,,,,,,,,,,,,,,,,,,,,,,,,,,,,772.3687830999261,773.390660300036,770.9753726000199,770.9753726000199,770.9753726000199,770.9753726000199,old_stationery_9.png,30,1.0,1.395187999936752,,,042,01,2025-02-06_14h05.13.954,Surprise recog test,2023.1.3,59.94916308551438,
30,0,30,0,,,,,,,,,,,,,,,,,,,,,,,,,,,,,,,,,,,,774.9545178000117,775.9860146000283,773.390660300036,773.390660300036,773.390660300036,773.390660300036,old_sceneIn_20.png,31,3.0,1.5659059999743477,,,042,01,2025-02-06_14h05.13.954,Surprise recog test,2023.1.3,59.94916308551438,
31,0,31,0,,,,,,,,,,,,,,,,,,,,,,,,,,,,,,,,,,,,777.9508846999379,778.9745863999706,775.9860146000283,775.9860146000283,775.9860146000283,775.9860146000283,new_stationery_12.png,32,4.0,1.9687020999845117,,,042,01,2025-02-06_14h05.13.954,Surprise recog test,2023.1.3,59.94916308551438,
32,0,32,0,,,,,,,,,,,,,,,,,,,,,,,,,,,,,,,,,,,,780.4389764999505,781.4529338999419,778.9745863999706,778.9745863999706,778.9745863999706,778.9745863999706,old_stationery_32.png,33,1.0,1.4648267000447959,,,042,01,2025-02-06_14h05.13.954,Surprise recog test,2023.1.3,59.94916308551438,
33,0,33,0,,,,,,,,,,,,,,,,,,,,,,,,,,,,,,,,,,,,786.3878719999921,,781.4529338999419,781.4529338999419,781.4529338999419,781.4529338999419,old_sceneIn_31.png,34,2.0,4.930849100113846,,,042,01,2025-02-06_14h05.13.954,Surprise recog test,2023.1.3,59.94916308551438,
34,0,34,0,,,,,,,,,,,,,,,,,,,,,,,,,,,,,,,,,,,,789.7721549000125,790.7862475999864,787.4178940999554,787.4178940999554,787.4178940999554,787.4178940999554,new_sceneOut_2.png,35,1.0,2.353814600035548,,,042,01,2025-02-06_14h05.13.954,Surprise recog test,2023.1.3,59.94916308551438,
35,0,35,0,,,,,,,,,,,,,,,,,,,,,,,,,,,,,,,,,,,,792.2826681999722,793.3091785999713,790.7862475999864,790.7862475999864,790.7862475999864,790.7862475999864,new_fruit_26.png,36,1.0,1.4960509999655187,,,042,01,2025-02-06_14h05.13.954,Surprise recog test,2023.1.3,59.94916308551438,
36,0,36,0,,,,,,,,,,,,,,,,,,,,,,,,,,,,,,,,,,,,795.5697887999704,796.5907701000106,793.3091785999713,793.3091785999713,793.3091785999713,793.3091785999713,new_sceneIn_25.png,37,3.0,2.259885000064969,,,042,01,2025-02-06_14h05.13.954,Surprise recog test,2023.1.3,59.94916308551438,
37,0,37,0,,,,,,,,,,,,,,,,,,,,,,,,,,,,,,,,,,,,797.9017374999821,798.919075599988,796.5907701000106,796.5907701000106,796.5907701000106,796.5907701000106,old_stationery_8.png,38,1.0,1.3109509999630973,,,042,01,2025-02-06_14h05.13.954,Surprise recog test,2023.1.3,59.94916308551438,
38,0,38,0,,,,,,,,,,,,,,,,,,,,,,,,,,,,,,,,,,,,802.4060428999364,803.4221746999538,798.919075599988,798.919075599988,798.919075599988,798.919075599988,new_fruit_48.png,39,3.0,3.4821774000301957,,,042,01,2025-02-06_14h05.13.954,Surprise recog test,2023.1.3,59.94916308551438,
39,0,39,0,,,,,,,,,,,,,,,,,,,,,,,,,,,,,,,,,,,,805.7308500999352,806.7525462999474,803.4221746999538,803.4221746999538,803.4221746999538,803.4221746999538,old_fruit_12.png,40,3.0,2.3058024999918416,,,042,01,2025-02-06_14h05.13.954,Surprise recog test,2023.1.3,59.94916308551438,
40,0,40,0,,,,,,,,,,,,,,,,,,,,,,,,,,,,,,,,,,,,810.24354950001,811.279454399948,806.7525462999474,806.7525462999474,806.7525462999474,806.7525462999474,new_stationery_18.png,41,4.0,3.492322000092827,,,042,01,2025-02-06_14h05.13.954,Surprise recog test,2023.1.3,59.94916308551438,
41,0,41,0,,,,,,,,,,,,,,,,,,,,,,,,,,,,,,,,,,,,812.6983929999406,813.7210793999257,811.279454399948,811.279454399948,811.279454399948,811.279454399948,old_stationery_50.png,42,1.0,1.4196855999762192,,,042,01,2025-02-06_14h05.13.954,Surprise recog test,2023.1.3,59.94916308551438,
42,0,42,0,,,,,,,,,,,,,,,,,,,,,,,,,,,,,,,,,,,,817.0811981000006,818.111324199941,813.7210793999257,813.7210793999257,813.7210793999257,813.7210793999257,old_stationery_35.png,43,5.0,3.362049499992281,,,042,01,2025-02-06_14h05.13.954,Surprise recog test,2023.1.3,59.94916308551438,
43,0,43,0,,,,,,,,,,,,,,,,,,,,,,,,,,,,,,,,,,,,819.5232621999457,820.54902149993,818.111324199941,818.111324199941,818.111324199941,818.111324199941,new_stationery_15.png,44,1.0,1.4131036000326276,,,042,01,2025-02-06_14h05.13.954,Surprise recog test,2023.1.3,59.94916308551438,
44,0,44,0,,,,,,,,,,,,,,,,,,,,,,,,,,,,,,,,,,,,821.9480954000028,822.9619243999477,820.54902149993,820.54902149993,820.54902149993,820.54902149993,old_stationery_21.png,45,1.0,1.4005869999527931,,,042,01,2025-02-06_14h05.13.954,Surprise recog test,2023.1.3,59.94916308551438,
45,0,45,0,,,,,,,,,,,,,,,,,,,,,,,,,,,,,,,,,,,,825.6841363999993,826.7030736999586,822.9619243999477,822.9619243999477,822.9619243999477,822.9619243999477,new_sceneIn_16.png,46,2.0,2.719412999926135,,,042,01,2025-02-06_14h05.13.954,Surprise recog test,2023.1.3,59.94916308551438,
46,0,46,0,,,,,,,,,,,,,,,,,,,,,,,,,,,,,,,,,,,,828.6878404000308,829.7090713999933,826.7030736999586,826.7030736999586,826.7030736999586,826.7030736999586,new_sceneOut_27.png,47,3.0,1.9827690999954939,,,042,01,2025-02-06_14h05.13.954,Surprise recog test,2023.1.3,59.94916308551438,
47,0,47,0,,,,,,,,,,,,,,,,,,,,,,,,,,,,,,,,,,,,832.327085900004,,829.7090713999933,829.7090713999933,829.7090713999933,829.7090713999933,old_sceneOut_12.png,48,3.0,2.6173512000823393,,,042,01,2025-02-06_14h05.13.954,Surprise recog test,2023.1.3,59.94916308551438,
48,0,48,0,,,,,,,,,,,,,,,,,,,,,,,,,,,,,,,,,,,,837.3231588000199,838.3345261999639,833.3593889999902,833.3593889999902,833.3593889999902,833.3593889999902,new_fruit_38.png,49,2.0,3.964039899990894,,,042,01,2025-02-06_14h05.13.954,Surprise recog test,2023.1.3,59.94916308551438,
49,0,49,0,,,,,,,,,,,,,,,,,,,,,,,,,,,,,,,,,,,,841.8446185999783,842.8565796000184,838.3345261999639,838.3345261999639,838.3345261999639,838.3345261999639,new_stationery_38.png,50,4.0,3.5057642000028864,,,042,01,2025-02-06_14h05.13.954,Surprise recog test,2023.1.3,59.94916308551438,
50,0,50,0,,,,,,,,,,,,,,,,,,,,,,,,,,,,,,,,,,,,844.5155690999236,845.5220815000357,842.8565796000184,842.8565796000184,842.8565796000184,842.8565796000184,old_sceneOut_37.png,51,4.0,1.6542972000315785,,,042,01,2025-02-06_14h05.13.954,Surprise recog test,2023.1.3,59.94916308551438,
51,0,51,0,,,,,,,,,,,,,,,,,,,,,,,,,,,,,,,,,,,,849.255165199982,850.2743809999665,845.5220815000357,845.5220815000357,845.5220815000357,845.5220815000357,old_sceneOut_30.png,52,4.0,3.726598000037484,,,042,01,2025-02-06_14h05.13.954,Surprise recog test,2023.1.3,59.94916308551438,
52,0,52,0,,,,,,,,,,,,,,,,,,,,,,,,,,,,,,,,,,,,851.9345609999727,852.9484797000187,850.2743809999665,850.2743809999665,850.2743809999665,850.2743809999665,new_sceneIn_22.png,53,2.0,1.6616110999602824,,,042,01,2025-02-06_14h05.13.954,Surprise recog test,2023.1.3,59.94916308551438,
53,0,53,0,,,,,,,,,,,,,,,,,,,,,,,,,,,,,,,,,,,,856.2250562999398,857.2402523999335,852.9484797000187,852.9484797000187,852.9484797000187,852.9484797000187,new_fruit_36.png,54,2.0,3.2720083999447525,,,042,01,2025-02-06_14h05.13.954,Surprise recog test,2023.1.3,59.94916308551438,
54,0,54,0,,,,,,,,,,,,,,,,,,,,,,,,,,,,,,,,,,,,860.1493908999255,,857.2402523999335,857.2402523999335,857.2402523999335,857.2402523999335,new_sceneIn_23.png,55,1.0,2.906971800024621,,,042,01,2025-02-06_14h05.13.954,Surprise recog test,2023.1.3,59.94916308551438,
55,0,55,0,,,,,,,,,,,,,,,,,,,,,,,,,,,,,,,,,,,,863.0176192999352,,861.1805409999797,861.1805409999797,861.1805409999797,861.1805409999797,new_stationery_46.png,56,5.0,1.838588200043887,,,042,01,2025-02-06_14h05.13.954,Surprise recog test,2023.1.3,59.94916308551438,
56,0,56,0,,,,,,,,,,,,,,,,,,,,,,,,,,,,,,,,,,,,867.6546067999443,,864.0496543999761,864.0496543999761,864.0496543999761,864.0496543999761,new_fruit_7.png,57,4.0,3.6047094999812543,,,042,01,2025-02-06_14h05.13.954,Surprise recog test,2023.1.3,59.94916308551438,
57,0,57,0,,,,,,,,,,,,,,,,,,,,,,,,,,,,,,,,,,,,872.2161369000096,873.2405417999253,868.6766942000249,868.6766942000249,868.6766942000249,868.6766942000249,new_stationery_7.png,58,4.0,3.5352731000166386,,,042,01,2025-02-06_14h05.13.954,Surprise recog test,2023.1.3,59.94916308551438,
58,0,58,0,,,,,,,,,,,,,,,,,,,,,,,,,,,,,,,,,,,,875.4644151999382,876.4935352000175,873.2405417999253,873.2405417999253,873.2405417999253,873.2405417999253,new_sceneOut_1.png,59,3.0,2.226934800040908,,,042,01,2025-02-06_14h05.13.954,Surprise recog test,2023.1.3,59.94916308551438,
59,0,59,0,,,,,,,,,,,,,,,,,,,,,,,,,,,,,,,,,,,,880.7046494999668,881.7220366999973,876.4935352000175,876.4935352000175,876.4935352000175,876.4935352000175,old_sceneOut_48.png,60,3.0,4.212484500021674,,,042,01,2025-02-06_14h05.13.954,Surprise recog test,2023.1.3,59.94916308551438,
60,0,60,0,,,,,,,,,,,,,,,,,,,,,,,,,,,,,,,,,,,,883.4679293999216,,881.7220366999973,881.7220366999973,881.7220366999973,881.7220366999973,old_sceneOut_5.png,61,1.0,1.7435972000239417,,,042,01,2025-02-06_14h05.13.954,Surprise recog test,2023.1.3,59.94916308551438,
61,0,61,0,,,,,,,,,,,,,,,,,,,,,,,,,,,,,,,,,,,,885.7702515999554,,884.4972237999318,884.4972237999318,884.4972237999318,884.4972237999318,old_stationery_7.png,62,1.0,1.2726760000223294,,,042,01,2025-02-06_14h05.13.954,Surprise recog test,2023.1.3,59.94916308551438,
62,0,62,0,,,,,,,,,,,,,,,,,,,,,,,,,,,,,,,,,,,,887.9785486999899,889.0059493000153,886.7909835999599,886.7909835999599,886.7909835999599,886.7909835999599,old_stationery_3.png,63,1.0,1.1825758999912068,,,042,01,2025-02-06_14h05.13.954,Surprise recog test,2023.1.3,59.94916308551438,
63,0,63,0,,,,,,,,,,,,,,,,,,,,,,,,,,,,,,,,,,,,892.3612025999464,893.3918359000236,889.0059493000153,889.0059493000153,889.0059493000153,889.0059493000153,old_sceneIn_16.png,64,3.0,3.357079799985513,,,042,01,2025-02-06_14h05.13.954,Surprise recog test,2023.1.3,59.94916308551438,
64,0,64,0,,,,,,,,,,,,,,,,,,,,,,,,,,,,,,,,,,,,896.4334617999848,897.4512484000297,893.3918359000236,893.3918359000236,893.3918359000236,893.3918359000236,new_fruit_30.png,65,1.0,3.0410337999928743,,,042,01,2025-02-06_14h05.13.954,Surprise recog test,2023.1.3,59.94916308551438,
65,0,65,0,,,,,,,,,,,,,,,,,,,,,,,,,,,,,,,,,,,,900.4099433999509,901.421057999949,897.4512484000297,897.4512484000297,897.4512484000297,897.4512484000297,old_sceneIn_4.png,66,1.0,2.953691800008528,,,042,01,2025-02-06_14h05.13.954,Surprise recog test,2023.1.3,59.94916308551438,
66,0,66,0,,,,,,,,,,,,,,,,,,,,,,,,,,,,,,,,,,,,903.2031362999696,904.2204438999761,901.421057999949,901.421057999949,901.421057999949,901.421057999949,old_fruit_29.png,67,1.0,1.777103599975817,,,042,01,2025-02-06_14h05.13.954,Surprise recog test,2023.1.3,59.94916308551438,
67,0,67,0,,,,,,,,,,,,,,,,,,,,,,,,,,,,,,,,,,,,906.5037725999719,,904.2204438999761,904.2204438999761,904.2204438999761,904.2204438999761,new_stationery_49.png,68,5.0,2.279242799966596,,,042,01,2025-02-06_14h05.13.954,Surprise recog test,2023.1.3,59.94916308551438,
68,0,68,0,,,,,,,,,,,,,,,,,,,,,,,,,,,,,,,,,,,,909.9730834999355,,907.5255449999822,907.5255449999822,907.5255449999822,907.5255449999822,new_fruit_34.png,69,4.0,2.4408968000207096,,,042,01,2025-02-06_14h05.13.954,Surprise recog test,2023.1.3,59.94916308551438,
69,0,69,0,,,,,,,,,,,,,,,,,,,,,,,,,,,,,,,,,,,,912.7607570999535,,910.9945709999884,910.9945709999884,910.9945709999884,910.9945709999884,new_sceneOut_15.png,70,1.0,1.7630139999091625,,,042,01,2025-02-06_14h05.13.954,Surprise recog test,2023.1.3,59.94916308551438,
70,0,70,0,,,,,,,,,,,,,,,,,,,,,,,,,,,,,,,,,,,,916.5491175999632,917.5739420999307,913.7874282000121,913.7874282000121,913.7874282000121,913.7874282000121,new_fruit_44.png,71,3.0,2.7616602999623865,,,042,01,2025-02-06_14h05.13.954,Surprise recog test,2023.1.3,59.94916308551438,
71,0,71,0,,,,,,,,,,,,,,,,,,,,,,,,,,,,,,,,,,,,918.9963969999226,920.0042844000272,917.5739420999307,917.5739420999307,917.5739420999307,917.5739420999307,new_fruit_13.png,72,3.0,1.4231829999480397,,,042,01,2025-02-06_14h05.13.954,Surprise recog test,2023.1.3,59.94916308551438,
72,0,72,0,,,,,,,,,,,,,,,,,,,,,,,,,,,,,,,,,,,,923.114877999993,924.1391817999538,920.0042844000272,920.0042844000272,920.0042844000272,920.0042844000272,new_sceneIn_35.png,73,4.0,3.1039665000280365,,,042,01,2025-02-06_14h05.13.954,Surprise recog test,2023.1.3,59.94916308551438,
73,0,73,0,,,,,,,,,,,,,,,,,,,,,,,,,,,,,,,,,,,,926.3920915999915,927.4222652999451,924.1391817999538,924.1391817999538,924.1391817999538,924.1391817999538,old_sceneOut_49.png,74,3.0,2.255936900037341,,,042,01,2025-02-06_14h05.13.954,Surprise recog test,2023.1.3,59.94916308551438,
74,0,74,0,,,,,,,,,,,,,,,,,,,,,,,,,,,,,,,,,,,,930.1820704999845,931.2059092000127,927.4222652999451,927.4222652999451,927.4222652999451,927.4222652999451,new_fruit_21.png,75,3.0,2.7623524999944493,,,042,01,2025-02-06_14h05.13.954,Surprise recog test,2023.1.3,59.94916308551438,
75,0,75,0,,,,,,,,,,,,,,,,,,,,,,,,,,,,,,,,,,,,934.2142517999746,935.2378329000203,931.2059092000127,931.2059092000127,931.2059092000127,931.2059092000127,new_sceneIn_29.png,76,4.0,3.0100230000680313,,,042,01,2025-02-06_14h05.13.954,Surprise recog test,2023.1.3,59.94916308551438,
76,0,76,0,,,,,,,,,,,,,,,,,,,,,,,,,,,,,,,,,,,,938.7204468999989,939.7325440000277,935.2378329000203,935.2378329000203,935.2378329000203,935.2378329000203,new_sceneIn_40.png,77,3.0,3.483279600040987,,,042,01,2025-02-06_14h05.13.954,Surprise recog test,2023.1.3,59.94916308551438,
77,0,77,0,,,,,,,,,,,,,,,,,,,,,,,,,,,,,,,,,,,,942.1113968000282,943.1330100999912,939.7325440000277,939.7325440000277,939.7325440000277,939.7325440000277,old_stationery_43.png,78,2.0,2.372810799977742,,,042,01,2025-02-06_14h05.13.954,Surprise recog test,2023.1.3,59.94916308551438,
78,0,78,0,,,,,,,,,,,,,,,,,,,,,,,,,,,,,,,,,,,,946.4117884000298,947.4328112000367,943.1330100999912,943.1330100999912,943.1330100999912,943.1330100999912,old_sceneOut_45.png,79,2.0,3.280477299937047,,,042,01,2025-02-06_14h05.13.954,Surprise recog test,2023.1.3,59.94916308551438,
79,0,79,0,,,,,,,,,,,,,,,,,,,,,,,,,,,,,,,,,,,,951.3483669999987,952.364869199926,947.4328112000367,947.4328112000367,947.4328112000367,947.4328112000367,old_sceneIn_11.png,80,2.0,3.916851400048472,,,042,01,2025-02-06_14h05.13.954,Surprise recog test,2023.1.3,59.94916308551438,
80,0,80,0,,,,,,,,,,,,,,,,,,,,,,,,,,,,,,,,,,,,955.5381630000193,956.5624226999935,952.364869199926,952.364869199926,952.364869199926,952.364869199926,new_stationery_25.png,81,4.0,3.1711508000735193,,,042,01,2025-02-06_14h05.13.954,Surprise recog test,2023.1.3,59.94916308551438,
81,0,81,0,,,,,,,,,,,,,,,,,,,,,,,,,,,,,,,,,,,,959.7153863999993,,956.5624226999935,956.5624226999935,956.5624226999935,956.5624226999935,old_sceneIn_1.png,82,3.0,3.1550324000418186,,,042,01,2025-02-06_14h05.13.954,Surprise recog test,2023.1.3,59.94916308551438,
82,0,82,0,,,,,,,,,,,,,,,,,,,,,,,,,,,,,,,,,,,,962.7815935999388,963.7998919999227,960.7355110000353,960.7355110000353,960.7355110000353,960.7355110000353,old_sceneIn_3.png,83,2.0,2.0396731999935582,,,042,01,2025-02-06_14h05.13.954,Surprise recog test,2023.1.3,59.94916308551438,
83,0,83,0,,,,,,,,,,,,,,,,,,,,,,,,,,,,,,,,,,,,966.9606659000274,967.9891202999279,963.7998919999227,963.7998919999227,963.7998919999227,963.7998919999227,new_sceneOut_29.png,84,2.0,3.159885499975644,,,042,01,2025-02-06_14h05.13.954,Surprise recog test,2023.1.3,59.94916308551438,
84,0,84,0,,,,,,,,,,,,,,,,,,,,,,,,,,,,,,,,,,,,972.7264988999814,,967.9891202999279,967.9891202999279,967.9891202999279,967.9891202999279,new_sceneIn_2.png,85,3.0,4.737132499925792,,,042,01,2025-02-06_14h05.13.954,Surprise recog test,2023.1.3,59.94916308551438,
85,0,85,0,,,,,,,,,,,,,,,,,,,,,,,,,,,,,,,,,,,,975.5168257999467,976.5465144999325,973.7605100999353,973.7605100999353,973.7605100999353,973.7605100999353,new_sceneIn_11.png,86,4.0,1.7590997000224888,,,042,01,2025-02-06_14h05.13.954,Surprise recog test,2023.1.3,59.94916308551438,
86,0,86,0,,,,,,,,,,,,,,,,,,,,,,,,,,,,,,,,,,,,980.079813899938,981.0848436999368,976.5465144999325,976.5465144999325,976.5465144999325,976.5465144999325,new_fruit_45.png,87,3.0,3.5313757000258192,,,042,01,2025-02-06_14h05.13.954,Surprise recog test,2023.1.3,59.94916308551438,
87,0,87,0,,,,,,,,,,,,,,,,,,,,,,,,,,,,,,,,,,,,983.4583930999506,984.4879716000287,981.0848436999368,981.0848436999368,981.0848436999368,981.0848436999368,new_sceneIn_33.png,88,4.0,2.3680061999475583,,,042,01,2025-02-06_14h05.13.954,Surprise recog test,2023.1.3,59.94916308551438,
88,0,88,0,,,,,,,,,,,,,,,,,,,,,,,,,,,,,,,,,,,,987.0501795000164,988.0708123999648,984.4879716000287,984.4879716000287,984.4879716000287,984.4879716000287,new_stationery_1.png,89,4.0,2.565620300010778,,,042,01,2025-02-06_14h05.13.954,Surprise recog test,2023.1.3,59.94916308551438,
89,0,89,0,,,,,,,,,,,,,,,,,,,,,,,,,,,,,,,,,,,,991.180674299947,992.19545619993,988.0708123999648,988.0708123999648,988.0708123999648,988.0708123999648,old_sceneIn_21.png,90,5.0,3.110912699950859,,,042,01,2025-02-06_14h05.13.954,Surprise recog test,2023.1.3,59.94916308551438,
90,0,90,0,,,,,,,,,,,,,,,,,,,,,,,,,,,,,,,,,,,,994.4791767999995,995.5050218999386,992.19545619993,992.19545619993,992.19545619993,992.19545619993,new_stationery_37.png,91,5.0,2.2751975000137463,,,042,01,2025-02-06_14h05.13.954,Surprise recog test,2023.1.3,59.94916308551438,
91,0,91,0,,,,,,,,,,,,,,,,,,,,,,,,,,,,,,,,,,,,998.3381189999636,999.3664428000338,995.5050218999386,995.5050218999386,995.5050218999386,995.5050218999386,old_sceneOut_35.png,92,3.0,2.831374599947594,,,042,01,2025-02-06_14h05.13.954,Surprise recog test,2023.1.3,59.94916308551438,
92,0,92,0,,,,,,,,,,,,,,,,,,,,,,,,,,,,,,,,,,,,1004.2155404000077,1005.2285340999952,999.3664428000338,999.3664428000338,999.3664428000338,999.3664428000338,old_fruit_46.png,93,4.0,4.850743999937549,,,042,01,2025-02-06_14h05.13.954,Surprise recog test,2023.1.3,59.94916308551438,
93,0,93,0,,,,,,,,,,,,,,,,,,,,,,,,,,,,,,,,,,,,1008.6603895999724,1009.6881882000016,1005.2285340999952,1005.2285340999952,1005.2285340999952,1005.2285340999952,old_fruit_40.png,94,3.0,3.4312336000148207,,,042,01,2025-02-06_14h05.13.954,Surprise recog test,2023.1.3,59.94916308551438,
94,0,94,0,,,,,,,,,,,,,,,,,,,,,,,,,,,,,,,,,,,,1014.4680285999784,1015.4861035000067,1009.6881882000016,1009.6881882000016,1009.6881882000016,1009.6881882000016,new_sceneIn_14.png,95,3.0,4.7814146999735385,,,042,01,2025-02-06_14h05.13.954,Surprise recog test,2023.1.3,59.94916308551438,
95,0,95,0,,,,,,,,,,,,,,,,,,,,,,,,,,,,,,,,,,,,1017.3656203999417,1018.3944286999758,1015.4861035000067,1015.4861035000067,1015.4861035000067,1015.4861035000067,old_sceneIn_48.png,96,4.0,1.878616499947384,,,042,01,2025-02-06_14h05.13.954,Surprise recog test,2023.1.3,59.94916308551438,
96,0,96,0,,,,,,,,,,,,,,,,,,,,,,,,,,,,,,,,,,,,1020.1793190999888,1021.1841259000357,1018.3944286999758,1018.3944286999758,1018.3944286999758,1018.3944286999758,new_stationery_10.png,97,4.0,1.7853476000018418,,,042,01,2025-02-06_14h05.13.954,Surprise recog test,2023.1.3,59.94916308551438,
97,0,97,0,,,,,,,,,,,,,,,,,,,,,,,,,,,,,,,,,,,,1024.2732331999578,1025.2923521000193,1021.1841259000357,1021.1841259000357,1021.1841259000357,1021.1841259000357,new_sceneIn_49.png,98,3.0,3.0848722000373527,,,042,01,2025-02-06_14h05.13.954,Surprise recog test,2023.1.3,59.94916308551438,
98,0,98,0,,,,,,,,,,,,,,,,,,,,,,,,,,,,,,,,,,,,1026.5903040999547,1027.610614300007,1025.2923521000193,1025.2923521000193,1025.2923521000193,1025.2923521000193,new_sceneOut_46.png,99,2.0,1.297157800057903,,,042,01,2025-02-06_14h05.13.954,Surprise recog test,2023.1.3,59.94916308551438,
99,0,99,0,,,,,,,,,,,,,,,,,,,,,,,,,,,,,,,,,,,,1029.3532836999511,1030.3587364000268,1027.610614300007,1027.610614300007,1027.610614300007,1027.610614300007,old_fruit_21.png,100,3.0,1.736930500017479,,,042,01,2025-02-06_14h05.13.954,Surprise recog test,2023.1.3,59.94916308551438,
100,0,100,0,,,,,,,,,,,,,,,,,,,,,,,,,,,,,,,,,,,,1033.308906899998,,1030.3587364000268,1030.3587364000268,1030.3587364000268,1030.3587364000268,old_sceneOut_18.png,101,3.0,2.9467751000775024,,,042,01,2025-02-06_14h05.13.954,Surprise recog test,2023.1.3,59.94916308551438,
101,0,101,0,,,,,,,,,,,,,,,,,,,,,,,,,,,,,,,,,,,,1035.6364830000093,1036.6643532000016,1034.3274367999984,1034.3274367999984,1034.3274367999984,1034.3274367999984,old_sceneIn_26.png,102,3.0,1.304913999978453,,,042,01,2025-02-06_14h05.13.954,Surprise recog test,2023.1.3,59.94916308551438,
102,0,102,0,,,,,,,,,,,,,,,,,,,,,,,,,,,,,,,,,,,,1039.7289655000204,1040.7332351999357,1036.6643532000016,1036.6643532000016,1036.6643532000016,1036.6643532000016,old_sceneIn_23.png,103,4.0,3.0668018999276683,,,042,01,2025-02-06_14h05.13.954,Surprise recog test,2023.1.3,59.94916308551438,
103,0,103,0,,,,,,,,,,,,,,,,,,,,,,,,,,,,,,,,,,,,1042.9028367999708,1043.923604200012,1040.7332351999357,1040.7332351999357,1040.7332351999357,1040.7332351999357,old_fruit_36.png,104,2.0,2.1651524000335485,,,042,01,2025-02-06_14h05.13.954,Surprise recog test,2023.1.3,59.94916308551438,
104,0,104,0,,,,,,,,,,,,,,,,,,,,,,,,,,,,,,,,,,,,1047.421041399939,,1043.923604200012,1043.923604200012,1043.923604200012,1043.923604200012,old_sceneOut_19.png,105,3.0,3.4909859999315813,,,042,01,2025-02-06_14h05.13.954,Surprise recog test,2023.1.3,59.94916308551438,
105,0,105,0,,,,,,,,,,,,,,,,,,,,,,,,,,,,,,,,,,,,1051.2009809999727,1052.226593600004,1048.4432165999897,1048.4432165999897,1048.4432165999897,1048.4432165999897,new_sceneOut_16.png,106,4.0,2.75525209994521,,,042,01,2025-02-06_14h05.13.954,Surprise recog test,2023.1.3,59.94916308551438,
106,0,106,0,,,,,,,,,,,,,,,,,,,,,,,,,,,,,,,,,,,,1056.4006791999564,1057.4309882000089,1052.226593600004,1052.226593600004,1052.226593600004,1052.226593600004,old_sceneIn_49.png,107,4.0,4.176415299996734,,,042,01,2025-02-06_14h05.13.954,Surprise recog test,2023.1.3,59.94916308551438,
107,0,107,0,,,,,,,,,,,,,,,,,,,,,,,,,,,,,,,,,,,,1059.7800009000348,1060.7855163000058,1057.4309882000089,1057.4309882000089,1057.4309882000089,1057.4309882000089,old_sceneIn_17.png,108,3.0,2.3497671000659466,,,042,01,2025-02-06_14h05.13.954,Surprise recog test,2023.1.3,59.94916308551438,
108,0,108,0,,,,,,,,,,,,,,,,,,,,,,,,,,,,,,,,,,,,1063.7108987999381,1064.72810139996,1060.7855163000058,1060.7855163000058,1060.7855163000058,1060.7855163000058,old_fruit_44.png,109,3.0,2.918728999909945,,,042,01,2025-02-06_14h05.13.954,Surprise recog test,2023.1.3,59.94916308551438,
109,0,109,0,,,,,,,,,,,,,,,,,,,,,,,,,,,,,,,,,,,,1067.6059388000285,,1064.72810139996,1064.72810139996,1064.72810139996,1064.72810139996,new_sceneIn_45.png,110,4.0,2.8786820999812335,,,042,01,2025-02-06_14h05.13.954,Surprise recog test,2023.1.3,59.94916308551438,
110,0,110,0,,,,,,,,,,,,,,,,,,,,,,,,,,,,,,,,,,,,1070.4080426000291,,1068.6296062000329,1068.6296062000329,1068.6296062000329,1068.6296062000329,new_fruit_39.png,111,4.0,1.7744284000946209,,,042,01,2025-02-06_14h05.13.954,Surprise recog test,2023.1.3,59.94916308551438,
111,0,111,0,,,,,,,,,,,,,,,,,,,,,,,,,,,,,,,,,,,,1073.049003800028,1074.066120399977,1071.4283192999428,1071.4283192999428,1071.4283192999428,1071.4283192999428,new_sceneOut_36.png,112,4.0,1.6161248999414966,,,042,01,2025-02-06_14h05.13.954,Surprise recog test,2023.1.3,59.94916308551438,
112,0,112,0,,,,,,,,,,,,,,,,,,,,,,,,,,,,,,,,,,,,1075.8916349000065,1076.9000561999856,1074.066120399977,1074.066120399977,1074.066120399977,1074.066120399977,old_fruit_8.png,113,4.0,1.8217993999132887,,,042,01,2025-02-06_14h05.13.954,Surprise recog test,2023.1.3,59.94916308551438,
113,0,113,0,,,,,,,,,,,,,,,,,,,,,,,,,,,,,,,,,,,,1079.8987334999256,,1076.9000561999856,1076.9000561999856,1076.9000561999856,1076.9000561999856,new_stationery_29.png,114,5.0,2.992328400025144,,,042,01,2025-02-06_14h05.13.954,Surprise recog test,2023.1.3,59.94916308551438,
114,0,114,0,,,,,,,,,,,,,,,,,,,,,,,,,,,,,,,,,,,,1082.7130707999459,1083.7359169999836,1080.9327269999776,1080.9327269999776,1080.9327269999776,1080.9327269999776,old_fruit_10.png,115,5.0,1.7822860999731347,,,042,01,2025-02-06_14h05.13.954,Surprise recog test,2023.1.3,59.94916308551438,
115,0,115,0,,,,,,,,,,,,,,,,,,,,,,,,,,,,,,,,,,,,1086.2432111999951,1087.2716530000325,1083.7359169999836,1083.7359169999836,1083.7359169999836,1083.7359169999836,old_fruit_7.png,116,3.0,2.510600500041619,,,042,01,2025-02-06_14h05.13.954,Surprise recog test,2023.1.3,59.94916308551438,
116,0,116,0,,,,,,,,,,,,,,,,,,,,,,,,,,,,,,,,,,,,1091.2594729999546,,1087.2716530000325,1087.2716530000325,1087.2716530000325,1087.2716530000325,new_fruit_41.png,117,4.0,3.9876586999744177,,,042,01,2025-02-06_14h05.13.954,Surprise recog test,2023.1.3,59.94916308551438,
117,0,117,0,,,,,,,,,,,,,,,,,,,,,,,,,,,,,,,,,,,,1094.5051122999284,1095.512948699994,1092.2910917999689,1092.2910917999689,1092.2910917999689,1092.2910917999689,old_sceneIn_38.png,118,4.0,2.2136521000647917,,,042,01,2025-02-06_14h05.13.954,Surprise recog test,2023.1.3,59.94916308551438,
118,0,118,0,,,,,,,,,,,,,,,,,,,,,,,,,,,,,,,,,,,,1097.5175701000262,1098.5467779999599,1095.512948699994,1095.512948699994,1095.512948699994,1095.512948699994,old_stationery_2.png,119,1.0,2.0012186999665573,,,042,01,2025-02-06_14h05.13.954,Surprise recog test,2023.1.3,59.94916308551438,
119,0,119,0,,,,,,,,,,,,,,,,,,,,,,,,,,,,,,,,,,,,1100.3022422000067,1101.3262931000208,1098.5467779999599,1098.5467779999599,1098.5467779999599,1098.5467779999599,new_stationery_5.png,120,1.0,1.7576686000684276,,,042,01,2025-02-06_14h05.13.954,Surprise recog test,2023.1.3,59.94916308551438,
120,0,120,0,,,,,,,,,,,,,,,,,,,,,,,,,,,,,,,,,,,,1103.5848358999938,,1101.3262931000208,1101.3262931000208,1101.3262931000208,1101.3262931000208,old_sceneIn_8.png,121,4.0,2.2602070999564603,,,042,01,2025-02-06_14h05.13.954,Surprise recog test,2023.1.3,59.94916308551438,
121,0,121,0,,,,,,,,,,,,,,,,,,,,,,,,,,,,,,,,,,,,1106.627085599932,1107.6550179999322,1104.6177517999895,1104.6177517999895,1104.6177517999895,1104.6177517999895,new_sceneOut_17.png,122,4.0,2.0107502000173554,,,042,01,2025-02-06_14h05.13.954,Surprise recog test,2023.1.3,59.94916308551438,
122,0,122,0,,,,,,,,,,,,,,,,,,,,,,,,,,,,,,,,,,,,1110.929529099958,1111.9582100999542,1107.6550179999322,1107.6550179999322,1107.6550179999322,1107.6550179999322,new_sceneOut_42.png,123,4.0,3.276239800034091,,,042,01,2025-02-06_14h05.13.954,Surprise recog test,2023.1.3,59.94916308551438,
123,0,123,0,,,,,,,,,,,,,,,,,,,,,,,,,,,,,,,,,,,,1114.1559380999533,1115.1648760000244,1111.9582100999542,1111.9582100999542,1111.9582100999542,1111.9582100999542,new_sceneOut_19.png,124,2.0,2.199016200029291,,,042,01,2025-02-06_14h05.13.954,Surprise recog test,2023.1.3,59.94916308551438,
124,0,124,0,,,,,,,,,,,,,,,,,,,,,,,,,,,,,,,,,,,,1119.6518840999343,1120.6837469999446,1115.1648760000244,1115.1648760000244,1115.1648760000244,1115.1648760000244,new_sceneIn_28.png,125,4.0,4.482603300013579,,,042,01,2025-02-06_14h05.13.954,Surprise recog test,2023.1.3,59.94916308551438,
125,0,125,0,,,,,,,,,,,,,,,,,,,,,,,,,,,,,,,,,,,,1123.1778519999934,1124.2029759000288,1120.6837469999446,1120.6837469999446,1120.6837469999446,1120.6837469999446,old_fruit_35.png,126,4.0,2.49599510000553,,,042,01,2025-02-06_14h05.13.954,Surprise recog test,2023.1.3,59.94916308551438,
126,0,126,0,,,,,,,,,,,,,,,,,,,,,,,,,,,,,,,,,,,,1125.794600000023,1126.8097813000204,1124.2029759000288,1124.2029759000288,1124.2029759000288,1124.2029759000288,old_fruit_2.png,127,2.0,1.5946040999842808,,,042,01,2025-02-06_14h05.13.954,Surprise recog test,2023.1.3,59.94916308551438,
127,0,127,0,,,,,,,,,,,,,,,,,,,,,,,,,,,,,,,,,,,,1129.1849776000017,1130.204362199991,1126.8097813000204,1126.8097813000204,1126.8097813000204,1126.8097813000204,old_sceneOut_44.png,128,2.0,2.3696019999915734,,,042,01,2025-02-06_14h05.13.954,Surprise recog test,2023.1.3,59.94916308551438,
128,0,128,0,,,,,,,,,,,,,,,,,,,,,,,,,,,,,,,,,,,,1133.8432774000103,,1130.204362199991,1130.204362199991,1130.204362199991,1130.204362199991,new_sceneIn_27.png,129,4.0,3.638355700066313,,,042,01,2025-02-06_14h05.13.954,Surprise recog test,2023.1.3,59.94916308551438,
129,0,129,0,,,,,,,,,,,,,,,,,,,,,,,,,,,,,,,,,,,,1136.463226599968,,1134.8630055999383,1134.8630055999383,1134.8630055999383,1134.8630055999383,new_fruit_10.png,130,5.0,1.595727299922146,,,042,01,2025-02-06_14h05.13.954,Surprise recog test,2023.1.3,59.94916308551438,
130,0,130,0,,,,,,,,,,,,,,,,,,,,,,,,,,,,,,,,,,,,1139.1448718999745,1140.1538161999779,1137.4957232000306,1137.4957232000306,1137.4957232000306,1137.4957232000306,old_fruit_45.png,131,1.0,1.6482916999375448,,,042,01,2025-02-06_14h05.13.954,Surprise recog test,2023.1.3,59.94916308551438,
131,0,131,0,,,,,,,,,,,,,,,,,,,,,,,,,,,,,,,,,,,,1143.2908572999295,1144.3160568999592,1140.1538161999779,1140.1538161999779,1140.1538161999779,1140.1538161999779,old_fruit_32.png,132,4.0,3.1317382999695837,,,042,01,2025-02-06_14h05.13.954,Surprise recog test,2023.1.3,59.94916308551438,
132,0,132,0,,,,,,,,,,,,,,,,,,,,,,,,,,,,,,,,,,,,1147.9263705000049,1148.9474459999474,1144.3160568999592,1144.3160568999592,1144.3160568999592,1144.3160568999592,old_sceneIn_43.png,133,4.0,3.6113352000247687,,,042,01,2025-02-06_14h05.13.954,Surprise recog test,2023.1.3,59.94916308551438,
133,0,133,0,,,,,,,,,,,,,,,,,,,,,,,,,,,,,,,,,,,,1150.7197781000286,1151.7379625999602,1148.9474459999474,1148.9474459999474,1148.9474459999474,1148.9474459999474,new_fruit_14.png,134,3.0,1.7721335999667645,,,042,01,2025-02-06_14h05.13.954,Surprise recog test,2023.1.3,59.94916308551438,
134,0,134,0,,,,,,,,,,,,,,,,,,,,,,,,,,,,,,,,,,,,1155.72673200001,1156.7385783999925,1151.7379625999602,1151.7379625999602,1151.7379625999602,1151.7379625999602,old_sceneOut_1.png,135,3.0,3.99058929993771,,,042,01,2025-02-06_14h05.13.954,Surprise recog test,2023.1.3,59.94916308551438,
135,0,135,0,,,,,,,,,,,,,,,,,,,,,,,,,,,,,,,,,,,,1158.1852199999848,1159.2161054000026,1156.7385783999925,1156.7385783999925,1156.7385783999925,1156.7385783999925,old_stationery_34.png,136,1.0,1.446012399974279,,,042,01,2025-02-06_14h05.13.954,Surprise recog test,2023.1.3,59.94916308551438,
136,0,136,0,,,,,,,,,,,,,,,,,,,,,,,,,,,,,,,,,,,,1163.932843199931,1164.9516039999435,1159.2161054000026,1159.2161054000026,1159.2161054000026,1159.2161054000026,new_stationery_48.png,137,4.0,4.719025200000033,,,042,01,2025-02-06_14h05.13.954,Surprise recog test,2023.1.3,59.94916308551438,
137,0,137,0,,,,,,,,,,,,,,,,,,,,,,,,,,,,,,,,,,,,1166.5152669999516,1167.5387411999982,1164.9516039999435,1164.9516039999435,1164.9516039999435,1164.9516039999435,new_stationery_50.png,138,5.0,1.5640906000044197,,,042,01,2025-02-06_14h05.13.954,Surprise recog test,2023.1.3,59.94916308551438,
138,0,138,0,,,,,,,,,,,,,,,,,,,,,,,,,,,,,,,,,,,,1170.2482560999924,1171.259518799954,1167.5387411999982,1167.5387411999982,1167.5387411999982,1167.5387411999982,old_sceneOut_24.png,139,4.0,2.7111759000690654,,,042,01,2025-02-06_14h05.13.954,Surprise recog test,2023.1.3,59.94916308551438,
139,0,139,0,,,,,,,,,,,,,,,,,,,,,,,,,,,,,,,,,,,,1173.3062693999382,1174.3215405000374,1171.259518799954,1171.259518799954,1171.259518799954,1171.259518799954,new_sceneIn_17.png,140,4.0,2.037901100004092,,,042,01,2025-02-06_14h05.13.954,Surprise recog test,2023.1.3,59.94916308551438,
140,0,140,0,,,,,,,,,,,,,,,,,,,,,,,,,,,,,,,,,,,,1179.3099294999847,1180.3251254999777,1174.3215405000374,1174.3215405000374,1174.3215405000374,1174.3215405000374,new_fruit_18.png,141,None,None,,,042,01,2025-02-06_14h05.13.954,Surprise recog test,2023.1.3,59.94916308551438,
141,0,141,0,,,,,,,,,,,,,,,,,,,,,,,,,,,,,,,,,,,,1182.3788712000242,1183.4036720999284,1180.3251254999777,1180.3251254999777,1180.3251254999777,1180.3251254999777,old_stationery_44.png,142,1.0,2.053751999977976,,,042,01,2025-02-06_14h05.13.954,Surprise recog test,2023.1.3,59.94916308551438,
142,0,142,0,,,,,,,,,,,,,,,,,,,,,,,,,,,,,,,,,,,,1186.4578455999726,1187.4892307999544,1183.4036720999284,1183.4036720999284,1183.4036720999284,1183.4036720999284,new_fruit_5.png,143,3.0,3.0571344000054523,,,042,01,2025-02-06_14h05.13.954,Surprise recog test,2023.1.3,59.94916308551438,
143,0,143,0,,,,,,,,,,,,,,,,,,,,,,,,,,,,,,,,,,,,1189.6384308999404,,1187.4892307999544,1187.4892307999544,1187.4892307999544,1187.4892307999544,new_sceneIn_30.png,144,2.0,2.1507435999810696,,,042,01,2025-02-06_14h05.13.954,Surprise recog test,2023.1.3,59.94916308551438,
144,0,144,0,,,,,,,,,,,,,,,,,,,,,,,,,,,,,,,,,,,,1194.5035073999316,1195.5170938000083,1190.6642575999722,1190.6642575999722,1190.6642575999722,1190.6642575999722,old_sceneOut_7.png,145,3.0,3.8349418999860063,,,042,01,2025-02-06_14h05.13.954,Surprise recog test,2023.1.3,59.94916308551438,
145,0,145,0,,,,,,,,,,,,,,,,,,,,,,,,,,,,,,,,,,,,1199.346154000028,1200.3499468999216,1195.5170938000083,1195.5170938000083,1195.5170938000083,1195.5170938000083,old_sceneIn_47.png,146,3.0,3.8225597999989986,,,042,01,2025-02-06_14h05.13.954,Surprise recog test,2023.1.3,59.94916308551438,
146,0,146,0,,,,,,,,,,,,,,,,,,,,,,,,,,,,,,,,,,,,1205.234989700024,,1200.3499468999216,1200.3499468999216,1200.3499468999216,1200.3499468999216,old_sceneOut_22.png,147,3.0,4.881126800086349,,,042,01,2025-02-06_14h05.13.954,Surprise recog test,2023.1.3,59.94916308551438,
147,0,147,0,,,,,,,,,,,,,,,,,,,,,,,,,,,,,,,,,,,,1211.2438398000086,,1206.2685321000172,1206.2685321000172,1206.2685321000172,1206.2685321000172,new_sceneIn_3.png,148,None,None,1211.237231999985,,042,01,2025-02-06_14h05.13.954,Surprise recog test,2023.1.3,59.94916308551438,
148,0,148,0,,,,,,,,,,,,,,,,,,,,,,,,,,,,,,,,,,,,1214.1823622999946,1215.199251599959,1212.2739733000053,1212.2739733000053,1212.2739733000053,1212.2739733000053,old_sceneOut_26.png,149,4.0,1.9103628000011668,,,042,01,2025-02-06_14h05.13.954,Surprise recog test,2023.1.3,59.94916308551438,
149,0,149,0,,,,,,,,,,,,,,,,,,,,,,,,,,,,,,,,,,,,1217.4597119999817,1218.483122000005,1215.199251599959,1215.199251599959,1215.199251599959,1215.199251599959,old_fruit_22.png,150,4.0,2.2536836999934167,,,042,01,2025-02-06_14h05.13.954,Surprise recog test,2023.1.3,59.94916308551438,
150,0,150,0,,,,,,,,,,,,,,,,,,,,,,,,,,,,,,,,,,,,1220.2609911999898,1221.2739519999595,1218.483122000005,1218.483122000005,1218.483122000005,1218.483122000005,old_stationery_49.png,151,1.0,1.7793752999277785,,,042,01,2025-02-06_14h05.13.954,Surprise recog test,2023.1.3,59.94916308551438,
151,0,151,0,,,,,,,,,,,,,,,,,,,,,,,,,,,,,,,,,,,,1225.094988500001,1226.1194555999245,1221.2739519999595,1221.2739519999595,1221.2739519999595,1221.2739519999595,old_sceneOut_29.png,152,4.0,3.819042199989781,,,042,01,2025-02-06_14h05.13.954,Surprise recog test,2023.1.3,59.94916308551438,
152,0,152,0,,,,,,,,,,,,,,,,,,,,,,,,,,,,,,,,,,,,1229.194564000005,1230.2218359999824,1226.1194555999245,1226.1194555999245,1226.1194555999245,1226.1194555999245,new_stationery_21.png,153,4.0,3.0772801999701187,,,042,01,2025-02-06_14h05.13.954,Surprise recog test,2023.1.3,59.94916308551438,
153,0,153,0,,,,,,,,,,,,,,,,,,,,,,,,,,,,,,,,,,,,1233.5086817999836,,1230.2218359999824,1230.2218359999824,1230.2218359999824,1230.2218359999824,old_fruit_9.png,154,4.0,3.2854897000361234,,,042,01,2025-02-06_14h05.13.954,Surprise recog test,2023.1.3,59.94916308551438,
154,0,154,0,,,,,,,,,,,,,,,,,,,,,,,,,,,,,,,,,,,,1238.1170785999857,1239.146491099964,1234.5342114999657,1234.5342114999657,1234.5342114999657,1234.5342114999657,old_fruit_13.png,155,2.0,3.5803613000316545,,,042,01,2025-02-06_14h05.13.954,Surprise recog test,2023.1.3,59.94916308551438,
155,0,155,0,,,,,,,,,,,,,,,,,,,,,,,,,,,,,,,,,,,,1241.4628907999722,1242.477517399937,1239.146491099964,1239.146491099964,1239.146491099964,1239.146491099964,old_fruit_11.png,156,2.0,2.317117700004019,,,042,01,2025-02-06_14h05.13.954,Surprise recog test,2023.1.3,59.94916308551438,
156,0,156,0,,,,,,,,,,,,,,,,,,,,,,,,,,,,,,,,,,,,1244.7106684999308,1245.7283602999523,1242.477517399937,1242.477517399937,1242.477517399937,1242.477517399937,new_sceneIn_4.png,157,3.0,2.23426580009982,,,042,01,2025-02-06_14h05.13.954,Surprise recog test,2023.1.3,59.94916308551438,
157,0,157,0,,,,,,,,,,,,,,,,,,,,,,,,,,,,,,,,,,,,1250.7394807999954,,1245.7283602999523,1245.7283602999523,1245.7283602999523,1245.7283602999523,new_sceneOut_14.png,158,None,None,1250.725838299957,,042,01,2025-02-06_14h05.13.954,Surprise recog test,2023.1.3,59.94916308551438,
158,0,158,0,,,,,,,,,,,,,,,,,,,,,,,,,,,,,,,,,,,,1253.6556572000263,1254.6771792999934,1251.7550680999411,1251.7550680999411,1251.7550680999411,1251.7550680999411,old_stationery_20.png,159,1.0,1.900612400029786,,,042,01,2025-02-06_14h05.13.954,Surprise recog test,2023.1.3,59.94916308551438,
159,0,159,0,,,,,,,,,,,,,,,,,,,,,,,,,,,,,,,,,,,,1257.2298090999248,,1254.6771792999934,1254.6771792999934,1254.6771792999934,1254.6771792999934,new_stationery_11.png,160,4.0,2.5513986999867484,,,042,01,2025-02-06_14h05.13.954,Surprise recog test,2023.1.3,59.94916308551438,
160,0,160,0,,,,,,,,,,,,,,,,,,,,,,,,,,,,,,,,,,,,1260.4785142999608,1261.4853529999964,1258.264379399945,1258.264379399945,1258.264379399945,1258.264379399945,new_fruit_24.png,161,5.0,2.2125937999226153,,,042,01,2025-02-06_14h05.13.954,Surprise recog test,2023.1.3,59.94916308551438,
161,0,161,0,,,,,,,,,,,,,,,,,,,,,,,,,,,,,,,,,,,,1266.300343299983,1267.3160033000167,1261.4853529999964,1261.4853529999964,1261.4853529999964,1261.4853529999964,new_sceneOut_24.png,162,3.0,4.804317199974321,,,042,01,2025-02-06_14h05.13.954,Surprise recog test,2023.1.3,59.94916308551438,
162,0,162,0,,,,,,,,,,,,,,,,,,,,,,,,,,,,,,,,,,,,1269.4472503999714,1270.4610995999537,1267.3160033000167,1267.3160033000167,1267.3160033000167,1267.3160033000167,old_fruit_28.png,163,3.0,2.1316313000861555,,,042,01,2025-02-06_14h05.13.954,Surprise recog test,2023.1.3,59.94916308551438,
163,0,163,0,,,,,,,,,,,,,,,,,,,,,,,,,,,,,,,,,,,,1272.3053590999916,1273.3135504999664,1270.4610995999537,1270.4610995999537,1270.4610995999537,1270.4610995999537,new_stationery_8.png,164,5.0,1.8396197000984102,,,042,01,2025-02-06_14h05.13.954,Surprise recog test,2023.1.3,59.94916308551438,
164,0,164,0,,,,,,,,,,,,,,,,,,,,,,,,,,,,,,,,,,,,1276.321676200023,1277.338457899983,1273.3135504999664,1273.3135504999664,1273.3135504999664,1273.3135504999664,new_fruit_12.png,165,5.0,3.0034897999139503,,,042,01,2025-02-06_14h05.13.954,Surprise recog test,2023.1.3,59.94916308551438,
165,0,165,0,,,,,,,,,,,,,,,,,,,,,,,,,,,,,,,,,,,,1280.512152499985,1281.5270960000344,1277.338457899983,1277.338457899983,1277.338457899983,1277.338457899983,old_sceneIn_14.png,166,5.0,3.167673400021158,,,042,01,2025-02-06_14h05.13.954,Surprise recog test,2023.1.3,59.94916308551438,
166,0,166,0,,,,,,,,,,,,,,,,,,,,,,,,,,,,,,,,,,,,1283.4500375000061,,1281.5270960000344,1281.5270960000344,1281.5270960000344,1281.5270960000344,old_sceneOut_47.png,167,5.0,1.923411599942483,,,042,01,2025-02-06_14h05.13.954,Surprise recog test,2023.1.3,59.94916308551438,
167,0,167,0,,,,,,,,,,,,,,,,,,,,,,,,,,,,,,,,,,,,1288.433234199998,1289.4440199999372,1284.4780095999595,1284.4780095999595,1284.4780095999595,1284.4780095999595,new_sceneOut_9.png,168,4.0,3.954458700027317,,,042,01,2025-02-06_14h05.13.954,Surprise recog test,2023.1.3,59.94916308551438,
168,0,168,0,,,,,,,,,,,,,,,,,,,,,,,,,,,,,,,,,,,,1293.1655859999591,1294.1898703000043,1289.4440199999372,1289.4440199999372,1289.4440199999372,1289.4440199999372,old_sceneOut_17.png,169,3.0,3.714187699952163,,,042,01,2025-02-06_14h05.13.954,Surprise recog test,2023.1.3,59.94916308551438,
169,0,169,0,,,,,,,,,,,,,,,,,,,,,,,,,,,,,,,,,,,,1295.7334562999895,1296.7662353999913,1294.1898703000043,1294.1898703000043,1294.1898703000043,1294.1898703000043,new_stationery_26.png,170,4.0,1.5449181000003591,,,042,01,2025-02-06_14h05.13.954,Surprise recog test,2023.1.3,59.94916308551438,
170,0,170,0,,,,,,,,,,,,,,,,,,,,,,,,,,,,,,,,,,,,1298.965208999929,,1296.7662353999913,1296.7662353999913,1296.7662353999913,1296.7662353999913,old_sceneOut_31.png,171,3.0,2.2036465998971835,,,042,01,2025-02-06_14h05.13.954,Surprise recog test,2023.1.3,59.94916308551438,
171,0,171,0,,,,,,,,,,,,,,,,,,,,,,,,,,,,,,,,,,,,1303.7062522999477,1304.7235738999443,1299.9977666999912,1299.9977666999912,1299.9977666999912,1299.9977666999912,old_stationery_28.png,172,3.0,3.710504399961792,,,042,01,2025-02-06_14h05.13.954,Surprise recog test,2023.1.3,59.94916308551438,
172,0,172,0,,,,,,,,,,,,,,,,,,,,,,,,,,,,,,,,,,,,1306.4174340999452,1307.437456900021,1304.7235738999443,1304.7235738999443,1304.7235738999443,1304.7235738999443,new_fruit_29.png,173,4.0,1.6895876999478787,,,042,01,2025-02-06_14h05.13.954,Surprise recog test,2023.1.3,59.94916308551438,
173,0,173,0,,,,,,,,,,,,,,,,,,,,,,,,,,,,,,,,,,,,1309.425792300026,1310.4594839999918,1307.437456900021,1307.437456900021,1307.437456900021,1307.437456900021,new_sceneOut_40.png,174,4.0,1.9893226000713184,,,042,01,2025-02-06_14h05.13.954,Surprise recog test,2023.1.3,59.94916308551438,
174,0,174,0,,,,,,,,,,,,,,,,,,,,,,,,,,,,,,,,,,,,1313.0428028999595,,1310.4594839999918,1310.4594839999918,1310.4594839999918,1310.4594839999918,old_fruit_18.png,175,2.0,2.584844599943608,,,042,01,2025-02-06_14h05.13.954,Surprise recog test,2023.1.3,59.94916308551438,
175,0,175,0,,,,,,,,,,,,,,,,,,,,,,,,,,,,,,,,,,,,1315.941100499942,1316.9659748999402,1314.074425800005,1314.074425800005,1314.074425800005,1314.074425800005,old_sceneIn_50.png,176,2.0,1.8690331999678165,,,042,01,2025-02-06_14h05.13.954,Surprise recog test,2023.1.3,59.94916308551438,
176,0,176,0,,,,,,,,,,,,,,,,,,,,,,,,,,,,,,,,,,,,1320.212328499998,1321.2212087999796,1316.9659748999402,1316.9659748999402,1316.9659748999402,1316.9659748999402,new_sceneIn_41.png,177,4.0,3.24881809996441,,,042,01,2025-02-06_14h05.13.954,Surprise recog test,2023.1.3,59.94916308551438,
177,0,177,0,,,,,,,,,,,,,,,,,,,,,,,,,,,,,,,,,,,,1322.7689108999912,1323.786941200029,1321.2212087999796,1321.2212087999796,1321.2212087999796,1321.2212087999796,old_sceneIn_41.png,178,4.0,1.5426406000042334,,,042,01,2025-02-06_14h05.13.954,Surprise recog test,2023.1.3,59.94916308551438,
178,0,178,0,,,,,,,,,,,,,,,,,,,,,,,,,,,,,,,,,,,,1325.1250014000107,1326.1501456999686,1323.786941200029,1323.786941200029,1323.786941200029,1323.786941200029,new_stationery_9.png,179,5.0,1.334251599968411,,,042,01,2025-02-06_14h05.13.954,Surprise recog test,2023.1.3,59.94916308551438,
179,0,179,0,,,,,,,,,,,,,,,,,,,,,,,,,,,,,,,,,,,,1328.5811519999988,1329.5937753999606,1326.1501456999686,1326.1501456999686,1326.1501456999686,1326.1501456999686,old_sceneIn_19.png,180,4.0,2.4317876999266446,,,042,01,2025-02-06_14h05.13.954,Surprise recog test,2023.1.3,59.94916308551438,
180,0,180,0,,,,,,,,,,,,,,,,,,,,,,,,,,,,,,,,,,,,1331.4453532999614,1332.4672992000123,1329.5937753999606,1329.5937753999606,1329.5937753999606,1329.5937753999606,old_stationery_10.png,181,1.0,1.848768200026825,,,042,01,2025-02-06_14h05.13.954,Surprise recog test,2023.1.3,59.94916308551438,
181,0,181,0,,,,,,,,,,,,,,,,,,,,,,,,,,,,,,,,,,,,1334.6067940000212,1335.6201371999923,1332.4672992000123,1332.4672992000123,1332.4672992000123,1332.4672992000123,old_stationery_17.png,182,1.0,2.136228400049731,,,042,01,2025-02-06_14h05.13.954,Surprise recog test,2023.1.3,59.94916308551438,
182,0,182,0,,,,,,,,,,,,,,,,,,,,,,,,,,,,,,,,,,,,1337.7701371000148,1338.7862514000153,1335.6201371999923,1335.6201371999923,1335.6201371999923,1335.6201371999923,new_sceneIn_26.png,183,4.0,2.149993299972266,,,042,01,2025-02-06_14h05.13.954,Surprise recog test,2023.1.3,59.94916308551438,
183,0,183,0,,,,,,,,,,,,,,,,,,,,,,,,,,,,,,,,,,,,1341.057927899994,1342.0714935000287,1338.7862514000153,1338.7862514000153,1338.7862514000153,1338.7862514000153,old_fruit_6.png,184,3.0,2.2687291000038385,,,042,01,2025-02-06_14h05.13.954,Surprise recog test,2023.1.3,59.94916308551438,
184,0,184,0,,,,,,,,,,,,,,,,,,,,,,,,,,,,,,,,,,,,1343.487535299966,1344.5101691000164,1342.0714935000287,1342.0714935000287,1342.0714935000287,1342.0714935000287,old_fruit_26.png,185,3.0,1.4113778999308124,,,042,01,2025-02-06_14h05.13.954,Surprise recog test,2023.1.3,59.94916308551438,
185,0,185,0,,,,,,,,,,,,,,,,,,,,,,,,,,,,,,,,,,,,1345.9622443999397,1346.987439099932,1344.5101691000164,1344.5101691000164,1344.5101691000164,1344.5101691000164,new_sceneIn_1.png,186,4.0,1.4472170000663027,,,042,01,2025-02-06_14h05.13.954,Surprise recog test,2023.1.3,59.94916308551438,
186,0,186,0,,,,,,,,,,,,,,,,,,,,,,,,,,,,,,,,,,,,1348.6914936000248,1349.7217288999818,1346.987439099932,1346.987439099932,1346.987439099932,1346.987439099932,new_fruit_49.png,187,2.0,1.704459400032647,,,042,01,2025-02-06_14h05.13.954,Surprise recog test,2023.1.3,59.94916308551438,
187,0,187,0,,,,,,,,,,,,,,,,,,,,,,,,,,,,,,,,,,,,1352.8734988999786,1353.8766386000207,1349.7217288999818,1349.7217288999818,1349.7217288999818,1349.7217288999818,new_sceneOut_6.png,188,3.0,3.1524295998970047,,,042,01,2025-02-06_14h05.13.954,Surprise recog test,2023.1.3,59.94916308551438,
188,0,188,0,,,,,,,,,,,,,,,,,,,,,,,,,,,,,,,,,,,,1356.0307751999935,1357.056156400009,1353.8766386000207,1353.8766386000207,1353.8766386000207,1353.8766386000207,new_stationery_39.png,189,4.0,2.1473345999838784,,,042,01,2025-02-06_14h05.13.954,Surprise recog test,2023.1.3,59.94916308551438,
189,0,189,0,,,,,,,,,,,,,,,,,,,,,,,,,,,,,,,,,,,,1359.0019037999446,1360.0293242000043,1357.056156400009,1357.056156400009,1357.056156400009,1357.056156400009,new_fruit_3.png,190,5.0,1.9461046000942588,,,042,01,2025-02-06_14h05.13.954,Surprise recog test,2023.1.3,59.94916308551438,
190,0,190,0,,,,,,,,,,,,,,,,,,,,,,,,,,,,,,,,,,,,1361.465116599924,,1360.0293242000043,1360.0293242000043,1360.0293242000043,1360.0293242000043,old_fruit_47.png,191,1.0,1.4349822000367567,,,042,01,2025-02-06_14h05.13.954,Surprise recog test,2023.1.3,59.94916308551438,
191,0,191,0,,,,,,,,,,,,,,,,,,,,,,,,,,,,,,,,,,,,1364.561926299939,1365.5740639999276,1362.4866787999636,1362.4866787999636,1362.4866787999636,1362.4866787999636,new_stationery_34.png,192,4.0,2.070813599973917,,,042,01,2025-02-06_14h05.13.954,Surprise recog test,2023.1.3,59.94916308551438,
192,0,192,0,,,,,,,,,,,,,,,,,,,,,,,,,,,,,,,,,,,,1367.4264265999664,1368.4395972000202,1365.5740639999276,1365.5740639999276,1365.5740639999276,1365.5740639999276,old_fruit_14.png,193,4.0,1.8473679999588057,,,042,01,2025-02-06_14h05.13.954,Surprise recog test,2023.1.3,59.94916308551438,
193,0,193,0,,,,,,,,,,,,,,,,,,,,,,,,,,,,,,,,,,,,1371.2542532000225,1372.2728346999502,1368.4395972000202,1368.4395972000202,1368.4395972000202,1368.4395972000202,old_sceneIn_6.png,194,4.0,2.806954100029543,,,042,01,2025-02-06_14h05.13.954,Surprise recog test,2023.1.3,59.94916308551438,
194,0,194,0,,,,,,,,,,,,,,,,,,,,,,,,,,,,,,,,,,,,1374.236650899984,1375.2597915999359,1372.2728346999502,1372.2728346999502,1372.2728346999502,1372.2728346999502,new_sceneOut_45.png,195,4.0,1.9643461999949068,,,042,01,2025-02-06_14h05.13.954,Surprise recog test,2023.1.3,59.94916308551438,
195,0,195,0,,,,,,,,,,,,,,,,,,,,,,,,,,,,,,,,,,,,1376.9370262000011,1377.9624691000208,1375.2597915999359,1375.2597915999359,1375.2597915999359,1375.2597915999359,new_fruit_6.png,196,4.0,1.6790081000654027,,,042,01,2025-02-06_14h05.13.954,Surprise recog test,2023.1.3,59.94916308551438,
196,0,196,0,,,,,,,,,,,,,,,,,,,,,,,,,,,,,,,,,,,,1381.4408534999238,1382.4659541000146,1377.9624691000208,1377.9624691000208,1377.9624691000208,1377.9624691000208,new_sceneOut_50.png,197,3.0,3.480456899967976,,,042,01,2025-02-06_14h05.13.954,Surprise recog test,2023.1.3,59.94916308551438,
197,0,197,0,,,,,,,,,,,,,,,,,,,,,,,,,,,,,,,,,,,,1385.6024075000314,,1382.4659541000146,1382.4659541000146,1382.4659541000146,1382.4659541000146,old_sceneIn_39.png,198,2.0,3.138380300020799,,,042,01,2025-02-06_14h05.13.954,Surprise recog test,2023.1.3,59.94916308551438,
198,0,198,0,,,,,,,,,,,,,,,,,,,,,,,,,,,,,,,,,,,,1389.9331407999853,1390.952923099976,1386.6348956000293,1386.6348956000293,1386.6348956000293,1386.6348956000293,old_sceneOut_41.png,199,4.0,3.298915500054136,,,042,01,2025-02-06_14h05.13.954,Surprise recog test,2023.1.3,59.94916308551438,
199,0,199,0,,,,,,,,,,,,,,,,,,,,,,,,,,,,,,,,,,,,1392.3449133000104,1393.3635056000203,1390.952923099976,1390.952923099976,1390.952923099976,1390.952923099976,old_stationery_46.png,200,1.0,1.3933660000329837,,,042,01,2025-02-06_14h05.13.954,Surprise recog test,2023.1.3,59.94916308551438,
200,0,200,0,,,,,,,,,,,,,,,,,,,,,,,,,,,,,,,,,,,,1395.0376199999591,1396.0531809999375,1393.3635056000203,1393.3635056000203,1393.3635056000203,1393.3635056000203,old_sceneOut_21.png,201,4.0,1.670405000098981,,,042,01,2025-02-06_14h05.13.954,Surprise recog test,2023.1.3,59.94916308551438,
201,0,201,0,,,,,,,,,,,,,,,,,,,,,,,,,,,,,,,,,,,,1398.1061235999223,1399.1310199999716,1396.0531809999375,1396.0531809999375,1396.0531809999375,1396.0531809999375,old_sceneIn_9.png,202,4.0,2.0504229000071064,,,042,01,2025-02-06_14h05.13.954,Surprise recog test,2023.1.3,59.94916308551438,
202,0,202,0,,,,,,,,,,,,,,,,,,,,,,,,,,,,,,,,,,,,1400.9456571999472,1401.960406600032,1399.1310199999716,1399.1310199999716,1399.1310199999716,1399.1310199999716,old_sceneIn_32.png,203,4.0,1.8090725999791175,,,042,01,2025-02-06_14h05.13.954,Surprise recog test,2023.1.3,59.94916308551438,
203,0,203,0,,,,,,,,,,,,,,,,,,,,,,,,,,,,,,,,,,,,1403.8519296000013,,1401.960406600032,1401.960406600032,1401.960406600032,1401.960406600032,new_sceneIn_8.png,204,4.0,1.8922901001060382,,,042,01,2025-02-06_14h05.13.954,Surprise recog test,2023.1.3,59.94916308551438,
204,0,204,0,,,,,,,,,,,,,,,,,,,,,,,,,,,,,,,,,,,,1407.2664291999536,1408.2722751999972,1404.8874515999341,1404.8874515999341,1404.8874515999341,1404.8874515999341,old_stationery_33.png,205,4.0,2.3790027000941336,,,042,01,2025-02-06_14h05.13.954,Surprise recog test,2023.1.3,59.94916308551438,
205,0,205,0,,,,,,,,,,,,,,,,,,,,,,,,,,,,,,,,,,,,1410.7202564999461,1411.7247270999942,1408.2722751999972,1408.2722751999972,1408.2722751999972,1408.2722751999972,new_stationery_20.png,206,5.0,2.4377791000297293,,,042,01,2025-02-06_14h05.13.954,Surprise recog test,2023.1.3,59.94916308551438,
206,0,206,0,,,,,,,,,,,,,,,,,,,,,,,,,,,,,,,,,,,,1414.1733863999834,1415.1796132000163,1411.7247270999942,1411.7247270999942,1411.7247270999942,1411.7247270999942,old_sceneOut_11.png,207,4.0,2.4379976999480277,,,042,01,2025-02-06_14h05.13.954,Surprise recog test,2023.1.3,59.94916308551438,
207,0,207,0,,,,,,,,,,,,,,,,,,,,,,,,,,,,,,,,,,,,1417.446219699923,,1415.1796132000163,1415.1796132000163,1415.1796132000163,1415.1796132000163,new_sceneOut_10.png,208,3.0,2.2643305000383407,,,042,01,2025-02-06_14h05.13.954,Surprise recog test,2023.1.3,59.94916308551438,
208,0,208,0,,,,,,,,,,,,,,,,,,,,,,,,,,,,,,,,,,,,1421.1534845000133,1422.1679853999522,1418.4810666999547,1418.4810666999547,1418.4810666999547,1418.4810666999547,new_sceneIn_5.png,209,4.0,2.675001800060272,,,042,01,2025-02-06_14h05.13.954,Surprise recog test,2023.1.3,59.94916308551438,
209,0,209,0,,,,,,,,,,,,,,,,,,,,,,,,,,,,,,,,,,,,1424.2380466000177,1425.26045479998,1422.1679853999522,1422.1679853999522,1422.1679853999522,1422.1679853999522,new_sceneIn_50.png,210,2.0,2.064431200036779,,,042,01,2025-02-06_14h05.13.954,Surprise recog test,2023.1.3,59.94916308551438,
210,0,210,0,,,,,,,,,,,,,,,,,,,,,,,,,,,,,,,,,,,,1426.9820968999993,1427.992005100008,1425.26045479998,1425.26045479998,1425.26045479998,1425.26045479998,new_sceneOut_48.png,211,2.0,1.7213780999882147,,,042,01,2025-02-06_14h05.13.954,Surprise recog test,2023.1.3,59.94916308551438,
211,0,211,0,,,,,,,,,,,,,,,,,,,,,,,,,,,,,,,,,,,,1431.6015192000195,1432.6231019999832,1427.992005100008,1427.992005100008,1427.992005100008,1427.992005100008,new_sceneIn_32.png,212,3.0,3.602802100009285,,,042,01,2025-02-06_14h05.13.954,Surprise recog test,2023.1.3,59.94916308551438,
212,0,212,0,,,,,,,,,,,,,,,,,,,,,,,,,,,,,,,,,,,,1435.3016510999296,1436.3153638000367,1432.6231019999832,1432.6231019999832,1432.6231019999832,1432.6231019999832,new_sceneOut_33.png,213,4.0,2.677917099907063,,,042,01,2025-02-06_14h05.13.954,Surprise recog test,2023.1.3,59.94916308551438,
213,0,213,0,,,,,,,,,,,,,,,,,,,,,,,,,,,,,,,,,,,,1438.7359323999844,1439.7522566999542,1436.3153638000367,1436.3153638000367,1436.3153638000367,1436.3153638000367,old_stationery_37.png,214,5.0,2.4145735999336466,,,042,01,2025-02-06_14h05.13.954,Surprise recog test,2023.1.3,59.94916308551438,
214,0,214,0,,,,,,,,,,,,,,,,,,,,,,,,,,,,,,,,,,,,1441.5744380999822,1442.5836806999287,1439.7522566999542,1439.7522566999542,1439.7522566999542,1439.7522566999542,new_sceneIn_21.png,215,3.0,1.8135668999748304,,,042,01,2025-02-06_14h05.13.954,Surprise recog test,2023.1.3,59.94916308551438,
215,0,215,0,,,,,,,,,,,,,,,,,,,,,,,,,,,,,,,,,,,,1445.3736425000243,1446.3975265999325,1442.5836806999287,1442.5836806999287,1442.5836806999287,1442.5836806999287,old_fruit_49.png,216,3.0,2.7857879999792203,,,042,01,2025-02-06_14h05.13.954,Surprise recog test,2023.1.3,59.94916308551438,
216,0,216,0,,,,,,,,,,,,,,,,,,,,,,,,,,,,,,,,,,,,1448.0469811999938,1449.0700728999218,1446.3975265999325,1446.3975265999325,1446.3975265999325,1446.3975265999325,new_fruit_47.png,217,5.0,1.6504936000565067,,,042,01,2025-02-06_14h05.13.954,Surprise recog test,2023.1.3,59.94916308551438,
217,0,217,0,,,,,,,,,,,,,,,,,,,,,,,,,,,,,,,,,,,,1452.2274897999596,1453.2494375000242,1449.0700728999218,1449.0700728999218,1449.0700728999218,1449.0700728999218,old_fruit_1.png,218,4.0,3.158891199971549,,,042,01,2025-02-06_14h05.13.954,Surprise recog test,2023.1.3,59.94916308551438,
218,0,218,0,,,,,,,,,,,,,,,,,,,,,,,,,,,,,,,,,,,,1454.5255583999678,,1453.2494375000242,1453.2494375000242,1453.2494375000242,1453.2494375000242,new_fruit_32.png,219,5.0,1.2748129999963567,,,042,01,2025-02-06_14h05.13.954,Surprise recog test,2023.1.3,59.94916308551438,
219,0,219,0,,,,,,,,,,,,,,,,,,,,,,,,,,,,,,,,,,,,1457.4473470000084,1458.476251599961,1455.5550363999791,1455.5550363999791,1455.5550363999791,1455.5550363999791,old_stationery_12.png,220,1.0,1.891264699981548,,,042,01,2025-02-06_14h05.13.954,Surprise recog test,2023.1.3,59.94916308551438,
220,0,220,0,,,,,,,,,,,,,,,,,,,,,,,,,,,,,,,,,,,,1461.7416429999284,1462.754001299967,1458.476251599961,1458.476251599961,1458.476251599961,1458.476251599961,new_fruit_35.png,221,3.0,3.263942899997346,,,042,01,2025-02-06_14h05.13.954,Surprise recog test,2023.1.3,59.94916308551438,
221,0,221,0,,,,,,,,,,,,,,,,,,,,,,,,,,,,,,,,,,,,1465.9818190999795,1466.9913931000046,1462.754001299967,1462.754001299967,1462.754001299967,1462.754001299967,old_stationery_18.png,222,3.0,3.223190899938345,,,042,01,2025-02-06_14h05.13.954,Surprise recog test,2023.1.3,59.94916308551438,
222,0,222,0,,,,,,,,,,,,,,,,,,,,,,,,,,,,,,,,,,,,1468.3466203999706,1469.3691601000028,1466.9913931000046,1466.9913931000046,1466.9913931000046,1466.9913931000046,old_stationery_47.png,223,2.0,1.3479575000237674,,,042,01,2025-02-06_14h05.13.954,Surprise recog test,2023.1.3,59.94916308551438,
223,0,223,0,,,,,,,,,,,,,,,,,,,,,,,,,,,,,,,,,,,,1470.7431075000204,1471.770583000034,1469.3691601000028,1469.3691601000028,1469.3691601000028,1469.3691601000028,new_fruit_17.png,224,3.0,1.3754440000047907,,,042,01,2025-02-06_14h05.13.954,Surprise recog test,2023.1.3,59.94916308551438,
224,0,224,0,,,,,,,,,,,,,,,,,,,,,,,,,,,,,,,,,,,,1473.4724482999882,1474.4813520000316,1471.770583000034,1471.770583000034,1471.770583000034,1471.770583000034,new_stationery_47.png,225,4.0,1.703141100006178,,,042,01,2025-02-06_14h05.13.954,Surprise recog test,2023.1.3,59.94916308551438,
225,0,225,0,,,,,,,,,,,,,,,,,,,,,,,,,,,,,,,,,,,,1476.5655421999982,1477.5885704000248,1474.4813520000316,1474.4813520000316,1474.4813520000316,1474.4813520000316,old_sceneOut_16.png,226,4.0,2.0774122000439093,,,042,01,2025-02-06_14h05.13.954,Surprise recog test,2023.1.3,59.94916308551438,
226,0,226,0,,,,,,,,,,,,,,,,,,,,,,,,,,,,,,,,,,,,1479.5275215000147,1480.5342456999933,1477.5885704000248,1477.5885704000248,1477.5885704000248,1477.5885704000248,old_stationery_15.png,227,4.0,1.9338089000666514,,,042,01,2025-02-06_14h05.13.954,Surprise recog test,2023.1.3,59.94916308551438,
227,0,227,0,,,,,,,,,,,,,,,,,,,,,,,,,,,,,,,,,,,,1481.5268210000359,1482.5480923999567,1480.5342456999933,1480.5342456999933,1480.5342456999933,1480.5342456999933,new_sceneIn_34.png,228,4.0,0.9879748000530526,,,042,01,2025-02-06_14h05.13.954,Surprise recog test,2023.1.3,59.94916308551438,
228,0,228,0,,,,,,,,,,,,,,,,,,,,,,,,,,,,,,,,,,,,1486.970446499996,,1482.5480923999567,1482.5480923999567,1482.5480923999567,1482.5480923999567,old_sceneOut_3.png,229,4.0,4.424965300015174,,,042,01,2025-02-06_14h05.13.954,Surprise recog test,2023.1.3,59.94916308551438,
229,0,229,0,,,,,,,,,,,,,,,,,,,,,,,,,,,,,,,,,,,,1490.2988246999448,1491.3121448999736,1488.0056220999686,1488.0056220999686,1488.0056220999686,1488.0056220999686,old_sceneIn_33.png,230,4.0,2.295335799921304,,,042,01,2025-02-06_14h05.13.954,Surprise recog test,2023.1.3,59.94916308551438,
230,0,230,0,,,,,,,,,,,,,,,,,,,,,,,,,,,,,,,,,,,,1494.3888489999808,1495.3986822000006,1491.3121448999736,1491.3121448999736,1491.3121448999736,1491.3121448999736,new_stationery_27.png,231,4.0,3.0725136999972165,,,042,01,2025-02-06_14h05.13.954,Surprise recog test,2023.1.3,59.94916308551438,
231,0,231,0,,,,,,,,,,,,,,,,,,,,,,,,,,,,,,,,,,,,1497.2969531000126,,1495.3986822000006,1495.3986822000006,1495.3986822000006,1495.3986822000006,new_sceneIn_15.png,232,4.0,1.8942913999781013,,,042,01,2025-02-06_14h05.13.954,Surprise recog test,2023.1.3,59.94916308551438,
232,0,232,0,,,,,,,,,,,,,,,,,,,,,,,,,,,,,,,,,,,,1500.5270470000105,1501.541353699984,1498.3279701999854,1498.3279701999854,1498.3279701999854,1498.3279701999854,new_fruit_2.png,233,4.0,2.2012614000122994,,,042,01,2025-02-06_14h05.13.954,Surprise recog test,2023.1.3,59.94916308551438,
233,0,233,0,,,,,,,,,,,,,,,,,,,,,,,,,,,,,,,,,,,,1503.7232788000256,1504.752922500018,1501.541353699984,1501.541353699984,1501.541353699984,1501.541353699984,new_sceneIn_37.png,234,4.0,2.182783200056292,,,042,01,2025-02-06_14h05.13.954,Surprise recog test,2023.1.3,59.94916308551438,
234,0,234,0,,,,,,,,,,,,,,,,,,,,,,,,,,,,,,,,,,,,1506.6217249999754,1507.64709819993,1504.752922500018,1504.752922500018,1504.752922500018,1504.752922500018,old_fruit_30.png,235,1.0,1.8698260999517515,,,042,01,2025-02-06_14h05.13.954,Surprise recog test,2023.1.3,59.94916308551438,
235,0,235,0,,,,,,,,,,,,,,,,,,,,,,,,,,,,,,,,,,,,1509.2569024999393,1510.2890915999888,1507.64709819993,1507.64709819993,1507.64709819993,1507.64709819993,old_sceneOut_46.png,236,3.0,1.6086534999776632,,,042,01,2025-02-06_14h05.13.954,Surprise recog test,2023.1.3,59.94916308551438,
236,0,236,0,,,,,,,,,,,,,,,,,,,,,,,,,,,,,,,,,,,,1513.8857792000053,1514.9072532999562,1510.2890915999888,1510.2890915999888,1510.2890915999888,1510.2890915999888,old_sceneOut_25.png,237,4.0,3.5995149000082165,,,042,01,2025-02-06_14h05.13.954,Surprise recog test,2023.1.3,59.94916308551438,
237,0,237,0,,,,,,,,,,,,,,,,,,,,,,,,,,,,,,,,,,,,1516.8997588999337,1517.9302866000216,1514.9072532999562,1514.9072532999562,1514.9072532999562,1514.9072532999562,new_fruit_22.png,238,4.0,1.9909265999449417,,,042,01,2025-02-06_14h05.13.954,Surprise recog test,2023.1.3,59.94916308551438,
238,0,238,0,,,,,,,,,,,,,,,,,,,,,,,,,,,,,,,,,,,,1519.7882076000096,1520.799973999965,1517.9302866000216,1517.9302866000216,1517.9302866000216,1517.9302866000216,old_stationery_14.png,239,1.0,1.8589070999296382,,,042,01,2025-02-06_14h05.13.954,Surprise recog test,2023.1.3,59.94916308551438,
239,0,239,0,,,,,,,,,,,,,,,,,,,,,,,,,,,,,,,,,,,,1523.5308124999283,1524.5544479999226,1520.799973999965,1520.799973999965,1520.799973999965,1520.799973999965,new_sceneIn_43.png,240,4.0,2.723660200019367,,,042,01,2025-02-06_14h05.13.954,Surprise recog test,2023.1.3,59.94916308551438,
240,0,240,0,,,,,,,,,,,,,,,,,,,,,,,,,,,,,,,,,,,,1528.0796181999613,1529.0944094000151,1524.5544479999226,1524.5544479999226,1524.5544479999226,1524.5544479999226,old_sceneOut_8.png,241,4.0,3.529251700034365,,,042,01,2025-02-06_14h05.13.954,Surprise recog test,2023.1.3,59.94916308551438,
241,0,241,0,,,,,,,,,,,,,,,,,,,,,,,,,,,,,,,,,,,,1530.58090489998,1531.6056414999766,1529.0944094000151,1529.0944094000151,1529.0944094000151,1529.0944094000151,old_stationery_6.png,242,4.0,1.48149190004915,,,042,01,2025-02-06_14h05.13.954,Surprise recog test,2023.1.3,59.94916308551438,
242,0,242,0,,,,,,,,,,,,,,,,,,,,,,,,,,,,,,,,,,,,1535.6242513000034,1536.6331834000302,1531.6056414999766,1531.6056414999766,1531.6056414999766,1531.6056414999766,new_stationery_45.png,243,5.0,4.017018400016241,,,042,01,2025-02-06_14h05.13.954,Surprise recog test,2023.1.3,59.94916308551438,
243,0,243,0,,,,,,,,,,,,,,,,,,,,,,,,,,,,,,,,,,,,1538.1186632999452,1539.1431632000022,1536.6331834000302,1536.6331834000302,1536.6331834000302,1536.6331834000302,old_sceneIn_25.png,244,4.0,1.4806414999766275,,,042,01,2025-02-06_14h05.13.954,Surprise recog test,2023.1.3,59.94916308551438,
244,0,244,0,,,,,,,,,,,,,,,,,,,,,,,,,,,,,,,,,,,,1541.3314532999648,,1539.1431632000022,1539.1431632000022,1539.1431632000022,1539.1431632000022,new_fruit_11.png,245,3.0,2.1895514000207186,,,042,01,2025-02-06_14h05.13.954,Surprise recog test,2023.1.3,59.94916308551438,
245,0,245,0,,,,,,,,,,,,,,,,,,,,,,,,,,,,,,,,,,,,1545.5878600999713,1546.6177649999736,1542.3620052000042,1542.3620052000042,1542.3620052000042,1542.3620052000042,old_fruit_5.png,246,3.0,3.226138500031084,,,042,01,2025-02-06_14h05.13.954,Surprise recog test,2023.1.3,59.94916308551438,
246,0,246,0,,,,,,,,,,,,,,,,,,,,,,,,,,,,,,,,,,,,1548.3121196000138,1549.334327199962,1546.6177649999736,1546.6177649999736,1546.6177649999736,1546.6177649999736,new_fruit_37.png,247,4.0,1.6960972000379115,,,042,01,2025-02-06_14h05.13.954,Surprise recog test,2023.1.3,59.94916308551438,
247,0,247,0,,,,,,,,,,,,,,,,,,,,,,,,,,,,,,,,,,,,1550.9443495000014,1551.975420700037,1549.334327199962,1549.334327199962,1549.334327199962,1549.334327199962,old_sceneIn_40.png,248,4.0,1.6072389000328258,,,042,01,2025-02-06_14h05.13.954,Surprise recog test,2023.1.3,59.94916308551438,
248,0,248,0,,,,,,,,,,,,,,,,,,,,,,,,,,,,,,,,,,,,1556.3550239999313,1557.366290200036,1551.975420700037,1551.975420700037,1551.975420700037,1551.975420700037,new_sceneOut_28.png,249,4.0,4.3812429999234155,,,042,01,2025-02-06_14h05.13.954,Surprise recog test,2023.1.3,59.94916308551438,
249,0,249,0,,,,,,,,,,,,,,,,,,,,,,,,,,,,,,,,,,,,1558.218880499946,1559.2411927999929,1557.366290200036,1557.366290200036,1557.366290200036,1557.366290200036,old_sceneIn_18.png,250,4.0,0.8462179000489414,,,042,01,2025-02-06_14h05.13.954,Surprise recog test,2023.1.3,59.94916308551438,
250,0,250,0,,,,,,,,,,,,,,,,,,,,,,,,,,,,,,,,,,,,1560.8315027999924,,1559.2411927999929,1559.2411927999929,1559.2411927999929,1559.2411927999929,new_stationery_31.png,251,4.0,1.591918700025417,,,042,01,2025-02-06_14h05.13.954,Surprise recog test,2023.1.3,59.94916308551438,
251,0,251,0,,,,,,,,,,,,,,,,,,,,,,,,,,,,,,,,,,,,1565.7032744999742,,1561.852403099998,1561.852403099998,1561.852403099998,1561.852403099998,new_sceneIn_39.png,252,3.0,3.846376199973747,,,042,01,2025-02-06_14h05.13.954,Surprise recog test,2023.1.3,59.94916308551438,
252,0,252,0,,,,,,,,,,,,,,,,,,,,,,,,,,,,,,,,,,,,1571.3131915000267,1572.3288771000225,1566.7332940000342,1566.7332940000342,1566.7332940000342,1566.7332940000342,new_sceneOut_43.png,253,3.0,4.58078870002646,,,042,01,2025-02-06_14h05.13.954,Surprise recog test,2023.1.3,59.94916308551438,
253,0,253,0,,,,,,,,,,,,,,,,,,,,,,,,,,,,,,,,,,,,1573.9016683000373,1574.9151166999945,1572.3288771000225,1572.3288771000225,1572.3288771000225,1572.3288771000225,old_sceneIn_15.png,254,4.0,1.5675487000262365,,,042,01,2025-02-06_14h05.13.954,Surprise recog test,2023.1.3,59.94916308551438,
254,0,254,0,,,,,,,,,,,,,,,,,,,,,,,,,,,,,,,,,,,,1576.8234977999236,1577.8447280999972,1574.9151166999945,1574.9151166999945,1574.9151166999945,1574.9151166999945,new_stationery_23.png,255,3.0,1.905783300055191,,,042,01,2025-02-06_14h05.13.954,Surprise recog test,2023.1.3,59.94916308551438,
255,0,255,0,,,,,,,,,,,,,,,,,,,,,,,,,,,,,,,,,,,,1579.0833370999899,1580.106794100022,1577.8447280999972,1577.8447280999972,1577.8447280999972,1577.8447280999972,new_sceneOut_7.png,256,4.0,1.240068200044334,,,042,01,2025-02-06_14h05.13.954,Surprise recog test,2023.1.3,59.94916308551438,
256,0,256,0,,,,,,,,,,,,,,,,,,,,,,,,,,,,,,,,,,,,1582.186822699965,1583.2009299999336,1580.106794100022,1580.106794100022,1580.106794100022,1580.106794100022,old_sceneOut_14.png,257,4.0,2.0797385000623763,,,042,01,2025-02-06_14h05.13.954,Surprise recog test,2023.1.3,59.94916308551438,
257,0,257,0,,,,,,,,,,,,,,,,,,,,,,,,,,,,,,,,,,,,1585.4134589999449,1586.4341085000196,1583.2009299999336,1583.2009299999336,1583.2009299999336,1583.2009299999336,new_sceneOut_49.png,258,4.0,2.2081307999324054,,,042,01,2025-02-06_14h05.13.954,Surprise recog test,2023.1.3,59.94916308551438,
258,0,258,0,,,,,,,,,,,,,,,,,,,,,,,,,,,,,,,,,,,,1587.6957575000124,1588.7231469999533,1586.4341085000196,1586.4341085000196,1586.4341085000196,1586.4341085000196,old_sceneIn_7.png,259,4.0,1.2606662000762299,,,042,01,2025-02-06_14h05.13.954,Surprise recog test,2023.1.3,59.94916308551438,
259,0,259,0,,,,,,,,,,,,,,,,,,,,,,,,,,,,,,,,,,,,1591.6287002000026,1592.662946700002,1588.7231469999533,1588.7231469999533,1588.7231469999533,1588.7231469999533,new_sceneIn_24.png,260,4.0,2.9099732999457046,,,042,01,2025-02-06_14h05.13.954,Surprise recog test,2023.1.3,59.94916308551438,
260,0,260,0,,,,,,,,,,,,,,,,,,,,,,,,,,,,,,,,,,,,1595.5446198999416,,1592.662946700002,1592.662946700002,1592.662946700002,1592.662946700002,new_sceneIn_6.png,261,4.0,2.8848267999710515,,,042,01,2025-02-06_14h05.13.954,Surprise recog test,2023.1.3,59.94916308551438,
261,0,261,0,,,,,,,,,,,,,,,,,,,,,,,,,,,,,,,,,,,,1599.2909209999489,1600.3151124999858,1596.5747819999233,1596.5747819999233,1596.5747819999233,1596.5747819999233,old_sceneIn_24.png,262,3.0,2.7156473000068218,,,042,01,2025-02-06_14h05.13.954,Surprise recog test,2023.1.3,59.94916308551438,
262,0,262,0,,,,,,,,,,,,,,,,,,,,,,,,,,,,,,,,,,,,1602.7749418999301,1603.8002294999314,1600.3151124999858,1600.3151124999858,1600.3151124999858,1600.3151124999858,new_sceneOut_31.png,263,4.0,2.4604732000734657,,,042,01,2025-02-06_14h05.13.954,Surprise recog test,2023.1.3,59.94916308551438,
263,0,263,0,,,,,,,,,,,,,,,,,,,,,,,,,,,,,,,,,,,,1606.4512882999843,1607.4752421999583,1603.8002294999314,1603.8002294999314,1603.8002294999314,1603.8002294999314,old_fruit_25.png,264,3.0,2.652843799907714,,,042,01,2025-02-06_14h05.13.954,Surprise recog test,2023.1.3,59.94916308551438,
264,0,264,0,,,,,,,,,,,,,,,,,,,,,,,,,,,,,,,,,,,,1609.1156259999843,1610.146755499998,1607.4752421999583,1607.4752421999583,1607.4752421999583,1607.4752421999583,new_stationery_35.png,265,2.0,1.6414904999546707,,,042,01,2025-02-06_14h05.13.954,Surprise recog test,2023.1.3,59.94916308551438,
265,0,265,0,,,,,,,,,,,,,,,,,,,,,,,,,,,,,,,,,,,,1612.857704999973,,1610.146755499998,1610.146755499998,1610.146755499998,1610.146755499998,old_stationery_48.png,266,2.0,2.715400099987164,,,042,01,2025-02-06_14h05.13.954,Surprise recog test,2023.1.3,59.94916308551438,
266,0,266,0,,,,,,,,,,,,,,,,,,,,,,,,,,,,,,,,,,,,1615.7578091999749,1616.7657415999565,1613.8760920999339,1613.8760920999339,1613.8760920999339,1613.8760920999339,old_stationery_11.png,267,2.0,1.8772680000402033,,,042,01,2025-02-06_14h05.13.954,Surprise recog test,2023.1.3,59.94916308551438,
267,0,267,0,,,,,,,,,,,,,,,,,,,,,,,,,,,,,,,,,,,,1619.5295413000276,,1616.7657415999565,1616.7657415999565,1616.7657415999565,1616.7657415999565,old_sceneOut_50.png,268,3.0,2.755213800002821,,,042,01,2025-02-06_14h05.13.954,Surprise recog test,2023.1.3,59.94916308551438,
268,0,268,0,,,,,,,,,,,,,,,,,,,,,,,,,,,,,,,,,,,,1622.0937714999309,1623.1149323999416,1620.5569941999856,1620.5569941999856,1620.5569941999856,1620.5569941999856,new_fruit_4.png,269,4.0,1.536073400056921,,,042,01,2025-02-06_14h05.13.954,Surprise recog test,2023.1.3,59.94916308551438,
269,0,269,0,,,,,,,,,,,,,,,,,,,,,,,,,,,,,,,,,,,,1624.6431858999422,1625.6563452000264,1623.1149323999416,1623.1149323999416,1623.1149323999416,1623.1149323999416,old_sceneOut_42.png,270,4.0,1.530014600022696,,,042,01,2025-02-06_14h05.13.954,Surprise recog test,2023.1.3,59.94916308551438,
270,0,270,0,,,,,,,,,,,,,,,,,,,,,,,,,,,,,,,,,,,,1627.5222792000277,1628.5434209000086,1625.6563452000264,1625.6563452000264,1625.6563452000264,1625.6563452000264,new_stationery_16.png,271,4.0,1.8583946999860927,,,042,01,2025-02-06_14h05.13.954,Surprise recog test,2023.1.3,59.94916308551438,
271,0,271,0,,,,,,,,,,,,,,,,,,,,,,,,,,,,,,,,,,,,1630.1499561999226,1631.1758735999465,1628.5434209000086,1628.5434209000086,1628.5434209000086,1628.5434209000086,old_fruit_48.png,272,4.0,1.6055441000498831,,,042,01,2025-02-06_14h05.13.954,Surprise recog test,2023.1.3,59.94916308551438,
272,0,272,0,,,,,,,,,,,,,,,,,,,,,,,,,,,,,,,,,,,,1633.973835999961,1634.9924281999702,1631.1758735999465,1631.1758735999465,1631.1758735999465,1631.1758735999465,old_fruit_50.png,273,2.0,2.8014724999666214,,,042,01,2025-02-06_14h05.13.954,Surprise recog test,2023.1.3,59.94916308551438,
273,0,273,0,,,,,,,,,,,,,,,,,,,,,,,,,,,,,,,,,,,,1637.094424800016,,1634.9924281999702,1634.9924281999702,1634.9924281999702,1634.9924281999702,old_stationery_24.png,274,4.0,2.1040789999533445,,,042,01,2025-02-06_14h05.13.954,Surprise recog test,2023.1.3,59.94916308551438,
274,0,274,0,,,,,,,,,,,,,,,,,,,,,,,,,,,,,,,,,,,,1640.0182272000238,1641.036327000009,1638.1277423999272,1638.1277423999272,1638.1277423999272,1638.1277423999272,new_sceneOut_34.png,275,3.0,1.8909353000344709,,,042,01,2025-02-06_14h05.13.954,Surprise recog test,2023.1.3,59.94916308551438,
275,0,275,0,,,,,,,,,,,,,,,,,,,,,,,,,,,,,,,,,,,,1643.0867539999308,1644.1097194999456,1641.036327000009,1641.036327000009,1641.036327000009,1641.036327000009,old_sceneOut_23.png,276,4.0,2.0450342999538407,,,042,01,2025-02-06_14h05.13.954,Surprise recog test,2023.1.3,59.94916308551438,
276,0,276,0,,,,,,,,,,,,,,,,,,,,,,,,,,,,,,,,,,,,1646.0323177999817,1647.052266499959,1644.1097194999456,1644.1097194999456,1644.1097194999456,1644.1097194999456,new_sceneIn_42.png,277,4.0,1.9226739999139681,,,042,01,2025-02-06_14h05.13.954,Surprise recog test,2023.1.3,59.94916308551438,
277,0,277,0,,,,,,,,,,,,,,,,,,,,,,,,,,,,,,,,,,,,1650.6295194999548,1651.6566375999246,1647.052266499959,1647.052266499959,1647.052266499959,1647.052266499959,old_sceneOut_13.png,278,4.0,3.5788580999942496,,,042,01,2025-02-06_14h05.13.954,Surprise recog test,2023.1.3,59.94916308551438,
278,0,278,0,,,,,,,,,,,,,,,,,,,,,,,,,,,,,,,,,,,,1652.8979529000353,1653.9193706000224,1651.6566375999246,1651.6566375999246,1651.6566375999246,1651.6566375999246,old_fruit_34.png,279,4.0,1.2406092999735847,,,042,01,2025-02-06_14h05.13.954,Surprise recog test,2023.1.3,59.94916308551438,
279,0,279,0,,,,,,,,,,,,,,,,,,,,,,,,,,,,,,,,,,,,1656.8272132999264,,1653.9193706000224,1653.9193706000224,1653.9193706000224,1653.9193706000224,new_fruit_50.png,280,2.0,2.9086190999951214,,,042,01,2025-02-06_14h05.13.954,Surprise recog test,2023.1.3,59.94916308551438,
280,0,280,0,,,,,,,,,,,,,,,,,,,,,,,,,,,,,,,,,,,,1659.4853806999745,1660.5034125000238,1657.849310599966,1657.849310599966,1657.849310599966,1657.849310599966,old_sceneOut_39.png,281,5.0,1.629143500002101,,,042,01,2025-02-06_14h05.13.954,Surprise recog test,2023.1.3,59.94916308551438,
281,0,281,0,,,,,,,,,,,,,,,,,,,,,,,,,,,,,,,,,,,,1662.5884261999745,1663.6202510999283,1660.5034125000238,1660.5034125000238,1660.5034125000238,1660.5034125000238,old_fruit_33.png,282,3.0,2.0828163999831304,,,042,01,2025-02-06_14h05.13.954,Surprise recog test,2023.1.3,59.94916308551438,
282,0,282,0,,,,,,,,,,,,,,,,,,,,,,,,,,,,,,,,,,,,1665.1884242999367,1666.213906400022,1663.6202510999283,1663.6202510999283,1663.6202510999283,1663.6202510999283,old_sceneIn_22.png,283,4.0,1.5694591000210494,,,042,01,2025-02-06_14h05.13.954,Surprise recog test,2023.1.3,59.94916308551438,
283,0,283,0,,,,,,,,,,,,,,,,,,,,,,,,,,,,,,,,,,,,1671.1916983999545,,1666.213906400022,1666.213906400022,1666.213906400022,1666.213906400022,new_sceneIn_10.png,284,None,None,1671.1851902999915,,042,01,2025-02-06_14h05.13.954,Surprise recog test,2023.1.3,59.94916308551438,
284,0,284,0,,,,,,,,,,,,,,,,,,,,,,,,,,,,,,,,,,,,1676.2302299999865,1677.2500043000327,1672.2235733999405,1672.2235733999405,1672.2235733999405,1672.2235733999405,new_sceneOut_47.png,285,4.0,4.008310199948028,,,042,01,2025-02-06_14h05.13.954,Surprise recog test,2023.1.3,59.94916308551438,
285,0,285,0,,,,,,,,,,,,,,,,,,,,,,,,,,,,,,,,,,,,1681.0133974000346,1682.019321699976,1677.2500043000327,1677.2500043000327,1677.2500043000327,1677.2500043000327,old_stationery_22.png,286,2.0,3.7574693000642583,,,042,01,2025-02-06_14h05.13.954,Surprise recog test,2023.1.3,59.94916308551438,
286,0,286,0,,,,,,,,,,,,,,,,,,,,,,,,,,,,,,,,,,,,1683.658432199969,1684.6854634999763,1682.019321699976,1682.019321699976,1682.019321699976,1682.019321699976,old_stationery_4.png,287,2.0,1.6365977000677958,,,042,01,2025-02-06_14h05.13.954,Surprise recog test,2023.1.3,59.94916308551438,
287,0,287,0,,,,,,,,,,,,,,,,,,,,,,,,,,,,,,,,,,,,1688.1678611999378,1689.189320000005,1684.6854634999763,1684.6854634999763,1684.6854634999763,1684.6854634999763,old_sceneOut_40.png,288,3.0,3.4806978000560775,,,042,01,2025-02-06_14h05.13.954,Surprise recog test,2023.1.3,59.94916308551438,
288,0,288,0,,,,,,,,,,,,,,,,,,,,,,,,,,,,,,,,,,,,1690.6225023999577,,1689.189320000005,1689.189320000005,1689.189320000005,1689.189320000005,old_fruit_17.png,289,4.0,1.434887700015679,,,042,01,2025-02-06_14h05.13.954,Surprise recog test,2023.1.3,59.94916308551438,
289,0,289,0,,,,,,,,,,,,,,,,,,,,,,,,,,,,,,,,,,,,1695.2840340000112,1696.3098908999236,1691.6431669000303,1691.6431669000303,1691.6431669000303,1691.6431669000303,new_fruit_19.png,290,4.0,3.636231599957682,,,042,01,2025-02-06_14h05.13.954,Surprise recog test,2023.1.3,59.94916308551438,
290,0,290,0,,,,,,,,,,,,,,,,,,,,,,,,,,,,,,,,,,,,1697.31238509994,,1696.3098908999236,1696.3098908999236,1696.3098908999236,1696.3098908999236,new_sceneIn_46.png,291,4.0,1.003494800068438,,,042,01,2025-02-06_14h05.13.954,Surprise recog test,2023.1.3,59.94916308551438,
291,0,291,0,,,,,,,,,,,,,,,,,,,,,,,,,,,,,,,,,,,,1701.1017965000356,1702.1338035999797,1698.3461365000112,1698.3461365000112,1698.3461365000112,1698.3461365000112,new_fruit_9.png,292,3.0,2.7582763000391424,,,042,01,2025-02-06_14h05.13.954,Surprise recog test,2023.1.3,59.94916308551438,
292,0,292,0,,,,,,,,,,,,,,,,,,,,,,,,,,,,,,,,,,,,1704.6596425999887,1705.6844042999437,1702.1338035999797,1702.1338035999797,1702.1338035999797,1702.1338035999797,new_fruit_40.png,293,4.0,2.5268290999811143,,,042,01,2025-02-06_14h05.13.954,Surprise recog test,2023.1.3,59.94916308551438,
293,0,293,0,,,,,,,,,,,,,,,,,,,,,,,,,,,,,,,,,,,,1706.9350270000286,1707.9391056000022,1705.6844042999437,1705.6844042999437,1705.6844042999437,1705.6844042999437,new_fruit_46.png,294,4.0,1.2522437000880018,,,042,01,2025-02-06_14h05.13.954,Surprise recog test,2023.1.3,59.94916308551438,
294,0,294,0,,,,,,,,,,,,,,,,,,,,,,,,,,,,,,,,,,,,1709.4189649999607,1710.4282979000127,1707.9391056000022,1707.9391056000022,1707.9391056000022,1707.9391056000022,old_sceneIn_42.png,295,4.0,1.4711788001004606,,,042,01,2025-02-06_14h05.13.954,Surprise recog test,2023.1.3,59.94916308551438,
295,0,295,0,,,,,,,,,,,,,,,,,,,,,,,,,,,,,,,,,,,,1712.9278529000003,1713.9456957000075,1710.4282979000127,1710.4282979000127,1710.4282979000127,1710.4282979000127,new_stationery_36.png,296,5.0,2.494238800019957,,,042,01,2025-02-06_14h05.13.954,Surprise recog test,2023.1.3,59.94916308551438,
296,0,296,0,,,,,,,,,,,,,,,,,,,,,,,,,,,,,,,,,,,,1715.4264228999382,,1713.9456957000075,1713.9456957000075,1713.9456957000075,1713.9456957000075,old_stationery_1.png,297,1.0,1.4751306000398472,,,042,01,2025-02-06_14h05.13.954,Surprise recog test,2023.1.3,59.94916308551438,
297,0,297,0,,,,,,,,,,,,,,,,,,,,,,,,,,,,,,,,,,,,1717.9111078999704,,1716.4546985999914,1716.4546985999914,1716.4546985999914,1716.4546985999914,new_sceneOut_18.png,298,3.0,1.4548030000878498,,,042,01,2025-02-06_14h05.13.954,Surprise recog test,2023.1.3,59.94916308551438,
298,0,298,0,,,,,,,,,,,,,,,,,,,,,,,,,,,,,,,,,,,,1721.1020567000378,1722.120431700023,1718.9319942999864,1718.9319942999864,1718.9319942999864,1718.9319942999864,old_stationery_25.png,299,3.0,2.1657386000733823,,,042,01,2025-02-06_14h05.13.954,Surprise recog test,2023.1.3,59.94916308551438,
299,0,299,0,,,,,,,,,,,,,,,,,,,,,,,,,,,,,,,,,,,,1723.440938899992,1724.4666693999898,1722.120431700023,1722.120431700023,1722.120431700023,1722.120431700023,new_sceneIn_38.png,300,4.0,1.31436079996638,,,042,01,2025-02-06_14h05.13.954,Surprise recog test,2023.1.3,59.94916308551438,
300,0,300,0,,,,,,,,,,,,,,,,,,,,,,,,,,,,,,,,,,,,1726.1779670999385,1727.2028072000248,1724.4666693999898,1724.4666693999898,1724.4666693999898,1724.4666693999898,old_stationery_13.png,301,4.0,1.7128113000653684,,,042,01,2025-02-06_14h05.13.954,Surprise recog test,2023.1.3,59.94916308551438,
301,0,301,0,,,,,,,,,,,,,,,,,,,,,,,,,,,,,,,,,,,,1729.1868164000334,1730.2032764999894,1727.2028072000248,1727.2028072000248,1727.2028072000248,1727.2028072000248,new_stationery_17.png,302,2.0,1.9820836000144482,,,042,01,2025-02-06_14h05.13.954,Surprise recog test,2023.1.3,59.94916308551438,
302,0,302,0,,,,,,,,,,,,,,,,,,,,,,,,,,,,,,,,,,,,1732.4212296999758,1733.4367183999857,1730.2032764999894,1730.2032764999894,1730.2032764999894,1730.2032764999894,old_sceneIn_46.png,303,4.0,2.212987400009297,,,042,01,2025-02-06_14h05.13.954,Surprise recog test,2023.1.3,59.94916308551438,
303,0,303,0,,,,,,,,,,,,,,,,,,,,,,,,,,,,,,,,,,,,1735.1870664999587,1736.2047066999367,1733.4367183999857,1733.4367183999857,1733.4367183999857,1733.4367183999857,new_stationery_13.png,304,4.0,1.7510309000499547,,,042,01,2025-02-06_14h05.13.954,Surprise recog test,2023.1.3,59.94916308551438,
304,0,304,0,,,,,,,,,,,,,,,,,,,,,,,,,,,,,,,,,,,,1737.4936363999732,1738.5051625999622,1736.2047066999367,1736.2047066999367,1736.2047066999367,1736.2047066999367,new_stationery_41.png,305,4.0,1.2874709999887273,,,042,01,2025-02-06_14h05.13.954,Surprise recog test,2023.1.3,59.94916308551438,
305,0,305,0,,,,,,,,,,,,,,,,,,,,,,,,,,,,,,,,,,,,1741.3352344000014,1742.3620838000206,1738.5051625999622,1738.5051625999622,1738.5051625999622,1738.5051625999622,new_fruit_27.png,306,3.0,2.830894299899228,,,042,01,2025-02-06_14h05.13.954,Surprise recog test,2023.1.3,59.94916308551438,
306,0,306,0,,,,,,,,,,,,,,,,,,,,,,,,,,,,,,,,,,,,1744.6774614999304,1745.7019237999339,1742.3620838000206,1742.3620838000206,1742.3620838000206,1742.3620838000206,old_fruit_16.png,307,4.0,2.318398699979298,,,042,01,2025-02-06_14h05.13.954,Surprise recog test,2023.1.3,59.94916308551438,
307,0,307,0,,,,,,,,,,,,,,,,,,,,,,,,,,,,,,,,,,,,1746.9578133999603,1747.981803499977,1745.7019237999339,1745.7019237999339,1745.7019237999339,1745.7019237999339,new_sceneOut_4.png,308,4.0,1.2555746999569237,,,042,01,2025-02-06_14h05.13.954,Surprise recog test,2023.1.3,59.94916308551438,
308,0,308,0,,,,,,,,,,,,,,,,,,,,,,,,,,,,,,,,,,,,1749.1149833999807,1750.135913199978,1747.981803499977,1747.981803499977,1747.981803499977,1747.981803499977,old_sceneOut_4.png,309,4.0,1.13435509998817,,,042,01,2025-02-06_14h05.13.954,Surprise recog test,2023.1.3,59.94916308551438,
309,0,309,0,,,,,,,,,,,,,,,,,,,,,,,,,,,,,,,,,,,,1751.192398199928,1752.2230043000309,1750.135913199978,1750.135913199978,1750.135913199978,1750.135913199978,old_sceneOut_34.png,310,4.0,1.058305999962613,,,042,01,2025-02-06_14h05.13.954,Surprise recog test,2023.1.3,59.94916308551438,
310,0,310,0,,,,,,,,,,,,,,,,,,,,,,,,,,,,,,,,,,,,1755.1210529999807,1756.1344227999216,1752.2230043000309,1752.2230043000309,1752.2230043000309,1752.2230043000309,new_sceneIn_18.png,311,4.0,2.900568899931386,,,042,01,2025-02-06_14h05.13.954,Surprise recog test,2023.1.3,59.94916308551438,
311,0,311,0,,,,,,,,,,,,,,,,,,,,,,,,,,,,,,,,,,,,1757.2895147999516,1758.3131753000198,1756.1344227999216,1756.1344227999216,1756.1344227999216,1756.1344227999216,old_sceneIn_35.png,312,4.0,1.1502398999873549,,,042,01,2025-02-06_14h05.13.954,Surprise recog test,2023.1.3,59.94916308551438,
312,0,312,0,,,,,,,,,,,,,,,,,,,,,,,,,,,,,,,,,,,,1759.9150665999623,,1758.3131753000198,1758.3131753000198,1758.3131753000198,1758.3131753000198,old_sceneIn_28.png,313,4.0,1.6020618000766262,,,042,01,2025-02-06_14h05.13.954,Surprise recog test,2023.1.3,59.94916308551438,
313,0,313,0,,,,,,,,,,,,,,,,,,,,,,,,,,,,,,,,,,,,1763.964136900031,1764.9893785000313,1760.9451933000237,1760.9451933000237,1760.9451933000237,1760.9451933000237,new_fruit_1.png,314,3.0,3.015378799987957,,,042,01,2025-02-06_14h05.13.954,Surprise recog test,2023.1.3,59.94916308551438,
314,0,314,0,,,,,,,,,,,,,,,,,,,,,,,,,,,,,,,,,,,,1766.3160385999363,1767.3361934999702,1764.9893785000313,1764.9893785000313,1764.9893785000313,1764.9893785000313,old_sceneOut_38.png,315,4.0,1.3282132000895217,,,042,01,2025-02-06_14h05.13.954,Surprise recog test,2023.1.3,59.94916308551438,
315,0,315,0,,,,,,,,,,,,,,,,,,,,,,,,,,,,,,,,,,,,1768.7436024999479,1769.7594641000032,1767.3361934999702,1767.3361934999702,1767.3361934999702,1767.3361934999702,new_stationery_40.png,316,5.0,1.4068291999865323,,,042,01,2025-02-06_14h05.13.954,Surprise recog test,2023.1.3,59.94916308551438,
316,0,316,0,,,,,,,,,,,,,,,,,,,,,,,,,,,,,,,,,,,,1771.5699593999889,1772.5792366999667,1769.7594641000032,1769.7594641000032,1769.7594641000032,1769.7594641000032,old_sceneOut_36.png,317,4.0,1.8049171000020579,,,042,01,2025-02-06_14h05.13.954,Surprise recog test,2023.1.3,59.94916308551438,
317,0,317,0,,,,,,,,,,,,,,,,,,,,,,,,,,,,,,,,,,,,1776.8636036999524,1777.8967272000154,1772.5792366999667,1772.5792366999667,1772.5792366999667,1772.5792366999667,old_fruit_20.png,318,4.0,4.2795550000155345,,,042,01,2025-02-06_14h05.13.954,Surprise recog test,2023.1.3,59.94916308551438,
318,0,318,0,,,,,,,,,,,,,,,,,,,,,,,,,,,,,,,,,,,,1780.819955999963,1781.850699099945,1777.8967272000154,1777.8967272000154,1777.8967272000154,1777.8967272000154,old_sceneIn_27.png,319,4.0,2.92537200008519,,,042,01,2025-02-06_14h05.13.954,Surprise recog test,2023.1.3,59.94916308551438,
319,0,319,0,,,,,,,,,,,,,,,,,,,,,,,,,,,,,,,,,,,,1783.2172749999445,,1781.850699099945,1781.850699099945,1781.850699099945,1781.850699099945,old_stationery_39.png,320,2.0,1.3683766999747604,,,042,01,2025-02-06_14h05.13.954,Surprise recog test,2023.1.3,59.94916308551438,
320,0,320,0,,,,,,,,,,,,,,,,,,,,,,,,,,,,,,,,,,,,1786.0345982,,1784.2480644999305,1784.2480644999305,1784.2480644999305,1784.2480644999305,old_sceneOut_43.png,321,3.0,1.7886724000563845,,,042,01,2025-02-06_14h05.13.954,Surprise recog test,2023.1.3,59.94916308551438,
321,0,321,0,,,,,,,,,,,,,,,,,,,,,,,,,,,,,,,,,,,,1789.955070200027,,1787.0564277999802,1787.0564277999802,1787.0564277999802,1787.0564277999802,new_sceneOut_30.png,322,4.0,2.894497900037095,,,042,01,2025-02-06_14h05.13.954,Surprise recog test,2023.1.3,59.94916308551438,
322,0,322,0,,,,,,,,,,,,,,,,,,,,,,,,,,,,,,,,,,,,1794.2671989999944,1795.2843543000054,1790.9897955999477,1790.9897955999477,1790.9897955999477,1790.9897955999477,new_sceneOut_44.png,323,3.0,3.2786228000186384,,,042,01,2025-02-06_14h05.13.954,Surprise recog test,2023.1.3,59.94916308551438,
323,0,323,0,,,,,,,,,,,,,,,,,,,,,,,,,,,,,,,,,,,,1797.4797029999318,,1795.2843543000054,1795.2843543000054,1795.2843543000054,1795.2843543000054,new_sceneOut_22.png,324,4.0,2.1944678999716416,,,042,01,2025-02-06_14h05.13.954,Surprise recog test,2023.1.3,59.94916308551438,
324,0,324,0,,,,,,,,,,,,,,,,,,,,,,,,,,,,,,,,,,,,1802.6588232000358,1803.6807970999507,1798.4988908999367,1798.4988908999367,1798.4988908999367,1798.4988908999367,new_stationery_43.png,325,4.0,4.155313899973407,,,042,01,2025-02-06_14h05.13.954,Surprise recog test,2023.1.3,59.94916308551438,
325,0,325,0,,,,,,,,,,,,,,,,,,,,,,,,,,,,,,,,,,,,1804.8368925999384,1805.857723699999,1803.6807970999507,1803.6807970999507,1803.6807970999507,1803.6807970999507,new_sceneOut_3.png,326,4.0,1.1561108999885619,,,042,01,2025-02-06_14h05.13.954,Surprise recog test,2023.1.3,59.94916308551438,
326,0,326,0,,,,,,,,,,,,,,,,,,,,,,,,,,,,,,,,,,,,1808.2754552999977,1809.3050727000227,1805.857723699999,1805.857723699999,1805.857723699999,1805.857723699999,new_fruit_42.png,327,4.0,2.413833099999465,,,042,01,2025-02-06_14h05.13.954,Surprise recog test,2023.1.3,59.94916308551438,
327,0,327,0,,,,,,,,,,,,,,,,,,,,,,,,,,,,,,,,,,,,1810.744811099954,1811.771139599965,1809.3050727000227,1809.3050727000227,1809.3050727000227,1809.3050727000227,old_fruit_23.png,328,2.0,1.4385561000090092,,,042,01,2025-02-06_14h05.13.954,Surprise recog test,2023.1.3,59.94916308551438,
328,0,328,0,,,,,,,,,,,,,,,,,,,,,,,,,,,,,,,,,,,,1814.5651181000285,1815.5943975999253,1811.771139599965,1811.771139599965,1811.771139599965,1811.771139599965,old_fruit_15.png,329,3.0,2.793502099928446,,,042,01,2025-02-06_14h05.13.954,Surprise recog test,2023.1.3,59.94916308551438,
329,0,329,0,,,,,,,,,,,,,,,,,,,,,,,,,,,,,,,,,,,,1819.1928695000242,1820.2122533000074,1815.5943975999253,1815.5943975999253,1815.5943975999253,1815.5943975999253,old_fruit_31.png,330,3.0,3.600645099999383,,,042,01,2025-02-06_14h05.13.954,Surprise recog test,2023.1.3,59.94916308551438,
330,0,330,0,,,,,,,,,,,,,,,,,,,,,,,,,,,,,,,,,,,,1824.1140848000068,1825.119721199968,1820.2122533000074,1820.2122533000074,1820.2122533000074,1820.2122533000074,new_sceneOut_26.png,331,3.0,3.8974892999976873,,,042,01,2025-02-06_14h05.13.954,Surprise recog test,2023.1.3,59.94916308551438,
331,0,331,0,,,,,,,,,,,,,,,,,,,,,,,,,,,,,,,,,,,,1828.5120248999447,1829.539465299924,1825.119721199968,1825.119721199968,1825.119721199968,1825.119721199968,old_sceneIn_29.png,332,4.0,3.3858686999883503,,,042,01,2025-02-06_14h05.13.954,Surprise recog test,2023.1.3,59.94916308551438,
332,0,332,0,,,,,,,,,,,,,,,,,,,,,,,,,,,,,,,,,,,,1831.1443848999916,1832.1756910999538,1829.539465299924,1829.539465299924,1829.539465299924,1829.539465299924,old_fruit_42.png,333,3.0,1.607475500088185,,,042,01,2025-02-06_14h05.13.954,Surprise recog test,2023.1.3,59.94916308551438,
333,0,333,0,,,,,,,,,,,,,,,,,,,,,,,,,,,,,,,,,,,,1833.7950024999445,1834.82009319996,1832.1756910999538,1832.1756910999538,1832.1756910999538,1832.1756910999538,new_fruit_16.png,334,4.0,1.6222896999679506,,,042,01,2025-02-06_14h05.13.954,Surprise recog test,2023.1.3,59.94916308551438,
334,0,334,0,,,,,,,,,,,,,,,,,,,,,,,,,,,,,,,,,,,,1837.3250998000149,1838.334860999952,1834.82009319996,1834.82009319996,1834.82009319996,1834.82009319996,old_sceneOut_15.png,335,4.0,2.499619700014591,,,042,01,2025-02-06_14h05.13.954,Surprise recog test,2023.1.3,59.94916308551438,
335,0,335,0,,,,,,,,,,,,,,,,,,,,,,,,,,,,,,,,,,,,1840.7183977999957,1841.7400848999387,1838.334860999952,1838.334860999952,1838.334860999952,1838.334860999952,new_stationery_24.png,336,3.0,2.381464899983257,,,042,01,2025-02-06_14h05.13.954,Surprise recog test,2023.1.3,59.94916308551438,
336,0,336,0,,,,,,,,,,,,,,,,,,,,,,,,,,,,,,,,,,,,1844.9645909999963,1845.977726400015,1841.7400848999387,1841.7400848999387,1841.7400848999387,1841.7400848999387,old_stationery_40.png,337,1.0,3.221001200028695,,,042,01,2025-02-06_14h05.13.954,Surprise recog test,2023.1.3,59.94916308551438,
337,0,337,0,,,,,,,,,,,,,,,,,,,,,,,,,,,,,,,,,,,,1850.9864099000115,,1845.977726400015,1845.977726400015,1845.977726400015,1845.977726400015,old_sceneIn_44.png,338,None,None,1850.9575675999513,,042,01,2025-02-06_14h05.13.954,Surprise recog test,2023.1.3,59.94916308551438,
338,0,338,0,,,,,,,,,,,,,,,,,,,,,,,,,,,,,,,,,,,,1853.743732300005,1854.7701063000131,1852.0039236999582,1852.0039236999582,1852.0039236999582,1852.0039236999582,old_stationery_45.png,339,4.0,1.7391685999464244,,,042,01,2025-02-06_14h05.13.954,Surprise recog test,2023.1.3,59.94916308551438,
339,0,339,0,,,,,,,,,,,,,,,,,,,,,,,,,,,,,,,,,,,,1855.859422700014,,1854.7701063000131,1854.7701063000131,1854.7701063000131,1854.7701063000131,new_stationery_6.png,340,4.0,1.0879696999909356,,,042,01,2025-02-06_14h05.13.954,Surprise recog test,2023.1.3,59.94916308551438,
340,0,340,0,,,,,,,,,,,,,,,,,,,,,,,,,,,,,,,,,,,,1857.666480200016,1858.6899597999873,1856.8917419000063,1856.8917419000063,1856.8917419000063,1856.8917419000063,new_stationery_14.png,341,4.0,0.7743144000414759,,,042,01,2025-02-06_14h05.13.954,Surprise recog test,2023.1.3,59.94916308551438,
341,0,341,0,,,,,,,,,,,,,,,,,,,,,,,,,,,,,,,,,,,,1860.8312070999527,,1858.6899597999873,1858.6899597999873,1858.6899597999873,1858.6899597999873,new_sceneOut_12.png,342,3.0,2.1357113000703976,,,042,01,2025-02-06_14h05.13.954,Surprise recog test,2023.1.3,59.94916308551438,
342,0,342,0,,,,,,,,,,,,,,,,,,,,,,,,,,,,,,,,,,,,1863.2968688999536,1864.3130779999774,1861.8632900000084,1861.8632900000084,1861.8632900000084,1861.8632900000084,old_sceneIn_5.png,343,4.0,1.4325807000277564,,,042,01,2025-02-06_14h05.13.954,Surprise recog test,2023.1.3,59.94916308551438,
343,0,343,0,,,,,,,,,,,,,,,,,,,,,,,,,,,,,,,,,,,,1865.6004572999664,,1864.3130779999774,1864.3130779999774,1864.3130779999774,1864.3130779999774,new_stationery_22.png,344,4.0,1.2878406998934224,,,042,01,2025-02-06_14h05.13.954,Surprise recog test,2023.1.3,59.94916308551438,
344,0,344,0,,,,,,,,,,,,,,,,,,,,,,,,,,,,,,,,,,,,1868.4745010000188,1869.4936599000357,1866.6319582000142,1866.6319582000142,1866.6319582000142,1866.6319582000142,new_sceneIn_13.png,345,4.0,1.8426887999521568,,,042,01,2025-02-06_14h05.13.954,Surprise recog test,2023.1.3,59.94916308551438,
345,0,345,0,,,,,,,,,,,,,,,,,,,,,,,,,,,,,,,,,,,,1870.8008655000012,1871.8227141000098,1869.4936599000357,1869.4936599000357,1869.4936599000357,1869.4936599000357,old_sceneIn_37.png,346,4.0,1.3044137998949736,,,042,01,2025-02-06_14h05.13.954,Surprise recog test,2023.1.3,59.94916308551438,
346,0,346,0,,,,,,,,,,,,,,,,,,,,,,,,,,,,,,,,,,,,1873.1155991000123,1874.1437768000178,1871.8227141000098,1871.8227141000098,1871.8227141000098,1871.8227141000098,new_sceneIn_47.png,347,4.0,1.2930131000466645,,,042,01,2025-02-06_14h05.13.954,Surprise recog test,2023.1.3,59.94916308551438,
347,0,347,0,,,,,,,,,,,,,,,,,,,,,,,,,,,,,,,,,,,,1875.0592519999482,,1874.1437768000178,1874.1437768000178,1874.1437768000178,1874.1437768000178,old_sceneIn_45.png,348,4.0,0.9181061999406666,,,042,01,2025-02-06_14h05.13.954,Surprise recog test,2023.1.3,59.94916308551438,
348,0,348,0,,,,,,,,,,,,,,,,,,,,,,,,,,,,,,,,,,,,1877.9422283000313,1878.9632434999803,1876.0922624999657,1876.0922624999657,1876.0922624999657,1876.0922624999657,old_fruit_37.png,349,4.0,1.8450766999740154,,,042,01,2025-02-06_14h05.13.954,Surprise recog test,2023.1.3,59.94916308551438,
