trial_loop.thisRepN,trial_loop.thisTrialN,trial_loop.thisN,trial_loop.thisIndex,VAS_slider.started,VAS_text.started,VAS_notstressed_text.started,VAS_stressed_text.started,continue_input.started,continue_text.started,label0.started,label10.started,label20.started,label30.started,label40.started,label50.started,label60.started,label70.started,label80.started,label90.started,label100.started,VAS_slider.response,VAS_slider.rt,VAS_slider.history,Answer_VAS,continue_input.keys,instruction_text.started,continue_text_2.started,continue_input_2.started,continue_input_2.keys,continue_input_2.rt,continue_input_2.duration,example_text.started,example_slider_2.started,example_image.started,example_slider_2.response,example_slider_2.rt,fixcross.started,fixcross.stopped,front_square.started,stim_images.started,trial_inst_images.started,slider_images.started,thisImg,trial_count,slider_images.response,slider_images.rt,slider_images.stopped,outro.started,participant,condition,date,expName,psychopyVersion,frameRate,
,,,,364.3712468999438,364.3712468999438,364.3712468999438,364.3712468999438,364.3712468999438,364.3712468999438,364.3712468999438,364.3712468999438,364.3712468999438,364.3712468999438,364.3712468999438,364.3712468999438,364.3712468999438,364.3712468999438,364.3712468999438,364.3712468999438,364.3712468999438,2.9722222222222228,11.94941210001707,"[(2.9722222222222228, 11.94941210001707)]",2.9722222222222228,None,,,,,,,,,,,,,,,,,,,,,,,,043,00,2025-02-04_14h36.40.862,Surprise recog test,2023.1.3,59.95246968304407,
,,,,,,,,,,,,,,,,,,,,,,,,,,376.39355549996253,376.39355549996253,376.39355549996253,space,18.02940330002457,None,,,,,,,,,,,,,,,,,,043,00,2025-02-04_14h36.40.862,Surprise recog test,2023.1.3,59.95246968304407,
0,0,0,0,,,,,,,,,,,,,,,,,,,,,,,,,,,,,394.5461290999083,394.5461290999083,394.5461290999083,5.0,15.237597699975595,415.3472621999681,416.3629492999753,410.75037189992145,410.75037189992145,410.75037189992145,410.75037189992145,new_stationery_14.png,1,4.0,4.599816599977203,,,043,00,2025-02-04_14h36.40.862,Surprise recog test,2023.1.3,59.95246968304407,
1,0,1,0,,,,,,,,,,,,,,,,,,,,,,,,,,,,,,,,,,420.3763293999946,421.40542809991166,416.3629492999753,416.3629492999753,416.3629492999753,416.3629492999753,old_sceneIn_27.png,2,5.0,4.015518200001679,,,043,00,2025-02-04_14h36.40.862,Surprise recog test,2023.1.3,59.95246968304407,
2,0,2,0,,,,,,,,,,,,,,,,,,,,,,,,,,,,,,,,,,424.33781469997484,425.3589746999787,421.40542809991166,421.40542809991166,421.40542809991166,421.40542809991166,new_sceneIn_22.png,3,4.0,2.930417700088583,,,043,00,2025-02-04_14h36.40.862,Surprise recog test,2023.1.3,59.95246968304407,
3,0,3,0,,,,,,,,,,,,,,,,,,,,,,,,,,,,,,,,,,429.01995589991566,430.0471248999238,425.3589746999787,425.3589746999787,425.3589746999787,425.3589746999787,old_stationery_46.png,4,1.0,3.6629955999087542,,,043,00,2025-02-04_14h36.40.862,Surprise recog test,2023.1.3,59.95246968304407,
4,0,4,0,,,,,,,,,,,,,,,,,,,,,,,,,,,,,,,,,,435.03327589994296,,430.0471248999238,430.0471248999238,430.0471248999238,430.0471248999238,new_sceneOut_24.png,5,None,None,435.0261248999741,,043,00,2025-02-04_14h36.40.862,Surprise recog test,2023.1.3,59.95246968304407,
5,0,5,0,,,,,,,,,,,,,,,,,,,,,,,,,,,,,,,,,,438.6004180999007,439.617770099896,436.06798359996174,436.06798359996174,436.06798359996174,436.06798359996174,old_fruit_41.png,6,4.0,2.5349153999704868,,,043,00,2025-02-04_14h36.40.862,Surprise recog test,2023.1.3,59.95246968304407,
6,0,6,0,,,,,,,,,,,,,,,,,,,,,,,,,,,,,,,,,,441.4525629999116,442.4684919998981,439.617770099896,439.617770099896,439.617770099896,439.617770099896,old_sceneIn_21.png,7,4.0,1.8365503000095487,,,043,00,2025-02-04_14h36.40.862,Surprise recog test,2023.1.3,59.95246968304407,
7,0,7,0,,,,,,,,,,,,,,,,,,,,,,,,,,,,,,,,,,444.80023910000455,445.8196764999302,442.4684919998981,442.4684919998981,442.4684919998981,442.4684919998981,old_sceneIn_49.png,8,4.0,2.3298376000020653,,,043,00,2025-02-04_14h36.40.862,Surprise recog test,2023.1.3,59.95246968304407,
8,0,8,0,,,,,,,,,,,,,,,,,,,,,,,,,,,,,,,,,,449.5321806999855,450.5656087999232,445.8196764999302,445.8196764999302,445.8196764999302,445.8196764999302,old_sceneIn_23.png,9,5.0,3.7101011000340804,,,043,00,2025-02-04_14h36.40.862,Surprise recog test,2023.1.3,59.95246968304407,
9,0,9,0,,,,,,,,,,,,,,,,,,,,,,,,,,,,,,,,,,453.0022986999247,454.0204385999823,450.5656087999232,450.5656087999232,450.5656087999232,450.5656087999232,old_sceneIn_2.png,10,4.0,2.44068849994801,,,043,00,2025-02-04_14h36.40.862,Surprise recog test,2023.1.3,59.95246968304407,
10,0,10,0,,,,,,,,,,,,,,,,,,,,,,,,,,,,,,,,,,456.28817769989837,457.311206299928,454.0204385999823,454.0204385999823,454.0204385999823,454.0204385999823,old_sceneIn_46.png,11,4.0,2.2637759000062943,,,043,00,2025-02-04_14h36.40.862,Surprise recog test,2023.1.3,59.95246968304407,
11,0,11,0,,,,,,,,,,,,,,,,,,,,,,,,,,,,,,,,,,459.9437730999198,460.9722585999407,457.311206299928,457.311206299928,457.311206299928,457.311206299928,new_sceneOut_31.png,12,4.0,2.6330858999863267,,,043,00,2025-02-04_14h36.40.862,Surprise recog test,2023.1.3,59.95246968304407,
12,0,12,0,,,,,,,,,,,,,,,,,,,,,,,,,,,,,,,,,,463.42734870000277,464.44613609998487,460.9722585999407,460.9722585999407,460.9722585999407,460.9722585999407,new_sceneOut_18.png,13,5.0,2.457455800031312,,,043,00,2025-02-04_14h36.40.862,Surprise recog test,2023.1.3,59.95246968304407,
13,0,13,0,,,,,,,,,,,,,,,,,,,,,,,,,,,,,,,,,,467.9026391999796,468.92864369996823,464.44613609998487,464.44613609998487,464.44613609998487,464.44613609998487,old_sceneIn_48.png,14,5.0,3.4515820000087842,,,043,00,2025-02-04_14h36.40.862,Surprise recog test,2023.1.3,59.95246968304407,
14,0,14,0,,,,,,,,,,,,,,,,,,,,,,,,,,,,,,,,,,472.71758069994394,473.74870209989604,468.92864369996823,468.92864369996823,468.92864369996823,468.92864369996823,new_fruit_9.png,15,1.0,3.789640999981202,,,043,00,2025-02-04_14h36.40.862,Surprise recog test,2023.1.3,59.95246968304407,
15,0,15,0,,,,,,,,,,,,,,,,,,,,,,,,,,,,,,,,,,475.6342189999996,,473.74870209989604,473.74870209989604,473.74870209989604,473.74870209989604,old_stationery_36.png,16,1.0,1.8876146000111476,,,043,00,2025-02-04_14h36.40.862,Surprise recog test,2023.1.3,59.95246968304407,
16,0,16,0,,,,,,,,,,,,,,,,,,,,,,,,,,,,,,,,,,479.6909663999686,480.71299679996446,476.66272529994603,476.66272529994603,476.66272529994603,476.66272529994603,new_stationery_11.png,17,2.0,3.027158600045368,,,043,00,2025-02-04_14h36.40.862,Surprise recog test,2023.1.3,59.95246968304407,
17,0,17,0,,,,,,,,,,,,,,,,,,,,,,,,,,,,,,,,,,483.20663839997724,,480.71299679996446,480.71299679996446,480.71299679996446,480.71299679996446,old_sceneIn_39.png,18,4.0,2.4911270000739023,,,043,00,2025-02-04_14h36.40.862,Surprise recog test,2023.1.3,59.95246968304407,
18,0,18,0,,,,,,,,,,,,,,,,,,,,,,,,,,,,,,,,,,486.54501899995375,487.5755748999072,484.2252341998974,484.2252341998974,484.2252341998974,484.2252341998974,new_sceneOut_10.png,19,3.0,2.3155457000248134,,,043,00,2025-02-04_14h36.40.862,Surprise recog test,2023.1.3,59.95246968304407,
19,0,19,0,,,,,,,,,,,,,,,,,,,,,,,,,,,,,,,,,,490.2928144999314,491.3140936999116,487.5755748999072,487.5755748999072,487.5755748999072,487.5755748999072,old_sceneOut_26.png,20,4.0,2.7155162000562996,,,043,00,2025-02-04_14h36.40.862,Surprise recog test,2023.1.3,59.95246968304407,
20,0,20,0,,,,,,,,,,,,,,,,,,,,,,,,,,,,,,,,,,494.6974540000083,495.7150724999374,491.3140936999116,491.3140936999116,491.3140936999116,491.3140936999116,new_stationery_46.png,21,4.0,3.3849868000252172,,,043,00,2025-02-04_14h36.40.862,Surprise recog test,2023.1.3,59.95246968304407,
21,0,21,0,,,,,,,,,,,,,,,,,,,,,,,,,,,,,,,,,,498.3994588999776,499.4213797999546,495.7150724999374,495.7150724999374,495.7150724999374,495.7150724999374,new_fruit_23.png,22,2.0,2.683964499970898,,,043,00,2025-02-04_14h36.40.862,Surprise recog test,2023.1.3,59.95246968304407,
22,0,22,0,,,,,,,,,,,,,,,,,,,,,,,,,,,,,,,,,,501.41402459994424,502.42711589997634,499.4213797999546,499.4213797999546,499.4213797999546,499.4213797999546,old_stationery_3.png,23,2.0,1.9955353999976069,,,043,00,2025-02-04_14h36.40.862,Surprise recog test,2023.1.3,59.95246968304407,
23,0,23,0,,,,,,,,,,,,,,,,,,,,,,,,,,,,,,,,,,505.04436649999116,506.0746121999109,502.42711589997634,502.42711589997634,502.42711589997634,502.42711589997634,old_sceneIn_35.png,24,4.0,2.612898200051859,,,043,00,2025-02-04_14h36.40.862,Surprise recog test,2023.1.3,59.95246968304407,
24,0,24,0,,,,,,,,,,,,,,,,,,,,,,,,,,,,,,,,,,508.8972274999833,509.9310128999641,506.0746121999109,506.0746121999109,506.0746121999109,506.0746121999109,new_fruit_46.png,25,3.0,2.824736600043252,,,043,00,2025-02-04_14h36.40.862,Surprise recog test,2023.1.3,59.95246968304407,
25,0,25,0,,,,,,,,,,,,,,,,,,,,,,,,,,,,,,,,,,511.97753879998345,512.9970930999843,509.9310128999641,509.9310128999641,509.9310128999641,509.9310128999641,old_stationery_12.png,26,1.0,2.042858099914156,,,043,00,2025-02-04_14h36.40.862,Surprise recog test,2023.1.3,59.95246968304407,
26,0,26,0,,,,,,,,,,,,,,,,,,,,,,,,,,,,,,,,,,515.346952599939,516.3559429999441,512.9970930999843,512.9970930999843,512.9970930999843,512.9970930999843,new_sceneIn_35.png,27,4.0,2.349004799965769,,,043,00,2025-02-04_14h36.40.862,Surprise recog test,2023.1.3,59.95246968304407,
27,0,27,0,,,,,,,,,,,,,,,,,,,,,,,,,,,,,,,,,,519.9644242000068,520.9790523999836,516.3559429999441,516.3559429999441,516.3559429999441,516.3559429999441,new_sceneIn_28.png,28,3.0,3.601357200066559,,,043,00,2025-02-04_14h36.40.862,Surprise recog test,2023.1.3,59.95246968304407,
28,0,28,0,,,,,,,,,,,,,,,,,,,,,,,,,,,,,,,,,,523.7704442999093,524.776948899962,520.9790523999836,520.9790523999836,520.9790523999836,520.9790523999836,old_fruit_48.png,29,2.0,2.786140499985777,,,043,00,2025-02-04_14h36.40.862,Surprise recog test,2023.1.3,59.95246968304407,
29,0,29,0,,,,,,,,,,,,,,,,,,,,,,,,,,,,,,,,,,527.5399361999007,528.5501662999159,524.776948899962,524.776948899962,524.776948899962,524.776948899962,old_sceneIn_31.png,30,3.0,2.758492299937643,,,043,00,2025-02-04_14h36.40.862,Surprise recog test,2023.1.3,59.95246968304407,
30,0,30,0,,,,,,,,,,,,,,,,,,,,,,,,,,,,,,,,,,531.014702299959,532.0456304999534,528.5501662999159,528.5501662999159,528.5501662999159,528.5501662999159,old_sceneOut_15.png,31,3.0,2.4572336999699473,,,043,00,2025-02-04_14h36.40.862,Surprise recog test,2023.1.3,59.95246968304407,
31,0,31,0,,,,,,,,,,,,,,,,,,,,,,,,,,,,,,,,,,534.0117701999843,535.0342087999452,532.0456304999534,532.0456304999534,532.0456304999534,532.0456304999534,new_sceneIn_46.png,32,4.0,1.9607754000462592,,,043,00,2025-02-04_14h36.40.862,Surprise recog test,2023.1.3,59.95246968304407,
32,0,32,0,,,,,,,,,,,,,,,,,,,,,,,,,,,,,,,,,,537.8235697000055,538.8376996999141,535.0342087999452,535.0342087999452,535.0342087999452,535.0342087999452,old_sceneOut_27.png,33,4.0,2.7909015000332147,,,043,00,2025-02-04_14h36.40.862,Surprise recog test,2023.1.3,59.95246968304407,
33,0,33,0,,,,,,,,,,,,,,,,,,,,,,,,,,,,,,,,,,541.0214934999822,,538.8376996999141,538.8376996999141,538.8376996999141,538.8376996999141,old_stationery_49.png,34,1.0,2.1784712999360636,,,043,00,2025-02-04_14h36.40.862,Surprise recog test,2023.1.3,59.95246968304407,
34,0,34,0,,,,,,,,,,,,,,,,,,,,,,,,,,,,,,,,,,546.0642630999209,547.0871900999919,542.0438226999249,542.0438226999249,542.0438226999249,542.0438226999249,new_sceneIn_9.png,35,4.0,4.0166907999664545,,,043,00,2025-02-04_14h36.40.862,Surprise recog test,2023.1.3,59.95246968304407,
35,0,35,0,,,,,,,,,,,,,,,,,,,,,,,,,,,,,,,,,,548.87548529997,549.9002279998967,547.0871900999919,547.0871900999919,547.0871900999919,547.0871900999919,old_fruit_7.png,36,2.0,1.789316099951975,,,043,00,2025-02-04_14h36.40.862,Surprise recog test,2023.1.3,59.95246968304407,
36,0,36,0,,,,,,,,,,,,,,,,,,,,,,,,,,,,,,,,,,553.1884356999071,554.2192231999943,549.9002279998967,549.9002279998967,549.9002279998967,549.9002279998967,old_sceneIn_43.png,37,5.0,3.292811100021936,,,043,00,2025-02-04_14h36.40.862,Surprise recog test,2023.1.3,59.95246968304407,
37,0,37,0,,,,,,,,,,,,,,,,,,,,,,,,,,,,,,,,,,556.9314599999925,557.9390289000003,554.2192231999943,554.2192231999943,554.2192231999943,554.2192231999943,old_stationery_21.png,38,1.0,2.7099575999891385,,,043,00,2025-02-04_14h36.40.862,Surprise recog test,2023.1.3,59.95246968304407,
38,0,38,0,,,,,,,,,,,,,,,,,,,,,,,,,,,,,,,,,,561.0917792000109,562.1218689999077,557.9390289000003,557.9390289000003,557.9390289000003,557.9390289000003,old_stationery_30.png,39,1.0,3.15201950003393,,,043,00,2025-02-04_14h36.40.862,Surprise recog test,2023.1.3,59.95246968304407,
39,0,39,0,,,,,,,,,,,,,,,,,,,,,,,,,,,,,,,,,,565.0947753000073,566.1250256999629,562.1218689999077,562.1218689999077,562.1218689999077,562.1218689999077,new_sceneIn_6.png,40,4.0,2.9721785000292584,,,043,00,2025-02-04_14h36.40.862,Surprise recog test,2023.1.3,59.95246968304407,
40,0,40,0,,,,,,,,,,,,,,,,,,,,,,,,,,,,,,,,,,568.4881877999287,569.5149248999078,566.1250256999629,566.1250256999629,566.1250256999629,566.1250256999629,old_stationery_43.png,41,2.0,2.3648568999487907,,,043,00,2025-02-04_14h36.40.862,Surprise recog test,2023.1.3,59.95246968304407,
41,0,41,0,,,,,,,,,,,,,,,,,,,,,,,,,,,,,,,,,,572.7900919999229,573.8157307999209,569.5149248999078,569.5149248999078,569.5149248999078,569.5149248999078,new_sceneOut_34.png,42,4.0,3.2782744000433013,,,043,00,2025-02-04_14h36.40.862,Surprise recog test,2023.1.3,59.95246968304407,
42,0,42,0,,,,,,,,,,,,,,,,,,,,,,,,,,,,,,,,,,576.3146818999667,577.322948499932,573.8157307999209,573.8157307999209,573.8157307999209,573.8157307999209,new_sceneOut_36.png,43,5.0,2.501472899923101,,,043,00,2025-02-04_14h36.40.862,Surprise recog test,2023.1.3,59.95246968304407,
43,0,43,0,,,,,,,,,,,,,,,,,,,,,,,,,,,,,,,,,,579.2666632999899,580.287374699954,577.322948499932,577.322948499932,577.322948499932,577.322948499932,old_stationery_29.png,44,1.0,1.9339627999579534,,,043,00,2025-02-04_14h36.40.862,Surprise recog test,2023.1.3,59.95246968304407,
44,0,44,0,,,,,,,,,,,,,,,,,,,,,,,,,,,,,,,,,,583.3454595999792,584.3750449999934,580.287374699954,580.287374699954,580.287374699954,580.287374699954,new_sceneIn_39.png,45,3.0,3.060529600013979,,,043,00,2025-02-04_14h36.40.862,Surprise recog test,2023.1.3,59.95246968304407,
45,0,45,0,,,,,,,,,,,,,,,,,,,,,,,,,,,,,,,,,,586.9522166999523,587.9614193999441,584.3750449999934,584.3750449999934,584.3750449999934,584.3750449999934,new_stationery_7.png,46,2.0,2.579766899929382,,,043,00,2025-02-04_14h36.40.862,Surprise recog test,2023.1.3,59.95246968304407,
46,0,46,0,,,,,,,,,,,,,,,,,,,,,,,,,,,,,,,,,,590.8795881998958,,587.9614193999441,587.9614193999441,587.9614193999441,587.9614193999441,new_sceneOut_25.png,47,3.0,2.9126993999816477,,,043,00,2025-02-04_14h36.40.862,Surprise recog test,2023.1.3,59.95246968304407,
47,0,47,0,,,,,,,,,,,,,,,,,,,,,,,,,,,,,,,,,,593.5618973999517,594.5795882999664,591.9102620999329,591.9102620999329,591.9102620999329,591.9102620999329,old_stationery_42.png,48,1.0,1.6476604000199586,,,043,00,2025-02-04_14h36.40.862,Surprise recog test,2023.1.3,59.95246968304407,
48,0,48,0,,,,,,,,,,,,,,,,,,,,,,,,,,,,,,,,,,597.7479561999207,598.7699273999315,594.5795882999664,594.5795882999664,594.5795882999664,594.5795882999664,old_sceneIn_7.png,49,3.0,3.165857799933292,,,043,00,2025-02-04_14h36.40.862,Surprise recog test,2023.1.3,59.95246968304407,
49,0,49,0,,,,,,,,,,,,,,,,,,,,,,,,,,,,,,,,,,600.8741466999054,601.9038183999946,598.7699273999315,598.7699273999315,598.7699273999315,598.7699273999315,new_fruit_44.png,50,3.0,2.106524399947375,,,043,00,2025-02-04_14h36.40.862,Surprise recog test,2023.1.3,59.95246968304407,
50,0,50,0,,,,,,,,,,,,,,,,,,,,,,,,,,,,,,,,,,605.3861906999955,606.409365199972,601.9038183999946,601.9038183999946,601.9038183999946,601.9038183999946,old_sceneOut_32.png,51,3.0,3.4845644999295473,,,043,00,2025-02-04_14h36.40.862,Surprise recog test,2023.1.3,59.95246968304407,
51,0,51,0,,,,,,,,,,,,,,,,,,,,,,,,,,,,,,,,,,609.1113047999097,,606.409365199972,606.409365199972,606.409365199972,606.409365199972,new_stationery_36.png,52,2.0,2.703997000004165,,,043,00,2025-02-04_14h36.40.862,Surprise recog test,2023.1.3,59.95246968304407,
52,0,52,0,,,,,,,,,,,,,,,,,,,,,,,,,,,,,,,,,,612.9738357999595,613.9861539999256,610.1332016999368,610.1332016999368,610.1332016999368,610.1332016999368,new_sceneIn_31.png,53,4.0,2.8366815000772476,,,043,00,2025-02-04_14h36.40.862,Surprise recog test,2023.1.3,59.95246968304407,
53,0,53,0,,,,,,,,,,,,,,,,,,,,,,,,,,,,,,,,,,616.6309847999364,617.6482255998999,613.9861539999256,613.9861539999256,613.9861539999256,613.9861539999256,new_sceneOut_11.png,54,3.0,2.640713299973868,,,043,00,2025-02-04_14h36.40.862,Surprise recog test,2023.1.3,59.95246968304407,
54,0,54,0,,,,,,,,,,,,,,,,,,,,,,,,,,,,,,,,,,620.3394963999745,621.3730751000112,617.6482255998999,617.6482255998999,617.6482255998999,617.6482255998999,old_fruit_46.png,55,2.0,2.693547800066881,,,043,00,2025-02-04_14h36.40.862,Surprise recog test,2023.1.3,59.95246968304407,
55,0,55,0,,,,,,,,,,,,,,,,,,,,,,,,,,,,,,,,,,624.1439296999015,625.1766122999834,621.3730751000112,621.3730751000112,621.3730751000112,621.3730751000112,old_sceneIn_16.png,56,4.0,2.769411400076933,,,043,00,2025-02-04_14h36.40.862,Surprise recog test,2023.1.3,59.95246968304407,
56,0,56,0,,,,,,,,,,,,,,,,,,,,,,,,,,,,,,,,,,626.8684476999333,627.8972858999623,625.1766122999834,625.1766122999834,625.1766122999834,625.1766122999834,old_sceneIn_9.png,57,5.0,1.6926931000780314,,,043,00,2025-02-04_14h36.40.862,Surprise recog test,2023.1.3,59.95246968304407,
57,0,57,0,,,,,,,,,,,,,,,,,,,,,,,,,,,,,,,,,,630.8546720999293,631.8794662998989,627.8972858999623,627.8972858999623,627.8972858999623,627.8972858999623,new_sceneOut_14.png,58,4.0,2.9601795999333262,,,043,00,2025-02-04_14h36.40.862,Surprise recog test,2023.1.3,59.95246968304407,
58,0,58,0,,,,,,,,,,,,,,,,,,,,,,,,,,,,,,,,,,634.1129768999526,635.1313008998986,631.8794662998989,631.8794662998989,631.8794662998989,631.8794662998989,old_fruit_50.png,59,1.0,2.2343860999681056,,,043,00,2025-02-04_14h36.40.862,Surprise recog test,2023.1.3,59.95246968304407,
59,0,59,0,,,,,,,,,,,,,,,,,,,,,,,,,,,,,,,,,,639.1685622999212,,635.1313008998986,635.1313008998986,635.1313008998986,635.1313008998986,old_fruit_14.png,60,3.0,4.03603950003162,,,043,00,2025-02-04_14h36.40.862,Surprise recog test,2023.1.3,59.95246968304407,
60,0,60,0,,,,,,,,,,,,,,,,,,,,,,,,,,,,,,,,,,642.2244019999634,643.2558926999336,640.1962576999795,640.1962576999795,640.1962576999795,640.1962576999795,new_sceneOut_23.png,61,5.0,2.0288864000467584,,,043,00,2025-02-04_14h36.40.862,Surprise recog test,2023.1.3,59.95246968304407,
61,0,61,0,,,,,,,,,,,,,,,,,,,,,,,,,,,,,,,,,,646.7759647999192,,643.2558926999336,643.2558926999336,643.2558926999336,643.2558926999336,new_fruit_37.png,62,4.0,3.5187519000610337,,,043,00,2025-02-04_14h36.40.862,Surprise recog test,2023.1.3,59.95246968304407,
62,0,62,0,,,,,,,,,,,,,,,,,,,,,,,,,,,,,,,,,,650.8296393000055,,647.8064222999383,647.8064222999383,647.8064222999383,647.8064222999383,new_stationery_13.png,63,2.0,3.0234839000040665,,,043,00,2025-02-04_14h36.40.862,Surprise recog test,2023.1.3,59.95246968304407,
63,0,63,0,,,,,,,,,,,,,,,,,,,,,,,,,,,,,,,,,,654.4012904999545,655.433837999939,651.8600689999294,651.8600689999294,651.8600689999294,651.8600689999294,new_fruit_27.png,64,1.0,2.5430795999709517,,,043,00,2025-02-04_14h36.40.862,Surprise recog test,2023.1.3,59.95246968304407,
64,0,64,0,,,,,,,,,,,,,,,,,,,,,,,,,,,,,,,,,,658.5771510999184,659.6027792999521,655.433837999939,655.433837999939,655.433837999939,655.433837999939,old_fruit_16.png,65,2.0,3.1455695999320596,,,043,00,2025-02-04_14h36.40.862,Surprise recog test,2023.1.3,59.95246968304407,
65,0,65,0,,,,,,,,,,,,,,,,,,,,,,,,,,,,,,,,,,661.2146375000011,662.241762499907,659.6027792999521,659.6027792999521,659.6027792999521,659.6027792999521,old_fruit_2.png,66,1.0,1.6136512999655679,,,043,00,2025-02-04_14h36.40.862,Surprise recog test,2023.1.3,59.95246968304407,
66,0,66,0,,,,,,,,,,,,,,,,,,,,,,,,,,,,,,,,,,664.9431484999368,665.9705091000069,662.241762499907,662.241762499907,662.241762499907,662.241762499907,new_sceneOut_43.png,67,3.0,2.7053377999691293,,,043,00,2025-02-04_14h36.40.862,Surprise recog test,2023.1.3,59.95246968304407,
67,0,67,0,,,,,,,,,,,,,,,,,,,,,,,,,,,,,,,,,,667.9853239000076,669.0103924999712,665.9705091000069,665.9705091000069,665.9705091000069,665.9705091000069,old_stationery_33.png,68,1.0,2.012563099968247,,,043,00,2025-02-04_14h36.40.862,Surprise recog test,2023.1.3,59.95246968304407,
68,0,68,0,,,,,,,,,,,,,,,,,,,,,,,,,,,,,,,,,,671.949002899928,672.9815715999575,669.0103924999712,669.0103924999712,669.0103924999712,669.0103924999712,old_fruit_1.png,69,4.0,2.941410499974154,,,043,00,2025-02-04_14h36.40.862,Surprise recog test,2023.1.3,59.95246968304407,
69,0,69,0,,,,,,,,,,,,,,,,,,,,,,,,,,,,,,,,,,676.9735432999441,677.9986844999949,672.9815715999575,672.9815715999575,672.9815715999575,672.9815715999575,new_sceneIn_30.png,70,3.0,3.9932199999457225,,,043,00,2025-02-04_14h36.40.862,Surprise recog test,2023.1.3,59.95246968304407,
70,0,70,0,,,,,,,,,,,,,,,,,,,,,,,,,,,,,,,,,,681.3034182999982,682.3209926999407,677.9986844999949,677.9986844999949,677.9986844999949,677.9986844999949,new_fruit_11.png,71,1.0,3.3075172000098974,,,043,00,2025-02-04_14h36.40.862,Surprise recog test,2023.1.3,59.95246968304407,
71,0,71,0,,,,,,,,,,,,,,,,,,,,,,,,,,,,,,,,,,684.512017800007,685.5412225999171,682.3209926999407,682.3209926999407,682.3209926999407,682.3209926999407,old_sceneOut_6.png,72,4.0,2.1926325999666005,,,043,00,2025-02-04_14h36.40.862,Surprise recog test,2023.1.3,59.95246968304407,
72,0,72,0,,,,,,,,,,,,,,,,,,,,,,,,,,,,,,,,,,687.7013967999956,688.7229053999763,685.5412225999171,685.5412225999171,685.5412225999171,685.5412225999171,new_sceneOut_17.png,73,3.0,2.1622536000795662,,,043,00,2025-02-04_14h36.40.862,Surprise recog test,2023.1.3,59.95246968304407,
73,0,73,0,,,,,,,,,,,,,,,,,,,,,,,,,,,,,,,,,,691.6339429999935,692.6630740999244,688.7229053999763,688.7229053999763,688.7229053999763,688.7229053999763,new_stationery_40.png,74,5.0,2.9139501000754535,,,043,00,2025-02-04_14h36.40.862,Surprise recog test,2023.1.3,59.95246968304407,
74,0,74,0,,,,,,,,,,,,,,,,,,,,,,,,,,,,,,,,,,695.2052684999071,696.2348409999395,692.6630740999244,692.6630740999244,692.6630740999244,692.6630740999244,new_stationery_37.png,75,5.0,2.541825999971479,,,043,00,2025-02-04_14h36.40.862,Surprise recog test,2023.1.3,59.95246968304407,
75,0,75,0,,,,,,,,,,,,,,,,,,,,,,,,,,,,,,,,,,699.7002462999662,700.7199985999614,696.2348409999395,696.2348409999395,696.2348409999395,696.2348409999395,old_sceneIn_15.png,76,4.0,3.464303500019014,,,043,00,2025-02-04_14h36.40.862,Surprise recog test,2023.1.3,59.95246968304407,
76,0,76,0,,,,,,,,,,,,,,,,,,,,,,,,,,,,,,,,,,702.8905371999135,,700.7199985999614,700.7199985999614,700.7199985999614,700.7199985999614,new_stationery_26.png,77,4.0,2.1713503999635577,,,043,00,2025-02-04_14h36.40.862,Surprise recog test,2023.1.3,59.95246968304407,
77,0,77,0,,,,,,,,,,,,,,,,,,,,,,,,,,,,,,,,,,706.2889717000071,707.2975049999077,703.9153176000109,703.9153176000109,703.9153176000109,703.9153176000109,old_fruit_15.png,78,4.0,2.3654555999673903,,,043,00,2025-02-04_14h36.40.862,Surprise recog test,2023.1.3,59.95246968304407,
78,0,78,0,,,,,,,,,,,,,,,,,,,,,,,,,,,,,,,,,,708.9249388999306,709.9436821999261,707.2975049999077,707.2975049999077,707.2975049999077,707.2975049999077,old_sceneOut_8.png,79,4.0,1.620869499980472,,,043,00,2025-02-04_14h36.40.862,Surprise recog test,2023.1.3,59.95246968304407,
79,0,79,0,,,,,,,,,,,,,,,,,,,,,,,,,,,,,,,,,,713.0500193999615,714.0841615999816,709.9436821999261,709.9436821999261,709.9436821999261,709.9436821999261,old_sceneOut_41.png,80,5.0,3.1056870999746025,,,043,00,2025-02-04_14h36.40.862,Surprise recog test,2023.1.3,59.95246968304407,
80,0,80,0,,,,,,,,,,,,,,,,,,,,,,,,,,,,,,,,,,716.6142786999699,717.6278502999339,714.0841615999816,714.0841615999816,714.0841615999816,714.0841615999816,old_fruit_38.png,81,1.0,2.5308565000304952,,,043,00,2025-02-04_14h36.40.862,Surprise recog test,2023.1.3,59.95246968304407,
81,0,81,0,,,,,,,,,,,,,,,,,,,,,,,,,,,,,,,,,,721.2226591999643,,717.6278502999339,717.6278502999339,717.6278502999339,717.6278502999339,new_sceneOut_44.png,82,5.0,3.596017299918458,,,043,00,2025-02-04_14h36.40.862,Surprise recog test,2023.1.3,59.95246968304407,
82,0,82,0,,,,,,,,,,,,,,,,,,,,,,,,,,,,,,,,,,724.9712696999777,725.98962509993,722.2548083999427,722.2548083999427,722.2548083999427,722.2548083999427,new_sceneIn_21.png,83,5.0,2.7153073999797925,,,043,00,2025-02-04_14h36.40.862,Surprise recog test,2023.1.3,59.95246968304407,
83,0,83,0,,,,,,,,,,,,,,,,,,,,,,,,,,,,,,,,,,727.8596509000054,,725.98962509993,725.98962509993,725.98962509993,725.98962509993,new_sceneIn_32.png,84,4.0,1.872011800063774,,,043,00,2025-02-04_14h36.40.862,Surprise recog test,2023.1.3,59.95246968304407,
84,0,84,0,,,,,,,,,,,,,,,,,,,,,,,,,,,,,,,,,,732.4325880999677,733.4647516999394,728.892430500011,728.892430500011,728.892430500011,728.892430500011,new_stationery_16.png,85,3.0,3.5420212999451905,,,043,00,2025-02-04_14h36.40.862,Surprise recog test,2023.1.3,59.95246968304407,
85,0,85,0,,,,,,,,,,,,,,,,,,,,,,,,,,,,,,,,,,737.4351116999751,,733.4647516999394,733.4647516999394,733.4647516999394,733.4647516999394,new_stationery_47.png,86,4.0,3.972587800002657,,,043,00,2025-02-04_14h36.40.862,Surprise recog test,2023.1.3,59.95246968304407,
86,0,86,0,,,,,,,,,,,,,,,,,,,,,,,,,,,,,,,,,,742.2604363999562,743.2900332999416,738.4698533999035,738.4698533999035,738.4698533999035,738.4698533999035,old_fruit_36.png,87,2.0,3.7941988999955356,,,043,00,2025-02-04_14h36.40.862,Surprise recog test,2023.1.3,59.95246968304407,
87,0,87,0,,,,,,,,,,,,,,,,,,,,,,,,,,,,,,,,,,744.9417122999439,,743.2900332999416,743.2900332999416,743.2900332999416,743.2900332999416,old_stationery_18.png,88,1.0,1.6546736001037061,,,043,00,2025-02-04_14h36.40.862,Surprise recog test,2023.1.3,59.95246968304407,
88,0,88,0,,,,,,,,,,,,,,,,,,,,,,,,,,,,,,,,,,748.8481206999859,749.876746899914,745.9744077000069,745.9744077000069,745.9744077000069,745.9744077000069,new_stationery_27.png,89,4.0,2.8749248000094667,,,043,00,2025-02-04_14h36.40.862,Surprise recog test,2023.1.3,59.95246968304407,
89,0,89,0,,,,,,,,,,,,,,,,,,,,,,,,,,,,,,,,,,751.9288688999368,752.9358703999314,749.876746899914,749.876746899914,749.876746899914,749.876746899914,old_sceneOut_14.png,90,3.0,2.053638600045815,,,043,00,2025-02-04_14h36.40.862,Surprise recog test,2023.1.3,59.95246968304407,
90,0,90,0,,,,,,,,,,,,,,,,,,,,,,,,,,,,,,,,,,755.6967086999211,756.7088875999907,752.9358703999314,752.9358703999314,752.9358703999314,752.9358703999314,old_sceneIn_38.png,91,4.0,2.7515042999293655,,,043,00,2025-02-04_14h36.40.862,Surprise recog test,2023.1.3,59.95246968304407,
91,0,91,0,,,,,,,,,,,,,,,,,,,,,,,,,,,,,,,,,,758.5995966999326,759.6196931999875,756.7088875999907,756.7088875999907,756.7088875999907,756.7088875999907,new_stationery_35.png,92,1.0,1.8899279000470415,,,043,00,2025-02-04_14h36.40.862,Surprise recog test,2023.1.3,59.95246968304407,
92,0,92,0,,,,,,,,,,,,,,,,,,,,,,,,,,,,,,,,,,763.9599721999839,764.992393799941,759.6196931999875,759.6196931999875,759.6196931999875,759.6196931999875,old_stationery_13.png,93,1.0,4.342210100032389,,,043,00,2025-02-04_14h36.40.862,Surprise recog test,2023.1.3,59.95246968304407,
93,0,93,0,,,,,,,,,,,,,,,,,,,,,,,,,,,,,,,,,,766.047616399941,767.0644757999107,764.992393799941,764.992393799941,764.992393799941,764.992393799941,old_stationery_20.png,94,1.0,1.058860000106506,,,043,00,2025-02-04_14h36.40.862,Surprise recog test,2023.1.3,59.95246968304407,
94,0,94,0,,,,,,,,,,,,,,,,,,,,,,,,,,,,,,,,,,770.2019715999486,771.2174741999479,767.0644757999107,767.0644757999107,767.0644757999107,767.0644757999107,old_sceneIn_19.png,95,4.0,3.133897399995476,,,043,00,2025-02-04_14h36.40.862,Surprise recog test,2023.1.3,59.95246968304407,
95,0,95,0,,,,,,,,,,,,,,,,,,,,,,,,,,,,,,,,,,772.397497799946,,771.2174741999479,771.2174741999479,771.2174741999479,771.2174741999479,old_sceneIn_18.png,96,4.0,1.1779624000191689,,,043,00,2025-02-04_14h36.40.862,Surprise recog test,2023.1.3,59.95246968304407,
96,0,96,0,,,,,,,,,,,,,,,,,,,,,,,,,,,,,,,,,,775.2342421999201,,773.4324562000111,773.4324562000111,773.4324562000111,773.4324562000111,new_sceneOut_49.png,97,3.0,1.803358000004664,,,043,00,2025-02-04_14h36.40.862,Surprise recog test,2023.1.3,59.95246968304407,
97,0,97,0,,,,,,,,,,,,,,,,,,,,,,,,,,,,,,,,,,779.1437729999889,780.1698828999652,776.2656171999406,776.2656171999406,776.2656171999406,776.2656171999406,new_sceneOut_19.png,98,4.0,2.879826199961826,,,043,00,2025-02-04_14h36.40.862,Surprise recog test,2023.1.3,59.95246968304407,
98,0,98,0,,,,,,,,,,,,,,,,,,,,,,,,,,,,,,,,,,782.4228342999704,,780.1698828999652,780.1698828999652,780.1698828999652,780.1698828999652,new_fruit_22.png,99,2.0,2.2554193000542,,,043,00,2025-02-04_14h36.40.862,Surprise recog test,2023.1.3,59.95246968304407,
99,0,99,0,,,,,,,,,,,,,,,,,,,,,,,,,,,,,,,,,,786.2576046999311,,783.4600009999704,783.4600009999704,783.4600009999704,783.4600009999704,new_sceneOut_39.png,100,4.0,2.8008424000581726,,,043,00,2025-02-04_14h36.40.862,Surprise recog test,2023.1.3,59.95246968304407,
100,0,100,0,,,,,,,,,,,,,,,,,,,,,,,,,,,,,,,,,,788.9364684999455,789.9590841999743,787.2929643999087,787.2929643999087,787.2929643999087,787.2929643999087,new_sceneIn_25.png,101,4.0,1.645401900052093,,,043,00,2025-02-04_14h36.40.862,Surprise recog test,2023.1.3,59.95246968304407,
101,0,101,0,,,,,,,,,,,,,,,,,,,,,,,,,,,,,,,,,,792.5443218,793.5490109999664,789.9590841999743,789.9590841999743,789.9590841999743,789.9590841999743,old_stationery_25.png,102,1.0,2.5869411999592558,,,043,00,2025-02-04_14h36.40.862,Surprise recog test,2023.1.3,59.95246968304407,
102,0,102,0,,,,,,,,,,,,,,,,,,,,,,,,,,,,,,,,,,797.7913707999978,798.819989599986,793.5490109999664,793.5490109999664,793.5490109999664,793.5490109999664,old_sceneOut_25.png,103,2.0,4.238468899973668,,,043,00,2025-02-04_14h36.40.862,Surprise recog test,2023.1.3,59.95246968304407,
103,0,103,0,,,,,,,,,,,,,,,,,,,,,,,,,,,,,,,,,,801.2030947000021,802.2243278999813,798.819989599986,798.819989599986,798.819989599986,798.819989599986,new_fruit_40.png,104,4.0,2.383298599976115,,,043,00,2025-02-04_14h36.40.862,Surprise recog test,2023.1.3,59.95246968304407,
104,0,104,0,,,,,,,,,,,,,,,,,,,,,,,,,,,,,,,,,,804.7859328999184,805.8082067999057,802.2243278999813,802.2243278999813,802.2243278999813,802.2243278999813,new_fruit_16.png,105,3.0,2.5651581999845803,,,043,00,2025-02-04_14h36.40.862,Surprise recog test,2023.1.3,59.95246968304407,
105,0,105,0,,,,,,,,,,,,,,,,,,,,,,,,,,,,,,,,,,807.6754526000004,,805.8082067999057,805.8082067999057,805.8082067999057,805.8082067999057,new_stationery_3.png,106,2.0,1.8692954999860376,,,043,00,2025-02-04_14h36.40.862,Surprise recog test,2023.1.3,59.95246968304407,
106,0,106,0,,,,,,,,,,,,,,,,,,,,,,,,,,,,,,,,,,810.2997794999974,811.3305646999506,808.7103719000006,808.7103719000006,808.7103719000006,808.7103719000006,new_sceneIn_23.png,107,2.0,1.5914548999862745,,,043,00,2025-02-04_14h36.40.862,Surprise recog test,2023.1.3,59.95246968304407,
107,0,107,0,,,,,,,,,,,,,,,,,,,,,,,,,,,,,,,,,,813.1182756999042,814.1440061999019,811.3305646999506,811.3305646999506,811.3305646999506,811.3305646999506,new_sceneOut_28.png,108,4.0,1.7905032000271603,,,043,00,2025-02-04_14h36.40.862,Surprise recog test,2023.1.3,59.95246968304407,
108,0,108,0,,,,,,,,,,,,,,,,,,,,,,,,,,,,,,,,,,816.2304542999482,817.2523775999434,814.1440061999019,814.1440061999019,814.1440061999019,814.1440061999019,new_fruit_21.png,109,2.0,2.087779200053774,,,043,00,2025-02-04_14h36.40.862,Surprise recog test,2023.1.3,59.95246968304407,
109,0,109,0,,,,,,,,,,,,,,,,,,,,,,,,,,,,,,,,,,819.1364288999466,,817.2523775999434,817.2523775999434,817.2523775999434,817.2523775999434,new_stationery_42.png,110,2.0,1.886340199969709,,,043,00,2025-02-04_14h36.40.862,Surprise recog test,2023.1.3,59.95246968304407,
110,0,110,0,,,,,,,,,,,,,,,,,,,,,,,,,,,,,,,,,,822.2992824999383,823.3233033999568,820.1709505999461,820.1709505999461,820.1709505999461,820.1709505999461,old_sceneOut_48.png,111,5.0,2.1317348999436945,,,043,00,2025-02-04_14h36.40.862,Surprise recog test,2023.1.3,59.95246968304407,
111,0,111,0,,,,,,,,,,,,,,,,,,,,,,,,,,,,,,,,,,825.4104436999187,826.4362512999214,823.3233033999568,823.3233033999568,823.3233033999568,823.3233033999568,old_stationery_32.png,112,2.0,2.085861900006421,,,043,00,2025-02-04_14h36.40.862,Surprise recog test,2023.1.3,59.95246968304407,
112,0,112,0,,,,,,,,,,,,,,,,,,,,,,,,,,,,,,,,,,829.1071953999344,830.1293375999667,826.4362512999214,826.4362512999214,826.4362512999214,826.4362512999214,old_sceneOut_45.png,113,2.0,2.6723435999592766,,,043,00,2025-02-04_14h36.40.862,Surprise recog test,2023.1.3,59.95246968304407,
113,0,113,0,,,,,,,,,,,,,,,,,,,,,,,,,,,,,,,,,,832.2022672999883,833.2249096999876,830.1293375999667,830.1293375999667,830.1293375999667,830.1293375999667,old_stationery_14.png,114,4.0,2.0756680000340566,,,043,00,2025-02-04_14h36.40.862,Surprise recog test,2023.1.3,59.95246968304407,
114,0,114,0,,,,,,,,,,,,,,,,,,,,,,,,,,,,,,,,,,835.5630950999912,836.568500299938,833.2249096999876,833.2249096999876,833.2249096999876,833.2249096999876,new_sceneOut_20.png,115,5.0,2.3338452000170946,,,043,00,2025-02-04_14h36.40.862,Surprise recog test,2023.1.3,59.95246968304407,
115,0,115,0,,,,,,,,,,,,,,,,,,,,,,,,,,,,,,,,,,837.581388499937,838.5900238999166,836.568500299938,836.568500299938,836.568500299938,836.568500299938,new_sceneIn_38.png,116,5.0,1.0037096999585629,,,043,00,2025-02-04_14h36.40.862,Surprise recog test,2023.1.3,59.95246968304407,
116,0,116,0,,,,,,,,,,,,,,,,,,,,,,,,,,,,,,,,,,841.3011804999551,842.3060457999818,838.5900238999166,838.5900238999166,838.5900238999166,838.5900238999166,old_sceneOut_9.png,117,3.0,2.703811899991706,,,043,00,2025-02-04_14h36.40.862,Surprise recog test,2023.1.3,59.95246968304407,
117,0,117,0,,,,,,,,,,,,,,,,,,,,,,,,,,,,,,,,,,844.3369855999481,845.3422704999102,842.3060457999818,842.3060457999818,842.3060457999818,842.3060457999818,old_fruit_19.png,118,1.0,2.022238800069317,,,043,00,2025-02-04_14h36.40.862,Surprise recog test,2023.1.3,59.95246968304407,
118,0,118,0,,,,,,,,,,,,,,,,,,,,,,,,,,,,,,,,,,847.4730012000073,848.477951799985,845.3422704999102,845.3422704999102,845.3422704999102,845.3422704999102,old_sceneOut_47.png,119,4.0,2.122504399972968,,,043,00,2025-02-04_14h36.40.862,Surprise recog test,2023.1.3,59.95246968304407,
119,0,119,0,,,,,,,,,,,,,,,,,,,,,,,,,,,,,,,,,,850.2085289999377,851.2150110999355,848.477951799985,848.477951799985,848.477951799985,848.477951799985,old_stationery_11.png,120,1.0,1.7213149999734014,,,043,00,2025-02-04_14h36.40.862,Surprise recog test,2023.1.3,59.95246968304407,
120,0,120,0,,,,,,,,,,,,,,,,,,,,,,,,,,,,,,,,,,853.5112886999268,854.5163569999859,851.2150110999355,851.2150110999355,851.2150110999355,851.2150110999355,new_fruit_3.png,121,2.0,2.2877592999720946,,,043,00,2025-02-04_14h36.40.862,Surprise recog test,2023.1.3,59.95246968304407,
121,0,121,0,,,,,,,,,,,,,,,,,,,,,,,,,,,,,,,,,,856.530514699989,857.5357341999188,854.5163569999859,854.5163569999859,854.5163569999859,854.5163569999859,old_fruit_43.png,122,4.0,2.0044101000530645,,,043,00,2025-02-04_14h36.40.862,Surprise recog test,2023.1.3,59.95246968304407,
122,0,122,0,,,,,,,,,,,,,,,,,,,,,,,,,,,,,,,,,,860.1835725998972,861.1890191999264,857.5357341999188,857.5357341999188,857.5357341999188,857.5357341999188,old_sceneOut_34.png,123,3.0,2.6380042999517173,,,043,00,2025-02-04_14h36.40.862,Surprise recog test,2023.1.3,59.95246968304407,
123,0,123,0,,,,,,,,,,,,,,,,,,,,,,,,,,,,,,,,,,863.0692560999887,864.0742838999722,861.1890191999264,861.1890191999264,861.1890191999264,861.1890191999264,old_sceneOut_35.png,124,2.0,1.8715048000449315,,,043,00,2025-02-04_14h36.40.862,Surprise recog test,2023.1.3,59.95246968304407,
124,0,124,0,,,,,,,,,,,,,,,,,,,,,,,,,,,,,,,,,,866.7390309999464,867.744328700006,864.0742838999722,864.0742838999722,864.0742838999722,864.0742838999722,old_sceneIn_17.png,125,4.0,2.6548320000292733,,,043,00,2025-02-04_14h36.40.862,Surprise recog test,2023.1.3,59.95246968304407,
125,0,125,0,,,,,,,,,,,,,,,,,,,,,,,,,,,,,,,,,,869.624730499927,870.6292341999942,867.744328700006,867.744328700006,867.744328700006,867.744328700006,old_sceneIn_41.png,126,4.0,1.8706904000137001,,,043,00,2025-02-04_14h36.40.862,Surprise recog test,2023.1.3,59.95246968304407,
126,0,126,0,,,,,,,,,,,,,,,,,,,,,,,,,,,,,,,,,,872.6104859999614,873.6150509999134,870.6292341999942,870.6292341999942,870.6292341999942,870.6292341999942,old_fruit_11.png,127,1.0,1.9713888999540359,,,043,00,2025-02-04_14h36.40.862,Surprise recog test,2023.1.3,59.95246968304407,
127,0,127,0,,,,,,,,,,,,,,,,,,,,,,,,,,,,,,,,,,875.7464805999771,876.7519627999282,873.6150509999134,873.6150509999134,873.6150509999134,873.6150509999134,new_fruit_33.png,128,4.0,2.1215099999681115,,,043,00,2025-02-04_14h36.40.862,Surprise recog test,2023.1.3,59.95246968304407,
128,0,128,0,,,,,,,,,,,,,,,,,,,,,,,,,,,,,,,,,,878.6156435000012,879.6204369999468,876.7519627999282,876.7519627999282,876.7519627999282,876.7519627999282,old_sceneOut_44.png,129,3.0,1.8548842000309378,,,043,00,2025-02-04_14h36.40.862,Surprise recog test,2023.1.3,59.95246968304407,
129,0,129,0,,,,,,,,,,,,,,,,,,,,,,,,,,,,,,,,,,881.5846396998968,882.590194499935,879.6204369999468,879.6204369999468,879.6204369999468,879.6204369999468,new_fruit_47.png,130,3.0,1.9557258000131696,,,043,00,2025-02-04_14h36.40.862,Surprise recog test,2023.1.3,59.95246968304407,
130,0,130,0,,,,,,,,,,,,,,,,,,,,,,,,,,,,,,,,,,884.235642899992,885.2658255998977,882.590194499935,882.590194499935,882.590194499935,882.590194499935,old_sceneOut_49.png,131,3.0,1.6417107000015676,,,043,00,2025-02-04_14h36.40.862,Surprise recog test,2023.1.3,59.95246968304407,
131,0,131,0,,,,,,,,,,,,,,,,,,,,,,,,,,,,,,,,,,888.2066461999202,889.2270302999532,885.2658255998977,885.2658255998977,885.2658255998977,885.2658255998977,old_sceneIn_37.png,132,4.0,2.9445317001082003,,,043,00,2025-02-04_14h36.40.862,Surprise recog test,2023.1.3,59.95246968304407,
132,0,132,0,,,,,,,,,,,,,,,,,,,,,,,,,,,,,,,,,,891.9898359999061,893.0102798999287,889.2270302999532,889.2270302999532,889.2270302999532,889.2270302999532,new_sceneIn_24.png,133,5.0,2.7649467999581248,,,043,00,2025-02-04_14h36.40.862,Surprise recog test,2023.1.3,59.95246968304407,
133,0,133,0,,,,,,,,,,,,,,,,,,,,,,,,,,,,,,,,,,895.8379956999561,896.8564119999064,893.0102798999287,893.0102798999287,893.0102798999287,893.0102798999287,old_sceneOut_36.png,134,4.0,2.8299124999903142,,,043,00,2025-02-04_14h36.40.862,Surprise recog test,2023.1.3,59.95246968304407,
134,0,134,0,,,,,,,,,,,,,,,,,,,,,,,,,,,,,,,,,,898.578278800007,899.592643299955,896.8564119999064,896.8564119999064,896.8564119999064,896.8564119999064,new_sceneIn_40.png,135,4.0,1.7157340999692678,,,043,00,2025-02-04_14h36.40.862,Surprise recog test,2023.1.3,59.95246968304407,
135,0,135,0,,,,,,,,,,,,,,,,,,,,,,,,,,,,,,,,,,901.6354796999367,902.6555677999277,899.592643299955,899.592643299955,899.592643299955,899.592643299955,new_sceneOut_21.png,136,3.0,2.0389525999780744,,,043,00,2025-02-04_14h36.40.862,Surprise recog test,2023.1.3,59.95246968304407,
136,0,136,0,,,,,,,,,,,,,,,,,,,,,,,,,,,,,,,,,,904.3497764999047,905.3596213998972,902.6555677999277,902.6555677999277,902.6555677999277,902.6555677999277,old_sceneOut_20.png,137,3.0,1.6972958999685943,,,043,00,2025-02-04_14h36.40.862,Surprise recog test,2023.1.3,59.95246968304407,
137,0,137,0,,,,,,,,,,,,,,,,,,,,,,,,,,,,,,,,,,906.6890298000071,907.7074650999857,905.3596213998972,905.3596213998972,905.3596213998972,905.3596213998972,new_sceneOut_29.png,138,3.0,1.3216229999670759,,,043,00,2025-02-04_14h36.40.862,Surprise recog test,2023.1.3,59.95246968304407,
138,0,138,0,,,,,,,,,,,,,,,,,,,,,,,,,,,,,,,,,,910.4950687999371,,907.7074650999857,907.7074650999857,907.7074650999857,907.7074650999857,new_fruit_19.png,139,1.0,2.789267100044526,,,043,00,2025-02-04_14h36.40.862,Surprise recog test,2023.1.3,59.95246968304407,
139,0,139,0,,,,,,,,,,,,,,,,,,,,,,,,,,,,,,,,,,913.0204579998972,914.0421913999598,911.5193197999615,911.5193197999615,911.5193197999615,911.5193197999615,new_sceneIn_5.png,140,4.0,1.4999442000407726,,,043,00,2025-02-04_14h36.40.862,Surprise recog test,2023.1.3,59.95246968304407,
140,0,140,0,,,,,,,,,,,,,,,,,,,,,,,,,,,,,,,,,,915.6300550999586,916.6468875999562,914.0421913999598,914.0421913999598,914.0421913999598,914.0421913999598,old_sceneOut_4.png,141,4.0,1.5862966999411583,,,043,00,2025-02-04_14h36.40.862,Surprise recog test,2023.1.3,59.95246968304407,
141,0,141,0,,,,,,,,,,,,,,,,,,,,,,,,,,,,,,,,,,918.3453905999195,919.3674362999154,916.6468875999562,916.6468875999562,916.6468875999562,916.6468875999562,new_sceneIn_43.png,142,4.0,1.6992488999385387,,,043,00,2025-02-04_14h36.40.862,Surprise recog test,2023.1.3,59.95246968304407,
142,0,142,0,,,,,,,,,,,,,,,,,,,,,,,,,,,,,,,,,,921.9142336999066,922.9390877999831,919.3674362999154,919.3674362999154,919.3674362999154,919.3674362999154,old_sceneOut_40.png,143,4.0,2.5491229000035673,,,043,00,2025-02-04_14h36.40.862,Surprise recog test,2023.1.3,59.95246968304407,
143,0,143,0,,,,,,,,,,,,,,,,,,,,,,,,,,,,,,,,,,925.1043013999006,926.1265756000066,922.9390877999831,922.9390877999831,922.9390877999831,922.9390877999831,old_stationery_6.png,144,1.0,2.1614659000188112,,,043,00,2025-02-04_14h36.40.862,Surprise recog test,2023.1.3,59.95246968304407,
144,0,144,0,,,,,,,,,,,,,,,,,,,,,,,,,,,,,,,,,,928.7529328999808,929.7655864999397,926.1265756000066,926.1265756000066,926.1265756000066,926.1265756000066,new_stationery_25.png,145,3.0,2.628168400027789,,,043,00,2025-02-04_14h36.40.862,Surprise recog test,2023.1.3,59.95246968304407,
145,0,145,0,,,,,,,,,,,,,,,,,,,,,,,,,,,,,,,,,,931.7519794999389,932.7643409000011,929.7655864999397,929.7655864999397,929.7655864999397,929.7655864999397,new_stationery_43.png,146,4.0,1.9783343999879435,,,043,00,2025-02-04_14h36.40.862,Surprise recog test,2023.1.3,59.95246968304407,
146,0,146,0,,,,,,,,,,,,,,,,,,,,,,,,,,,,,,,,,,934.7458408999955,935.7542995999102,932.7643409000011,932.7643409000011,932.7643409000011,932.7643409000011,new_stationery_12.png,147,2.0,1.9771195000503212,,,043,00,2025-02-04_14h36.40.862,Surprise recog test,2023.1.3,59.95246968304407,
147,0,147,0,,,,,,,,,,,,,,,,,,,,,,,,,,,,,,,,,,938.3679025999736,,935.7542995999102,935.7542995999102,935.7542995999102,935.7542995999102,old_sceneIn_47.png,148,5.0,2.6056814999319613,,,043,00,2025-02-04_14h36.40.862,Surprise recog test,2023.1.3,59.95246968304407,
148,0,148,0,,,,,,,,,,,,,,,,,,,,,,,,,,,,,,,,,,940.842491599964,941.8718741999473,939.402773299953,939.402773299953,939.402773299953,939.402773299953,new_sceneOut_32.png,149,5.0,1.4404256999259815,,,043,00,2025-02-04_14h36.40.862,Surprise recog test,2023.1.3,59.95246968304407,
149,0,149,0,,,,,,,,,,,,,,,,,,,,,,,,,,,,,,,,,,943.933249099995,944.9587214000057,941.8718741999473,941.8718741999473,941.8718741999473,941.8718741999473,old_sceneOut_46.png,150,4.0,2.0636670000385493,,,043,00,2025-02-04_14h36.40.862,Surprise recog test,2023.1.3,59.95246968304407,
150,0,150,0,,,,,,,,,,,,,,,,,,,,,,,,,,,,,,,,,,946.3078213999979,,944.9587214000057,944.9587214000057,944.9587214000057,944.9587214000057,old_sceneIn_3.png,151,4.0,1.3528195000253618,,,043,00,2025-02-04_14h36.40.862,Surprise recog test,2023.1.3,59.95246968304407,
151,0,151,0,,,,,,,,,,,,,,,,,,,,,,,,,,,,,,,,,,948.4163711000001,949.4316353999311,947.3441088999389,947.3441088999389,947.3441088999389,947.3441088999389,new_sceneOut_42.png,152,4.0,1.0750989000080153,,,043,00,2025-02-04_14h36.40.862,Surprise recog test,2023.1.3,59.95246968304407,
152,0,152,0,,,,,,,,,,,,,,,,,,,,,,,,,,,,,,,,,,951.7466914999532,,949.4316353999311,949.4316353999311,949.4316353999311,949.4316353999311,old_fruit_47.png,153,2.0,2.311193599947728,,,043,00,2025-02-04_14h36.40.862,Surprise recog test,2023.1.3,59.95246968304407,
153,0,153,0,,,,,,,,,,,,,,,,,,,,,,,,,,,,,,,,,,956.2744077999378,957.2924109000014,952.7720378999365,952.7720378999365,952.7720378999365,952.7720378999365,new_sceneOut_16.png,154,4.0,3.5006463000318035,,,043,00,2025-02-04_14h36.40.862,Surprise recog test,2023.1.3,59.95246968304407,
154,0,154,0,,,,,,,,,,,,,,,,,,,,,,,,,,,,,,,,,,959.0196003000019,,957.2924109000014,957.2924109000014,957.2924109000014,957.2924109000014,new_stationery_34.png,155,1.0,1.725365599966608,,,043,00,2025-02-04_14h36.40.862,Surprise recog test,2023.1.3,59.95246968304407,
155,0,155,0,,,,,,,,,,,,,,,,,,,,,,,,,,,,,,,,,,962.5308534000069,963.5439024999505,960.0399285999592,960.0399285999592,960.0399285999592,960.0399285999592,new_stationery_19.png,156,3.0,2.4870381000218913,,,043,00,2025-02-04_14h36.40.862,Surprise recog test,2023.1.3,59.95246968304407,
156,0,156,0,,,,,,,,,,,,,,,,,,,,,,,,,,,,,,,,,,965.8534556999803,966.862748399959,963.5439024999505,963.5439024999505,963.5439024999505,963.5439024999505,new_fruit_29.png,157,1.0,2.304748499998823,,,043,00,2025-02-04_14h36.40.862,Surprise recog test,2023.1.3,59.95246968304407,
157,0,157,0,,,,,,,,,,,,,,,,,,,,,,,,,,,,,,,,,,968.8990016999887,969.9191224999959,966.862748399959,966.862748399959,966.862748399959,966.862748399959,old_sceneIn_10.png,158,4.0,2.032085800077766,,,043,00,2025-02-04_14h36.40.862,Surprise recog test,2023.1.3,59.95246968304407,
158,0,158,0,,,,,,,,,,,,,,,,,,,,,,,,,,,,,,,,,,971.6431609999854,972.6609980999492,969.9191224999959,969.9191224999959,969.9191224999959,969.9191224999959,old_stationery_39.png,159,1.0,1.723559300065972,,,043,00,2025-02-04_14h36.40.862,Surprise recog test,2023.1.3,59.95246968304407,
159,0,159,0,,,,,,,,,,,,,,,,,,,,,,,,,,,,,,,,,,974.4318537999643,,972.6609980999492,972.6609980999492,972.6609980999492,972.6609980999492,new_sceneIn_18.png,160,4.0,1.7713404999813065,,,043,00,2025-02-04_14h36.40.862,Surprise recog test,2023.1.3,59.95246968304407,
160,0,160,0,,,,,,,,,,,,,,,,,,,,,,,,,,,,,,,,,,976.5372678999556,977.554883099976,975.4532055999152,975.4532055999152,975.4532055999152,975.4532055999152,new_sceneIn_41.png,161,4.0,1.07958950009197,,,043,00,2025-02-04_14h36.40.862,Surprise recog test,2023.1.3,59.95246968304407,
161,0,161,0,,,,,,,,,,,,,,,,,,,,,,,,,,,,,,,,,,979.3218532999745,980.3536867999937,977.554883099976,977.554883099976,977.554883099976,977.554883099976,old_sceneIn_42.png,162,4.0,1.7630272000096738,,,043,00,2025-02-04_14h36.40.862,Surprise recog test,2023.1.3,59.95246968304407,
162,0,162,0,,,,,,,,,,,,,,,,,,,,,,,,,,,,,,,,,,982.6412912999513,983.6699991999194,980.3536867999937,980.3536867999937,980.3536867999937,980.3536867999937,new_sceneIn_12.png,163,3.0,2.2872064999537542,,,043,00,2025-02-04_14h36.40.862,Surprise recog test,2023.1.3,59.95246968304407,
163,0,163,0,,,,,,,,,,,,,,,,,,,,,,,,,,,,,,,,,,986.0900075999089,987.0955660999753,983.6699991999194,983.6699991999194,983.6699991999194,983.6699991999194,new_fruit_5.png,164,2.0,2.4231882999883965,,,043,00,2025-02-04_14h36.40.862,Surprise recog test,2023.1.3,59.95246968304407,
164,0,164,0,,,,,,,,,,,,,,,,,,,,,,,,,,,,,,,,,,989.9645472998964,990.988677599933,987.0955660999753,987.0955660999753,987.0955660999753,987.0955660999753,new_stationery_1.png,165,1.0,2.8623114998918027,,,043,00,2025-02-04_14h36.40.862,Surprise recog test,2023.1.3,59.95246968304407,
165,0,165,0,,,,,,,,,,,,,,,,,,,,,,,,,,,,,,,,,,993.9106864999048,994.9372348999605,990.988677599933,990.988677599933,990.988677599933,990.988677599933,old_sceneOut_29.png,166,4.0,2.9219225000124425,,,043,00,2025-02-04_14h36.40.862,Surprise recog test,2023.1.3,59.95246968304407,
166,0,166,0,,,,,,,,,,,,,,,,,,,,,,,,,,,,,,,,,,996.3828948999289,,994.9372348999605,994.9372348999605,994.9372348999605,994.9372348999605,old_sceneIn_44.png,167,4.0,1.4496586000313982,,,043,00,2025-02-04_14h36.40.862,Surprise recog test,2023.1.3,59.95246968304407,
167,0,167,0,,,,,,,,,,,,,,,,,,,,,,,,,,,,,,,,,,999.4835237999214,1000.4921138999052,997.4203866999596,997.4203866999596,997.4203866999596,997.4203866999596,new_sceneIn_36.png,168,4.0,2.066363299963996,,,043,00,2025-02-04_14h36.40.862,Surprise recog test,2023.1.3,59.95246968304407,
168,0,168,0,,,,,,,,,,,,,,,,,,,,,,,,,,,,,,,,,,1003.7765839999774,1004.8073249999434,1000.4921138999052,1000.4921138999052,1000.4921138999052,1000.4921138999052,old_sceneOut_13.png,169,4.0,3.2819363999878988,,,043,00,2025-02-04_14h36.40.862,Surprise recog test,2023.1.3,59.95246968304407,
169,0,169,0,,,,,,,,,,,,,,,,,,,,,,,,,,,,,,,,,,1006.9103828999214,1007.9305099999765,1004.8073249999434,1004.8073249999434,1004.8073249999434,1004.8073249999434,new_sceneIn_37.png,170,3.0,2.10319180006627,,,043,00,2025-02-04_14h36.40.862,Surprise recog test,2023.1.3,59.95246968304407,
170,0,170,0,,,,,,,,,,,,,,,,,,,,,,,,,,,,,,,,,,1009.9485586999217,1010.9661813999992,1007.9305099999765,1007.9305099999765,1007.9305099999765,1007.9305099999765,old_stationery_38.png,171,2.0,2.013790800003335,,,043,00,2025-02-04_14h36.40.862,Surprise recog test,2023.1.3,59.95246968304407,
171,0,171,0,,,,,,,,,,,,,,,,,,,,,,,,,,,,,,,,,,1014.3096848999849,1015.3316016999306,1010.9661813999992,1010.9661813999992,1010.9661813999992,1010.9661813999992,new_sceneOut_37.png,172,4.0,3.3387613999657333,,,043,00,2025-02-04_14h36.40.862,Surprise recog test,2023.1.3,59.95246968304407,
172,0,172,0,,,,,,,,,,,,,,,,,,,,,,,,,,,,,,,,,,1017.6837791999569,,1015.3316016999306,1015.3316016999306,1015.3316016999306,1015.3316016999306,old_fruit_22.png,173,2.0,2.3558212999487296,,,043,00,2025-02-04_14h36.40.862,Surprise recog test,2023.1.3,59.95246968304407,
173,0,173,0,,,,,,,,,,,,,,,,,,,,,,,,,,,,,,,,,,1021.7361382999225,1022.7566764999647,1018.7184610000113,1018.7184610000113,1018.7184610000113,1018.7184610000113,new_sceneIn_42.png,174,5.0,3.0203350000083447,,,043,00,2025-02-04_14h36.40.862,Surprise recog test,2023.1.3,59.95246968304407,
174,0,174,0,,,,,,,,,,,,,,,,,,,,,,,,,,,,,,,,,,1026.9970320999855,1028.028158399975,1022.7566764999647,1022.7566764999647,1022.7566764999647,1022.7566764999647,old_fruit_35.png,175,3.0,4.243903600028716,,,043,00,2025-02-04_14h36.40.862,Surprise recog test,2023.1.3,59.95246968304407,
175,0,175,0,,,,,,,,,,,,,,,,,,,,,,,,,,,,,,,,,,1030.0409130000044,1031.0647536999313,1028.028158399975,1028.028158399975,1028.028158399975,1028.028158399975,old_fruit_25.png,176,3.0,2.013137500034645,,,043,00,2025-02-04_14h36.40.862,Surprise recog test,2023.1.3,59.95246968304407,
176,0,176,0,,,,,,,,,,,,,,,,,,,,,,,,,,,,,,,,,,1033.9238811999094,1034.936216400005,1031.0647536999313,1031.0647536999313,1031.0647536999313,1031.0647536999313,new_sceneIn_4.png,177,5.0,2.8628701000707224,,,043,00,2025-02-04_14h36.40.862,Surprise recog test,2023.1.3,59.95246968304407,
177,0,177,0,,,,,,,,,,,,,,,,,,,,,,,,,,,,,,,,,,1037.4441889999434,1038.453412599978,1034.936216400005,1034.936216400005,1034.936216400005,1034.936216400005,old_stationery_44.png,178,1.0,2.503433300065808,,,043,00,2025-02-04_14h36.40.862,Surprise recog test,2023.1.3,59.95246968304407,
178,0,178,0,,,,,,,,,,,,,,,,,,,,,,,,,,,,,,,,,,1040.7385947000002,1041.759193399921,1038.453412599978,1038.453412599978,1038.453412599978,1038.453412599978,new_sceneOut_47.png,179,4.0,2.282350800000131,,,043,00,2025-02-04_14h36.40.862,Surprise recog test,2023.1.3,59.95246968304407,
179,0,179,0,,,,,,,,,,,,,,,,,,,,,,,,,,,,,,,,,,1043.9585409999127,1044.9909956000047,1041.759193399921,1041.759193399921,1041.759193399921,1041.759193399921,new_sceneOut_27.png,180,5.0,2.195649900007993,,,043,00,2025-02-04_14h36.40.862,Surprise recog test,2023.1.3,59.95246968304407,
180,0,180,0,,,,,,,,,,,,,,,,,,,,,,,,,,,,,,,,,,1047.2535383999348,1048.2816529999254,1044.9909956000047,1044.9909956000047,1044.9909956000047,1044.9909956000047,new_fruit_6.png,181,4.0,2.263857700047083,,,043,00,2025-02-04_14h36.40.862,Surprise recog test,2023.1.3,59.95246968304407,
181,0,181,0,,,,,,,,,,,,,,,,,,,,,,,,,,,,,,,,,,1050.3279144999105,,1048.2816529999254,1048.2816529999254,1048.2816529999254,1048.2816529999254,old_stationery_8.png,182,1.0,2.04997849999927,,,043,00,2025-02-04_14h36.40.862,Surprise recog test,2023.1.3,59.95246968304407,
182,0,182,0,,,,,,,,,,,,,,,,,,,,,,,,,,,,,,,,,,1052.4910734998994,1053.4996599999722,1051.3491194999078,1051.3491194999078,1051.3491194999078,1051.3491194999078,new_fruit_17.png,183,1.0,1.1380091999890283,,,043,00,2025-02-04_14h36.40.862,Surprise recog test,2023.1.3,59.95246968304407,
183,0,183,0,,,,,,,,,,,,,,,,,,,,,,,,,,,,,,,,,,1056.0008800999494,,1053.4996599999722,1053.4996599999722,1053.4996599999722,1053.4996599999722,new_sceneOut_5.png,184,4.0,2.4958371999673545,,,043,00,2025-02-04_14h36.40.862,Surprise recog test,2023.1.3,59.95246968304407,
184,0,184,0,,,,,,,,,,,,,,,,,,,,,,,,,,,,,,,,,,1059.0775692999596,1060.0991104999557,1057.028582299943,1057.028582299943,1057.028582299943,1057.028582299943,new_sceneOut_45.png,185,5.0,2.0475704999407753,,,043,00,2025-02-04_14h36.40.862,Surprise recog test,2023.1.3,59.95246968304407,
185,0,185,0,,,,,,,,,,,,,,,,,,,,,,,,,,,,,,,,,,1062.6011551999254,1063.6068729999242,1060.0991104999557,1060.0991104999557,1060.0991104999557,1060.0991104999557,old_sceneIn_28.png,186,3.0,2.500328900059685,,,043,00,2025-02-04_14h36.40.862,Surprise recog test,2023.1.3,59.95246968304407,
186,0,186,0,,,,,,,,,,,,,,,,,,,,,,,,,,,,,,,,,,1065.5398289998993,,1063.6068729999242,1063.6068729999242,1063.6068729999242,1063.6068729999242,old_sceneIn_13.png,187,4.0,1.926902599981986,,,043,00,2025-02-04_14h36.40.862,Surprise recog test,2023.1.3,59.95246968304407,
187,0,187,0,,,,,,,,,,,,,,,,,,,,,,,,,,,,,,,,,,1068.1176434999797,1069.137832999928,1066.5680179999908,1066.5680179999908,1066.5680179999908,1066.5680179999908,new_sceneIn_7.png,188,5.0,1.543711300007999,,,043,00,2025-02-04_14h36.40.862,Surprise recog test,2023.1.3,59.95246968304407,
188,0,188,0,,,,,,,,,,,,,,,,,,,,,,,,,,,,,,,,,,1070.3492679999908,1071.366989400005,1069.137832999928,1069.137832999928,1069.137832999928,1069.137832999928,old_sceneOut_43.png,189,5.0,1.211801299941726,,,043,00,2025-02-04_14h36.40.862,Surprise recog test,2023.1.3,59.95246968304407,
189,0,189,0,,,,,,,,,,,,,,,,,,,,,,,,,,,,,,,,,,1073.6524535999633,1074.6704089998966,1071.366989400005,1071.366989400005,1071.366989400005,1071.366989400005,old_fruit_40.png,190,1.0,2.2789265000028536,,,043,00,2025-02-04_14h36.40.862,Surprise recog test,2023.1.3,59.95246968304407,
190,0,190,0,,,,,,,,,,,,,,,,,,,,,,,,,,,,,,,,,,1076.5608273999533,1077.5720896999119,1074.6704089998966,1074.6704089998966,1074.6704089998966,1074.6704089998966,old_fruit_28.png,191,2.0,1.8865855999756604,,,043,00,2025-02-04_14h36.40.862,Surprise recog test,2023.1.3,59.95246968304407,
191,0,191,0,,,,,,,,,,,,,,,,,,,,,,,,,,,,,,,,,,1080.010134399985,1081.035645899945,1077.5720896999119,1077.5720896999119,1077.5720896999119,1077.5720896999119,new_sceneOut_22.png,192,3.0,2.4321154000936076,,,043,00,2025-02-04_14h36.40.862,Surprise recog test,2023.1.3,59.95246968304407,
192,0,192,0,,,,,,,,,,,,,,,,,,,,,,,,,,,,,,,,,,1083.632921399898,1084.6546194999246,1081.035645899945,1081.035645899945,1081.035645899945,1081.035645899945,new_sceneOut_38.png,193,4.0,2.5984404000919312,,,043,00,2025-02-04_14h36.40.862,Surprise recog test,2023.1.3,59.95246968304407,
193,0,193,0,,,,,,,,,,,,,,,,,,,,,,,,,,,,,,,,,,1086.458322999999,,1084.6546194999246,1084.6546194999246,1084.6546194999246,1084.6546194999246,new_fruit_50.png,194,1.0,1.8016813999274746,,,043,00,2025-02-04_14h36.40.862,Surprise recog test,2023.1.3,59.95246968304407,
194,0,194,0,,,,,,,,,,,,,,,,,,,,,,,,,,,,,,,,,,1090.560133199906,1091.5775228999555,1087.489657899947,1087.489657899947,1087.489657899947,1087.489657899947,old_fruit_10.png,195,3.0,3.072639299905859,,,043,00,2025-02-04_14h36.40.862,Surprise recog test,2023.1.3,59.95246968304407,
195,0,195,0,,,,,,,,,,,,,,,,,,,,,,,,,,,,,,,,,,1093.1953771999106,1094.2145510999253,1091.5775228999555,1091.5775228999555,1091.5775228999555,1091.5775228999555,new_fruit_26.png,196,2.0,1.6193408999824896,,,043,00,2025-02-04_14h36.40.862,Surprise recog test,2023.1.3,59.95246968304407,
196,0,196,0,,,,,,,,,,,,,,,,,,,,,,,,,,,,,,,,,,1096.9477413999848,1097.9702246999368,1094.2145510999253,1094.2145510999253,1094.2145510999253,1094.2145510999253,new_sceneIn_11.png,197,3.0,2.735461500007659,,,043,00,2025-02-04_14h36.40.862,Surprise recog test,2023.1.3,59.95246968304407,
197,0,197,0,,,,,,,,,,,,,,,,,,,,,,,,,,,,,,,,,,1100.032953399932,1101.0568274999969,1097.9702246999368,1097.9702246999368,1097.9702246999368,1097.9702246999368,old_sceneIn_26.png,198,5.0,2.0669969000155106,,,043,00,2025-02-04_14h36.40.862,Surprise recog test,2023.1.3,59.95246968304407,
198,0,198,0,,,,,,,,,,,,,,,,,,,,,,,,,,,,,,,,,,1102.24161919998,1103.2717195999576,1101.0568274999969,1101.0568274999969,1101.0568274999969,1101.0568274999969,new_sceneIn_1.png,199,5.0,1.1890299000078812,,,043,00,2025-02-04_14h36.40.862,Surprise recog test,2023.1.3,59.95246968304407,
199,0,199,0,,,,,,,,,,,,,,,,,,,,,,,,,,,,,,,,,,1105.564065799932,1106.5764587000012,1103.2717195999576,1103.2717195999576,1103.2717195999576,1103.2717195999576,new_sceneIn_19.png,200,4.0,2.2936015999875963,,,043,00,2025-02-04_14h36.40.862,Surprise recog test,2023.1.3,59.95246968304407,
200,0,200,0,,,,,,,,,,,,,,,,,,,,,,,,,,,,,,,,,,1108.2399270999013,1109.2588526000036,1106.5764587000012,1106.5764587000012,1106.5764587000012,1106.5764587000012,old_sceneOut_30.png,201,3.0,1.6557090999558568,,,043,00,2025-02-04_14h36.40.862,Surprise recog test,2023.1.3,59.95246968304407,
201,0,201,0,,,,,,,,,,,,,,,,,,,,,,,,,,,,,,,,,,1111.5855139999185,1112.601576999994,1109.2588526000036,1109.2588526000036,1109.2588526000036,1109.2588526000036,old_sceneOut_39.png,202,4.0,2.3265779999783263,,,043,00,2025-02-04_14h36.40.862,Surprise recog test,2023.1.3,59.95246968304407,
202,0,202,0,,,,,,,,,,,,,,,,,,,,,,,,,,,,,,,,,,1114.529457799974,1115.5369558999082,1112.601576999994,1112.601576999994,1112.601576999994,1112.601576999994,old_fruit_9.png,203,4.0,1.9236350000137463,,,043,00,2025-02-04_14h36.40.862,Surprise recog test,2023.1.3,59.95246968304407,
203,0,203,0,,,,,,,,,,,,,,,,,,,,,,,,,,,,,,,,,,1116.8672581999563,,1115.5369558999082,1115.5369558999082,1115.5369558999082,1115.5369558999082,new_fruit_34.png,204,4.0,1.326437999960035,,,043,00,2025-02-04_14h36.40.862,Surprise recog test,2023.1.3,59.95246968304407,
204,0,204,0,,,,,,,,,,,,,,,,,,,,,,,,,,,,,,,,,,1120.2133729999186,1121.224421699997,1117.897378499969,1117.897378499969,1117.897378499969,1117.897378499969,old_sceneIn_45.png,205,4.0,2.317395699908957,,,043,00,2025-02-04_14h36.40.862,Surprise recog test,2023.1.3,59.95246968304407,
205,0,205,0,,,,,,,,,,,,,,,,,,,,,,,,,,,,,,,,,,1122.6778736999258,1123.707090599928,1121.224421699997,1121.224421699997,1121.224421699997,1121.224421699997,new_sceneOut_3.png,206,4.0,1.4492342999437824,,,043,00,2025-02-04_14h36.40.862,Surprise recog test,2023.1.3,59.95246968304407,
206,0,206,0,,,,,,,,,,,,,,,,,,,,,,,,,,,,,,,,,,1126.0343187999679,1127.0429517999291,1123.707090599928,1123.707090599928,1123.707090599928,1123.707090599928,new_fruit_7.png,207,2.0,2.329770900076255,,,043,00,2025-02-04_14h36.40.862,Surprise recog test,2023.1.3,59.95246968304407,
207,0,207,0,,,,,,,,,,,,,,,,,,,,,,,,,,,,,,,,,,1128.8991458999226,1129.9271184999961,1127.0429517999291,1127.0429517999291,1127.0429517999291,1127.0429517999291,old_fruit_39.png,208,1.0,1.8493487000232562,,,043,00,2025-02-04_14h36.40.862,Surprise recog test,2023.1.3,59.95246968304407,
208,0,208,0,,,,,,,,,,,,,,,,,,,,,,,,,,,,,,,,,,1130.7504539999645,1131.7670202999143,1129.9271184999961,1129.9271184999961,1129.9271184999961,1129.9271184999961,new_stationery_17.png,209,1.0,0.8253584000049159,,,043,00,2025-02-04_14h36.40.862,Surprise recog test,2023.1.3,59.95246968304407,
209,0,209,0,,,,,,,,,,,,,,,,,,,,,,,,,,,,,,,,,,1132.6713051999686,1133.697232699953,1131.7670202999143,1131.7670202999143,1131.7670202999143,1131.7670202999143,old_fruit_44.png,210,1.0,0.9003820000216365,,,043,00,2025-02-04_14h36.40.862,Surprise recog test,2023.1.3,59.95246968304407,
210,0,210,0,,,,,,,,,,,,,,,,,,,,,,,,,,,,,,,,,,1134.9979014999699,,1133.697232699953,1133.697232699953,1133.697232699953,1133.697232699953,old_fruit_23.png,211,1.0,1.3029355999315158,,,043,00,2025-02-04_14h36.40.862,Surprise recog test,2023.1.3,59.95246968304407,
211,0,211,0,,,,,,,,,,,,,,,,,,,,,,,,,,,,,,,,,,1138.1933321999386,1139.2172349999892,1136.0334448999492,1136.0334448999492,1136.0334448999492,1136.0334448999492,new_sceneIn_48.png,212,4.0,2.1641911000479013,,,043,00,2025-02-04_14h36.40.862,Surprise recog test,2023.1.3,59.95246968304407,
212,0,212,0,,,,,,,,,,,,,,,,,,,,,,,,,,,,,,,,,,1142.7925874999491,1143.812668300001,1139.2172349999892,1139.2172349999892,1139.2172349999892,1139.2172349999892,new_stationery_4.png,213,1.0,3.5781072000972927,,,043,00,2025-02-04_14h36.40.862,Surprise recog test,2023.1.3,59.95246968304407,
213,0,213,0,,,,,,,,,,,,,,,,,,,,,,,,,,,,,,,,,,1145.9921123000095,,1143.812668300001,1143.812668300001,1143.812668300001,1143.812668300001,old_fruit_5.png,214,4.0,2.1779227000661194,,,043,00,2025-02-04_14h36.40.862,Surprise recog test,2023.1.3,59.95246968304407,
214,0,214,0,,,,,,,,,,,,,,,,,,,,,,,,,,,,,,,,,,1148.230461500003,1149.2647361999843,1147.0229438999668,1147.0229438999668,1147.0229438999668,1147.0229438999668,old_sceneOut_3.png,215,4.0,1.2065474999835715,,,043,00,2025-02-04_14h36.40.862,Surprise recog test,2023.1.3,59.95246968304407,
215,0,215,0,,,,,,,,,,,,,,,,,,,,,,,,,,,,,,,,,,1151.4176600999199,1152.4352543998975,1149.2647361999843,1149.2647361999843,1149.2647361999843,1149.2647361999843,new_fruit_36.png,216,2.0,2.15703320002649,,,043,00,2025-02-04_14h36.40.862,Surprise recog test,2023.1.3,59.95246968304407,
216,0,216,0,,,,,,,,,,,,,,,,,,,,,,,,,,,,,,,,,,1154.0460871999385,1155.0664231999544,1152.4352543998975,1152.4352543998975,1152.4352543998975,1152.4352543998975,new_sceneOut_2.png,217,2.0,1.606867800001055,,,043,00,2025-02-04_14h36.40.862,Surprise recog test,2023.1.3,59.95246968304407,
217,0,217,0,,,,,,,,,,,,,,,,,,,,,,,,,,,,,,,,,,1156.196490900009,1157.2062499999302,1155.0664231999544,1155.0664231999544,1155.0664231999544,1155.0664231999544,new_stationery_23.png,218,2.0,1.1295939000556245,,,043,00,2025-02-04_14h36.40.862,Surprise recog test,2023.1.3,59.95246968304407,
218,0,218,0,,,,,,,,,,,,,,,,,,,,,,,,,,,,,,,,,,1159.3509024999803,1160.36869319994,1157.2062499999302,1157.2062499999302,1157.2062499999302,1157.2062499999302,new_fruit_24.png,219,4.0,2.141845399979502,,,043,00,2025-02-04_14h36.40.862,Surprise recog test,2023.1.3,59.95246968304407,
219,0,219,0,,,,,,,,,,,,,,,,,,,,,,,,,,,,,,,,,,1161.9387507999782,,1160.36869319994,1160.36869319994,1160.36869319994,1160.36869319994,new_stationery_2.png,220,1.0,1.571578299975954,,,043,00,2025-02-04_14h36.40.862,Surprise recog test,2023.1.3,59.95246968304407,
220,0,220,0,,,,,,,,,,,,,,,,,,,,,,,,,,,,,,,,,,1164.8576942000072,,1162.973423999967,1162.973423999967,1162.973423999967,1162.973423999967,new_sceneIn_49.png,221,4.0,1.8857470999937505,,,043,00,2025-02-04_14h36.40.862,Surprise recog test,2023.1.3,59.95246968304407,
221,0,221,0,,,,,,,,,,,,,,,,,,,,,,,,,,,,,,,,,,1167.8901498999912,1168.9101382999215,1165.890401499928,1165.890401499928,1165.890401499928,1165.890401499928,new_fruit_45.png,222,2.0,1.9993903000140563,,,043,00,2025-02-04_14h36.40.862,Surprise recog test,2023.1.3,59.95246968304407,
222,0,222,0,,,,,,,,,,,,,,,,,,,,,,,,,,,,,,,,,,1170.6627362999134,,1168.9101382999215,1168.9101382999215,1168.9101382999215,1168.9101382999215,old_fruit_12.png,223,1.0,1.7539652999257669,,,043,00,2025-02-04_14h36.40.862,Surprise recog test,2023.1.3,59.95246968304407,
223,0,223,0,,,,,,,,,,,,,,,,,,,,,,,,,,,,,,,,,,1173.7141775999917,,1171.6907690999797,1171.6907690999797,1171.6907690999797,1171.6907690999797,new_sceneIn_10.png,224,3.0,2.022483899956569,,,043,00,2025-02-04_14h36.40.862,Surprise recog test,2023.1.3,59.95246968304407,
224,0,224,0,,,,,,,,,,,,,,,,,,,,,,,,,,,,,,,,,,1176.371986299986,1177.4010653999867,1174.7356300000101,1174.7356300000101,1174.7356300000101,1174.7356300000101,old_sceneIn_22.png,225,5.0,1.6325219999998808,,,043,00,2025-02-04_14h36.40.862,Surprise recog test,2023.1.3,59.95246968304407,
225,0,225,0,,,,,,,,,,,,,,,,,,,,,,,,,,,,,,,,,,1179.5808789998991,1180.5979034999618,1177.4010653999867,1177.4010653999867,1177.4010653999867,1177.4010653999867,old_fruit_13.png,226,3.0,2.1809592000208795,,,043,00,2025-02-04_14h36.40.862,Surprise recog test,2023.1.3,59.95246968304407,
226,0,226,0,,,,,,,,,,,,,,,,,,,,,,,,,,,,,,,,,,1182.874052900006,1183.8922759999987,1180.5979034999618,1180.5979034999618,1180.5979034999618,1180.5979034999618,old_stationery_40.png,227,1.0,2.278322899946943,,,043,00,2025-02-04_14h36.40.862,Surprise recog test,2023.1.3,59.95246968304407,
227,0,227,0,,,,,,,,,,,,,,,,,,,,,,,,,,,,,,,,,,1186.2509413999505,1187.266818300006,1183.8922759999987,1183.8922759999987,1183.8922759999987,1183.8922759999987,new_stationery_49.png,228,4.0,2.3525824999669567,,,043,00,2025-02-04_14h36.40.862,Surprise recog test,2023.1.3,59.95246968304407,
228,0,228,0,,,,,,,,,,,,,,,,,,,,,,,,,,,,,,,,,,1188.8519615998957,1189.876448999974,1187.266818300006,1187.266818300006,1187.266818300006,1187.266818300006,new_sceneIn_34.png,229,4.0,1.5856116000795737,,,043,00,2025-02-04_14h36.40.862,Surprise recog test,2023.1.3,59.95246968304407,
229,0,229,0,,,,,,,,,,,,,,,,,,,,,,,,,,,,,,,,,,1191.901711299899,1192.9301285999827,1189.876448999974,1189.876448999974,1189.876448999974,1189.876448999974,old_stationery_17.png,230,4.0,2.0273767000762746,,,043,00,2025-02-04_14h36.40.862,Surprise recog test,2023.1.3,59.95246968304407,
230,0,230,0,,,,,,,,,,,,,,,,,,,,,,,,,,,,,,,,,,1194.5018700999208,1195.5315237999894,1192.9301285999827,1192.9301285999827,1192.9301285999827,1192.9301285999827,new_sceneIn_29.png,231,5.0,1.5744275000179186,,,043,00,2025-02-04_14h36.40.862,Surprise recog test,2023.1.3,59.95246968304407,
231,0,231,0,,,,,,,,,,,,,,,,,,,,,,,,,,,,,,,,,,1197.5498609999195,,1195.5315237999894,1195.5315237999894,1195.5315237999894,1195.5315237999894,old_sceneIn_11.png,232,3.0,2.019449400017038,,,043,00,2025-02-04_14h36.40.862,Surprise recog test,2023.1.3,59.95246968304407,
232,0,232,0,,,,,,,,,,,,,,,,,,,,,,,,,,,,,,,,,,1200.1431982999202,1201.1692577999784,1198.5688686999492,1198.5688686999492,1198.5688686999492,1198.5688686999492,old_fruit_20.png,233,2.0,1.5702564000384882,,,043,00,2025-02-04_14h36.40.862,Surprise recog test,2023.1.3,59.95246968304407,
233,0,233,0,,,,,,,,,,,,,,,,,,,,,,,,,,,,,,,,,,1203.1188613999402,1204.1379683999112,1201.1692577999784,1201.1692577999784,1201.1692577999784,1201.1692577999784,new_fruit_1.png,234,1.0,1.9476709000300616,,,043,00,2025-02-04_14h36.40.862,Surprise recog test,2023.1.3,59.95246968304407,
234,0,234,0,,,,,,,,,,,,,,,,,,,,,,,,,,,,,,,,,,1207.210189400008,1208.2309025999857,1204.1379683999112,1204.1379683999112,1204.1379683999112,1204.1379683999112,old_sceneIn_8.png,235,4.0,3.0741761000826955,,,043,00,2025-02-04_14h36.40.862,Surprise recog test,2023.1.3,59.95246968304407,
235,0,235,0,,,,,,,,,,,,,,,,,,,,,,,,,,,,,,,,,,1210.2660803999752,1211.2951017000014,1208.2309025999857,1208.2309025999857,1208.2309025999857,1208.2309025999857,new_sceneOut_4.png,236,3.0,2.0292858999455348,,,043,00,2025-02-04_14h36.40.862,Surprise recog test,2023.1.3,59.95246968304407,
236,0,236,0,,,,,,,,,,,,,,,,,,,,,,,,,,,,,,,,,,1213.4014016999863,1214.4320979999611,1211.2951017000014,1211.2951017000014,1211.2951017000014,1211.2951017000014,old_sceneIn_6.png,237,1.0,2.1081855000229552,,,043,00,2025-02-04_14h36.40.862,Surprise recog test,2023.1.3,59.95246968304407,
237,0,237,0,,,,,,,,,,,,,,,,,,,,,,,,,,,,,,,,,,1217.33757470001,1218.3678246999625,1214.4320979999611,1214.4320979999611,1214.4320979999611,1214.4320979999611,new_fruit_41.png,238,4.0,2.9058060999959707,,,043,00,2025-02-04_14h36.40.862,Surprise recog test,2023.1.3,59.95246968304407,
238,0,238,0,,,,,,,,,,,,,,,,,,,,,,,,,,,,,,,,,,1220.211615499924,1221.239131799899,1218.3678246999625,1218.3678246999625,1218.3678246999625,1218.3678246999625,new_fruit_35.png,239,1.0,1.8457454000599682,,,043,00,2025-02-04_14h36.40.862,Surprise recog test,2023.1.3,59.95246968304407,
239,0,239,0,,,,,,,,,,,,,,,,,,,,,,,,,,,,,,,,,,1223.7359396999236,1224.7574976999313,1221.239131799899,1221.239131799899,1221.239131799899,1221.239131799899,old_sceneIn_12.png,240,3.0,2.4945937999291345,,,043,00,2025-02-04_14h36.40.862,Surprise recog test,2023.1.3,59.95246968304407,
240,0,240,0,,,,,,,,,,,,,,,,,,,,,,,,,,,,,,,,,,1226.3714903999353,1227.3876369999489,1224.7574976999313,1224.7574976999313,1224.7574976999313,1224.7574976999313,old_fruit_33.png,241,3.0,1.6095702000893652,,,043,00,2025-02-04_14h36.40.862,Surprise recog test,2023.1.3,59.95246968304407,
241,0,241,0,,,,,,,,,,,,,,,,,,,,,,,,,,,,,,,,,,1229.3945955999661,,1227.3876369999489,1227.3876369999489,1227.3876369999489,1227.3876369999489,old_stationery_23.png,242,4.0,2.0091510000638664,,,043,00,2025-02-04_14h36.40.862,Surprise recog test,2023.1.3,59.95246968304407,
242,0,242,0,,,,,,,,,,,,,,,,,,,,,,,,,,,,,,,,,,1232.0861480999738,1233.1030467000091,1230.4309011999285,1230.4309011999285,1230.4309011999285,1230.4309011999285,old_sceneOut_50.png,243,3.0,1.6584371000062674,,,043,00,2025-02-04_14h36.40.862,Surprise recog test,2023.1.3,59.95246968304407,
243,0,243,0,,,,,,,,,,,,,,,,,,,,,,,,,,,,,,,,,,1234.865731799975,,1233.1030467000091,1233.1030467000091,1233.1030467000091,1233.1030467000091,old_sceneIn_32.png,244,3.0,1.758683399995789,,,043,00,2025-02-04_14h36.40.862,Surprise recog test,2023.1.3,59.95246968304407,
244,0,244,0,,,,,,,,,,,,,,,,,,,,,,,,,,,,,,,,,,1237.9196504999418,1238.955365599948,1235.8993505999679,1235.8993505999679,1235.8993505999679,1235.8993505999679,old_fruit_42.png,245,2.0,2.0215216000797227,,,043,00,2025-02-04_14h36.40.862,Surprise recog test,2023.1.3,59.95246968304407,
245,0,245,0,,,,,,,,,,,,,,,,,,,,,,,,,,,,,,,,,,1241.0572176999412,1242.088701199973,1238.955365599948,1238.955365599948,1238.955365599948,1238.955365599948,old_sceneOut_7.png,246,3.0,2.1046911999583244,,,043,00,2025-02-04_14h36.40.862,Surprise recog test,2023.1.3,59.95246968304407,
246,0,246,0,,,,,,,,,,,,,,,,,,,,,,,,,,,,,,,,,,1243.7611602999968,1244.7875845999224,1242.088701199973,1242.088701199973,1242.088701199973,1242.088701199973,old_fruit_17.png,247,2.0,1.6728061999892816,,,043,00,2025-02-04_14h36.40.862,Surprise recog test,2023.1.3,59.95246968304407,
247,0,247,0,,,,,,,,,,,,,,,,,,,,,,,,,,,,,,,,,,1246.3705472999718,1247.389502899954,1244.7875845999224,1244.7875845999224,1244.7875845999224,1244.7875845999224,new_stationery_45.png,248,1.0,1.5801558000966907,,,043,00,2025-02-04_14h36.40.862,Surprise recog test,2023.1.3,59.95246968304407,
248,0,248,0,,,,,,,,,,,,,,,,,,,,,,,,,,,,,,,,,,1248.5097147999331,,1247.389502899954,1247.389502899954,1247.389502899954,1247.389502899954,old_sceneOut_28.png,249,1.0,1.1219002000289038,,,043,00,2025-02-04_14h36.40.862,Surprise recog test,2023.1.3,59.95246968304407,
249,0,249,0,,,,,,,,,,,,,,,,,,,,,,,,,,,,,,,,,,1251.5766082999762,1252.5980837999377,1249.540477899951,1249.540477899951,1249.540477899951,1249.540477899951,new_sceneOut_15.png,250,3.0,2.0345687000080943,,,043,00,2025-02-04_14h36.40.862,Surprise recog test,2023.1.3,59.95246968304407,
250,0,250,0,,,,,,,,,,,,,,,,,,,,,,,,,,,,,,,,,,1254.2687998999609,1255.2989287999226,1252.5980837999377,1252.5980837999377,1252.5980837999377,1252.5980837999377,new_stationery_48.png,251,5.0,1.673470100038685,,,043,00,2025-02-04_14h36.40.862,Surprise recog test,2023.1.3,59.95246968304407,
251,0,251,0,,,,,,,,,,,,,,,,,,,,,,,,,,,,,,,,,,1257.3220999999903,1258.3531359999906,1255.2989287999226,1255.2989287999226,1255.2989287999226,1255.2989287999226,old_sceneOut_18.png,252,4.0,2.0234330999664962,,,043,00,2025-02-04_14h36.40.862,Surprise recog test,2023.1.3,59.95246968304407,
252,0,252,0,,,,,,,,,,,,,,,,,,,,,,,,,,,,,,,,,,1261.2209265999263,,1258.3531359999906,1258.3531359999906,1258.3531359999906,1258.3531359999906,old_stationery_22.png,253,4.0,2.8709767999826,,,043,00,2025-02-04_14h36.40.862,Surprise recog test,2023.1.3,59.95246968304407,
253,0,253,0,,,,,,,,,,,,,,,,,,,,,,,,,,,,,,,,,,1263.5919206999242,1264.6199308999348,1262.2529498999938,1262.2529498999938,1262.2529498999938,1262.2529498999938,old_stationery_9.png,254,1.0,1.3373673999449238,,,043,00,2025-02-04_14h36.40.862,Surprise recog test,2023.1.3,59.95246968304407,
254,0,254,0,,,,,,,,,,,,,,,,,,,,,,,,,,,,,,,,,,1266.7499912999338,1267.775965699926,1264.6199308999348,1264.6199308999348,1264.6199308999348,1264.6199308999348,old_stationery_34.png,255,3.0,2.1288137999363244,,,043,00,2025-02-04_14h36.40.862,Surprise recog test,2023.1.3,59.95246968304407,
255,0,255,0,,,,,,,,,,,,,,,,,,,,,,,,,,,,,,,,,,1269.4295523999026,1270.463869899977,1267.775965699926,1267.775965699926,1267.775965699926,1267.775965699926,new_sceneIn_3.png,256,5.0,1.655151700018905,,,043,00,2025-02-04_14h36.40.862,Surprise recog test,2023.1.3,59.95246968304407,
256,0,256,0,,,,,,,,,,,,,,,,,,,,,,,,,,,,,,,,,,1272.1908532999223,1273.213990499964,1270.463869899977,1270.463869899977,1270.463869899977,1270.463869899977,old_fruit_4.png,257,3.0,1.7309288000687957,,,043,00,2025-02-04_14h36.40.862,Surprise recog test,2023.1.3,59.95246968304407,
257,0,257,0,,,,,,,,,,,,,,,,,,,,,,,,,,,,,,,,,,1274.7533272999572,1275.783215799951,1273.213990499964,1273.213990499964,1273.213990499964,1273.213990499964,new_stationery_22.png,258,1.0,1.5414595999754965,,,043,00,2025-02-04_14h36.40.862,Surprise recog test,2023.1.3,59.95246968304407,
258,0,258,0,,,,,,,,,,,,,,,,,,,,,,,,,,,,,,,,,,1277.3575568000088,1278.382802899927,1275.783215799951,1275.783215799951,1275.783215799951,1275.783215799951,new_sceneOut_33.png,259,3.0,1.5752980000106618,,,043,00,2025-02-04_14h36.40.862,Surprise recog test,2023.1.3,59.95246968304407,
259,0,259,0,,,,,,,,,,,,,,,,,,,,,,,,,,,,,,,,,,1280.0442767000059,1281.071551400004,1278.382802899927,1278.382802899927,1278.382802899927,1278.382802899927,old_fruit_8.png,260,1.0,1.6632265999214724,,,043,00,2025-02-04_14h36.40.862,Surprise recog test,2023.1.3,59.95246968304407,
260,0,260,0,,,,,,,,,,,,,,,,,,,,,,,,,,,,,,,,,,1282.9438017999055,1283.972333899932,1281.071551400004,1281.071551400004,1281.071551400004,1281.071551400004,new_stationery_39.png,261,4.0,1.8753267000429332,,,043,00,2025-02-04_14h36.40.862,Surprise recog test,2023.1.3,59.95246968304407,
261,0,261,0,,,,,,,,,,,,,,,,,,,,,,,,,,,,,,,,,,1285.8576732999645,,1283.972333899932,1283.972333899932,1283.972333899932,1283.972333899932,new_sceneOut_30.png,262,3.0,1.887427999987267,,,043,00,2025-02-04_14h36.40.862,Surprise recog test,2023.1.3,59.95246968304407,
262,0,262,0,,,,,,,,,,,,,,,,,,,,,,,,,,,,,,,,,,1289.2292359999847,1290.2598853999516,1286.8776194999227,1286.8776194999227,1286.8776194999227,1286.8776194999227,old_sceneOut_12.png,263,2.0,2.34918900008779,,,043,00,2025-02-04_14h36.40.862,Surprise recog test,2023.1.3,59.95246968304407,
263,0,263,0,,,,,,,,,,,,,,,,,,,,,,,,,,,,,,,,,,1292.2868777998956,1293.3147365999175,1290.2598853999516,1290.2598853999516,1290.2598853999516,1290.2598853999516,old_sceneOut_17.png,264,4.0,2.0279860999435186,,,043,00,2025-02-04_14h36.40.862,Surprise recog test,2023.1.3,59.95246968304407,
264,0,264,0,,,,,,,,,,,,,,,,,,,,,,,,,,,,,,,,,,1295.5129541999195,1296.5343722999096,1293.3147365999175,1293.3147365999175,1293.3147365999175,1293.3147365999175,old_sceneIn_29.png,265,5.0,2.199154600035399,,,043,00,2025-02-04_14h36.40.862,Surprise recog test,2023.1.3,59.95246968304407,
265,0,265,0,,,,,,,,,,,,,,,,,,,,,,,,,,,,,,,,,,1298.28438550001,,1296.5343722999096,1296.5343722999096,1296.5343722999096,1296.5343722999096,old_sceneOut_2.png,266,3.0,1.752698800060898,,,043,00,2025-02-04_14h36.40.862,Surprise recog test,2023.1.3,59.95246968304407,
266,0,266,0,,,,,,,,,,,,,,,,,,,,,,,,,,,,,,,,,,1300.7661548999604,1301.7806858000113,1299.3188558999682,1299.3188558999682,1299.3188558999682,1299.3188558999682,new_sceneOut_26.png,267,3.0,1.4496499999659136,,,043,00,2025-02-04_14h36.40.862,Surprise recog test,2023.1.3,59.95246968304407,
267,0,267,0,,,,,,,,,,,,,,,,,,,,,,,,,,,,,,,,,,1303.7925397999352,1304.824204799952,1301.7806858000113,1301.7806858000113,1301.7806858000113,1301.7806858000113,new_fruit_15.png,268,1.0,2.0127639999845996,,,043,00,2025-02-04_14h36.40.862,Surprise recog test,2023.1.3,59.95246968304407,
268,0,268,0,,,,,,,,,,,,,,,,,,,,,,,,,,,,,,,,,,1307.3610069999704,1308.3811172998976,1304.824204799952,1304.824204799952,1304.824204799952,1304.824204799952,new_fruit_20.png,269,3.0,2.538538800086826,,,043,00,2025-02-04_14h36.40.862,Surprise recog test,2023.1.3,59.95246968304407,
269,0,269,0,,,,,,,,,,,,,,,,,,,,,,,,,,,,,,,,,,1310.1932273999555,,1308.3811172998976,1308.3811172998976,1308.3811172998976,1308.3811172998976,new_fruit_2.png,270,3.0,1.8056694999104366,,,043,00,2025-02-04_14h36.40.862,Surprise recog test,2023.1.3,59.95246968304407,
270,0,270,0,,,,,,,,,,,,,,,,,,,,,,,,,,,,,,,,,,1312.954350899905,1313.9797689999687,1311.2156777000055,1311.2156777000055,1311.2156777000055,1311.2156777000055,new_stationery_5.png,271,4.0,1.7345532000763342,,,043,00,2025-02-04_14h36.40.862,Surprise recog test,2023.1.3,59.95246968304407,
271,0,271,0,,,,,,,,,,,,,,,,,,,,,,,,,,,,,,,,,,1315.4162697999272,,1313.9797689999687,1313.9797689999687,1313.9797689999687,1313.9797689999687,new_stationery_9.png,272,4.0,1.4355997000820935,,,043,00,2025-02-04_14h36.40.862,Surprise recog test,2023.1.3,59.95246968304407,
272,0,272,0,,,,,,,,,,,,,,,,,,,,,,,,,,,,,,,,,,1318.4007839999394,,1316.4481630999362,1316.4481630999362,1316.4481630999362,1316.4481630999362,new_fruit_42.png,273,3.0,1.9513949999818578,,,043,00,2025-02-04_14h36.40.862,Surprise recog test,2023.1.3,59.95246968304407,
273,0,273,0,,,,,,,,,,,,,,,,,,,,,,,,,,,,,,,,,,1322.5181851999369,1323.5467883999227,1319.4365286999382,1319.4365286999382,1319.4365286999382,1319.4365286999382,old_sceneOut_11.png,274,3.0,3.078760499949567,,,043,00,2025-02-04_14h36.40.862,Surprise recog test,2023.1.3,59.95246968304407,
274,0,274,0,,,,,,,,,,,,,,,,,,,,,,,,,,,,,,,,,,1325.9912953999592,,1323.5467883999227,1323.5467883999227,1323.5467883999227,1323.5467883999227,old_sceneIn_1.png,275,4.0,2.449072499992326,,,043,00,2025-02-04_14h36.40.862,Surprise recog test,2023.1.3,59.95246968304407,
275,0,275,0,,,,,,,,,,,,,,,,,,,,,,,,,,,,,,,,,,1329.7995543999132,1330.8277098999824,1327.0131786999991,1327.0131786999991,1327.0131786999991,1327.0131786999991,new_sceneIn_33.png,276,4.0,2.7836242000339553,,,043,00,2025-02-04_14h36.40.862,Surprise recog test,2023.1.3,59.95246968304407,
276,0,276,0,,,,,,,,,,,,,,,,,,,,,,,,,,,,,,,,,,1332.484539499972,1333.511765299947,1330.8277098999824,1330.8277098999824,1330.8277098999824,1330.8277098999824,new_fruit_48.png,277,3.0,1.6589715000009164,,,043,00,2025-02-04_14h36.40.862,Surprise recog test,2023.1.3,59.95246968304407,
277,0,277,0,,,,,,,,,,,,,,,,,,,,,,,,,,,,,,,,,,1335.5685661999742,1336.6047514999518,1333.511765299947,1333.511765299947,1333.511765299947,1333.511765299947,new_sceneIn_45.png,278,4.0,2.058653600048274,,,043,00,2025-02-04_14h36.40.862,Surprise recog test,2023.1.3,59.95246968304407,
278,0,278,0,,,,,,,,,,,,,,,,,,,,,,,,,,,,,,,,,,1339.1461099999724,1340.1569105999079,1336.6047514999518,1336.6047514999518,1336.6047514999518,1336.6047514999518,old_fruit_49.png,279,3.0,2.5443066000007093,,,043,00,2025-02-04_14h36.40.862,Surprise recog test,2023.1.3,59.95246968304407,
279,0,279,0,,,,,,,,,,,,,,,,,,,,,,,,,,,,,,,,,,1342.1003750999225,1343.1218565999297,1340.1569105999079,1340.1569105999079,1340.1569105999079,1340.1569105999079,old_sceneIn_20.png,280,3.0,1.9369640999939293,,,043,00,2025-02-04_14h36.40.862,Surprise recog test,2023.1.3,59.95246968304407,
280,0,280,0,,,,,,,,,,,,,,,,,,,,,,,,,,,,,,,,,,1345.9540547999786,1346.974678199971,1343.1218565999297,1343.1218565999297,1343.1218565999297,1343.1218565999297,old_fruit_45.png,281,5.0,2.832336400053464,,,043,00,2025-02-04_14h36.40.862,Surprise recog test,2023.1.3,59.95246968304407,
281,0,281,0,,,,,,,,,,,,,,,,,,,,,,,,,,,,,,,,,,1348.8390481999377,1349.867965499987,1346.974678199971,1346.974678199971,1346.974678199971,1346.974678199971,old_sceneIn_25.png,282,4.0,1.8666153999511153,,,043,00,2025-02-04_14h36.40.862,Surprise recog test,2023.1.3,59.95246968304407,
282,0,282,0,,,,,,,,,,,,,,,,,,,,,,,,,,,,,,,,,,1351.5764241999714,1352.596342899953,1349.867965499987,1349.867965499987,1349.867965499987,1349.867965499987,new_fruit_31.png,283,2.0,1.7102167999837548,,,043,00,2025-02-04_14h36.40.862,Surprise recog test,2023.1.3,59.95246968304407,
283,0,283,0,,,,,,,,,,,,,,,,,,,,,,,,,,,,,,,,,,1354.2241407999536,1355.235757599934,1352.596342899953,1352.596342899953,1352.596342899953,1352.596342899953,old_stationery_41.png,284,1.0,1.62658750009723,,,043,00,2025-02-04_14h36.40.862,Surprise recog test,2023.1.3,59.95246968304407,
284,0,284,0,,,,,,,,,,,,,,,,,,,,,,,,,,,,,,,,,,1357.0311801999342,1358.0512411999516,1355.235757599934,1355.235757599934,1355.235757599934,1355.235757599934,old_fruit_30.png,285,2.0,1.7887931999284774,,,043,00,2025-02-04_14h36.40.862,Surprise recog test,2023.1.3,59.95246968304407,
285,0,285,0,,,,,,,,,,,,,,,,,,,,,,,,,,,,,,,,,,1359.9380891999463,1360.9579692999832,1358.0512411999516,1358.0512411999516,1358.0512411999516,1358.0512411999516,new_sceneIn_16.png,286,3.0,1.8895766000496224,,,043,00,2025-02-04_14h36.40.862,Surprise recog test,2023.1.3,59.95246968304407,
286,0,286,0,,,,,,,,,,,,,,,,,,,,,,,,,,,,,,,,,,1362.936026499956,1363.956884299987,1360.9579692999832,1360.9579692999832,1360.9579692999832,1360.9579692999832,old_fruit_31.png,287,4.0,1.9739312999881804,,,043,00,2025-02-04_14h36.40.862,Surprise recog test,2023.1.3,59.95246968304407,
287,0,287,0,,,,,,,,,,,,,,,,,,,,,,,,,,,,,,,,,,1366.2472529999213,1367.2784311999567,1363.956884299987,1363.956884299987,1363.956884299987,1363.956884299987,new_stationery_33.png,288,3.0,2.2938874000683427,,,043,00,2025-02-04_14h36.40.862,Surprise recog test,2023.1.3,59.95246968304407,
288,0,288,0,,,,,,,,,,,,,,,,,,,,,,,,,,,,,,,,,,1369.061803599936,1370.0928863999434,1367.2784311999567,1367.2784311999567,1367.2784311999567,1367.2784311999567,old_fruit_37.png,289,3.0,1.7881426999811083,,,043,00,2025-02-04_14h36.40.862,Surprise recog test,2023.1.3,59.95246968304407,
289,0,289,0,,,,,,,,,,,,,,,,,,,,,,,,,,,,,,,,,,1372.2507177999942,1373.284486599965,1370.0928863999434,1370.0928863999434,1370.0928863999434,1370.0928863999434,new_sceneIn_2.png,290,3.0,2.160201600054279,,,043,00,2025-02-04_14h36.40.862,Surprise recog test,2023.1.3,59.95246968304407,
290,0,290,0,,,,,,,,,,,,,,,,,,,,,,,,,,,,,,,,,,1376.1019533999497,1377.127897099941,1373.284486599965,1373.284486599965,1373.284486599965,1373.284486599965,new_stationery_32.png,291,3.0,2.8227889999980107,,,043,00,2025-02-04_14h36.40.862,Surprise recog test,2023.1.3,59.95246968304407,
291,0,291,0,,,,,,,,,,,,,,,,,,,,,,,,,,,,,,,,,,1378.846269599977,1379.857074099942,1377.127897099941,1377.127897099941,1377.127897099941,1377.127897099941,old_stationery_31.png,292,1.0,1.719905599951744,,,043,00,2025-02-04_14h36.40.862,Surprise recog test,2023.1.3,59.95246968304407,
292,0,292,0,,,,,,,,,,,,,,,,,,,,,,,,,,,,,,,,,,1381.5696312999353,,1379.857074099942,1379.857074099942,1379.857074099942,1379.857074099942,old_fruit_21.png,293,2.0,1.7086240000789985,,,043,00,2025-02-04_14h36.40.862,Surprise recog test,2023.1.3,59.95246968304407,
293,0,293,0,,,,,,,,,,,,,,,,,,,,,,,,,,,,,,,,,,1384.56557649991,1385.5852272999473,1382.5921514999354,1382.5921514999354,1382.5921514999354,1382.5921514999354,new_stationery_38.png,294,3.0,1.9687284999527037,,,043,00,2025-02-04_14h36.40.862,Surprise recog test,2023.1.3,59.95246968304407,
294,0,294,0,,,,,,,,,,,,,,,,,,,,,,,,,,,,,,,,,,1388.2226162999868,1389.243615699932,1385.5852272999473,1385.5852272999473,1385.5852272999473,1385.5852272999473,old_fruit_34.png,295,2.0,2.634847000008449,,,043,00,2025-02-04_14h36.40.862,Surprise recog test,2023.1.3,59.95246968304407,
295,0,295,0,,,,,,,,,,,,,,,,,,,,,,,,,,,,,,,,,,1391.0049233000027,1392.0160465999506,1389.243615699932,1389.243615699932,1389.243615699932,1389.243615699932,new_sceneIn_26.png,296,4.0,1.7640002999687567,,,043,00,2025-02-04_14h36.40.862,Surprise recog test,2023.1.3,59.95246968304407,
296,0,296,0,,,,,,,,,,,,,,,,,,,,,,,,,,,,,,,,,,1393.9416753998958,1394.9653079999844,1392.0160465999506,1392.0160465999506,1392.0160465999506,1392.0160465999506,old_stationery_50.png,297,1.0,1.9218560999725014,,,043,00,2025-02-04_14h36.40.862,Surprise recog test,2023.1.3,59.95246968304407,
297,0,297,0,,,,,,,,,,,,,,,,,,,,,,,,,,,,,,,,,,1396.944409799995,1397.9522286999272,1394.9653079999844,1394.9653079999844,1394.9653079999844,1394.9653079999844,old_sceneIn_36.png,298,4.0,1.981655800016597,,,043,00,2025-02-04_14h36.40.862,Surprise recog test,2023.1.3,59.95246968304407,
298,0,298,0,,,,,,,,,,,,,,,,,,,,,,,,,,,,,,,,,,1399.0420020999154,1400.069638999994,1397.9522286999272,1397.9522286999272,1397.9522286999272,1397.9522286999272,old_sceneOut_38.png,299,4.0,1.087009400012903,,,043,00,2025-02-04_14h36.40.862,Surprise recog test,2023.1.3,59.95246968304407,
299,0,299,0,,,,,,,,,,,,,,,,,,,,,,,,,,,,,,,,,,1401.7507263999432,1402.7701342999935,1400.069638999994,1400.069638999994,1400.069638999994,1400.069638999994,new_sceneIn_14.png,300,4.0,1.6807910000206903,,,043,00,2025-02-04_14h36.40.862,Surprise recog test,2023.1.3,59.95246968304407,
300,0,300,0,,,,,,,,,,,,,,,,,,,,,,,,,,,,,,,,,,1404.3384352999274,,1402.7701342999935,1402.7701342999935,1402.7701342999935,1402.7701342999935,old_sceneOut_23.png,301,3.0,1.5676098000258207,,,043,00,2025-02-04_14h36.40.862,Surprise recog test,2023.1.3,59.95246968304407,
301,0,301,0,,,,,,,,,,,,,,,,,,,,,,,,,,,,,,,,,,1407.3413961000042,,1405.3609559999313,1405.3609559999313,1405.3609559999313,1405.3609559999313,old_fruit_32.png,302,3.0,1.9766447999281809,,,043,00,2025-02-04_14h36.40.862,Surprise recog test,2023.1.3,59.95246968304407,
302,0,302,0,,,,,,,,,,,,,,,,,,,,,,,,,,,,,,,,,,1409.8571025999263,1410.8660142999142,1408.3630962999305,1408.3630962999305,1408.3630962999305,1408.3630962999305,old_stationery_26.png,303,1.0,1.4898091999348253,,,043,00,2025-02-04_14h36.40.862,Surprise recog test,2023.1.3,59.95246968304407,
303,0,303,0,,,,,,,,,,,,,,,,,,,,,,,,,,,,,,,,,,1412.9618661999702,1413.968806299963,1410.8660142999142,1410.8660142999142,1410.8660142999142,1410.8660142999142,old_sceneOut_33.png,304,3.0,2.089521100046113,,,043,00,2025-02-04_14h36.40.862,Surprise recog test,2023.1.3,59.95246968304407,
304,0,304,0,,,,,,,,,,,,,,,,,,,,,,,,,,,,,,,,,,1415.4453872999875,1416.461571999942,1413.968806299963,1413.968806299963,1413.968806299963,1413.968806299963,old_fruit_6.png,305,3.0,1.4684597000014037,,,043,00,2025-02-04_14h36.40.862,Surprise recog test,2023.1.3,59.95246968304407,
305,0,305,0,,,,,,,,,,,,,,,,,,,,,,,,,,,,,,,,,,1418.5181945000077,,1416.461571999942,1416.461571999942,1416.461571999942,1416.461571999942,new_fruit_32.png,306,4.0,2.058125099982135,,,043,00,2025-02-04_14h36.40.862,Surprise recog test,2023.1.3,59.95246968304407,
306,0,306,0,,,,,,,,,,,,,,,,,,,,,,,,,,,,,,,,,,1421.7340114999097,1422.7525466999505,1419.53927389998,1419.53927389998,1419.53927389998,1419.53927389998,old_sceneOut_10.png,307,2.0,2.1910619999980554,,,043,00,2025-02-04_14h36.40.862,Surprise recog test,2023.1.3,59.95246968304407,
307,0,307,0,,,,,,,,,,,,,,,,,,,,,,,,,,,,,,,,,,1424.5041046999395,1425.5159946999047,1422.7525466999505,1422.7525466999505,1422.7525466999505,1422.7525466999505,old_stationery_35.png,308,2.0,1.7535046000266448,,,043,00,2025-02-04_14h36.40.862,Surprise recog test,2023.1.3,59.95246968304407,
308,0,308,0,,,,,,,,,,,,,,,,,,,,,,,,,,,,,,,,,,1426.930578499916,1427.946689400007,1425.5159946999047,1425.5159946999047,1425.5159946999047,1425.5159946999047,old_sceneOut_31.png,309,3.0,1.4152993999887258,,,043,00,2025-02-04_14h36.40.862,Surprise recog test,2023.1.3,59.95246968304407,
309,0,309,0,,,,,,,,,,,,,,,,,,,,,,,,,,,,,,,,,,1429.5663588999305,1430.579829699942,1427.946689400007,1427.946689400007,1427.946689400007,1427.946689400007,old_stationery_1.png,310,4.0,1.614941700012423,,,043,00,2025-02-04_14h36.40.862,Surprise recog test,2023.1.3,59.95246968304407,
310,0,310,0,,,,,,,,,,,,,,,,,,,,,,,,,,,,,,,,,,1432.0483890000032,1433.0682775999885,1430.579829699942,1430.579829699942,1430.579829699942,1430.579829699942,new_sceneIn_17.png,311,4.0,1.464645400061272,,,043,00,2025-02-04_14h36.40.862,Surprise recog test,2023.1.3,59.95246968304407,
311,0,311,0,,,,,,,,,,,,,,,,,,,,,,,,,,,,,,,,,,1435.6439232999692,1436.65035729995,1433.0682775999885,1433.0682775999885,1433.0682775999885,1433.0682775999885,new_stationery_41.png,312,5.0,2.571497399942018,,,043,00,2025-02-04_14h36.40.862,Surprise recog test,2023.1.3,59.95246968304407,
312,0,312,0,,,,,,,,,,,,,,,,,,,,,,,,,,,,,,,,,,1437.6812633000081,1438.7052302999655,1436.65035729995,1436.65035729995,1436.65035729995,1436.65035729995,old_sceneIn_50.png,313,5.0,1.0237028000410646,,,043,00,2025-02-04_14h36.40.862,Surprise recog test,2023.1.3,59.95246968304407,
313,0,313,0,,,,,,,,,,,,,,,,,,,,,,,,,,,,,,,,,,1440.845363499946,1441.8710829999764,1438.7052302999655,1438.7052302999655,1438.7052302999655,1438.7052302999655,old_sceneOut_16.png,314,4.0,2.144633400021121,,,043,00,2025-02-04_14h36.40.862,Surprise recog test,2023.1.3,59.95246968304407,
314,0,314,0,,,,,,,,,,,,,,,,,,,,,,,,,,,,,,,,,,1443.7914309999906,1444.8110121999634,1441.8710829999764,1441.8710829999764,1441.8710829999764,1441.8710829999764,old_stationery_16.png,315,4.0,1.9225562999490649,,,043,00,2025-02-04_14h36.40.862,Surprise recog test,2023.1.3,59.95246968304407,
315,0,315,0,,,,,,,,,,,,,,,,,,,,,,,,,,,,,,,,,,1446.621325199958,1447.6413417999865,1444.8110121999634,1444.8110121999634,1444.8110121999634,1444.8110121999634,new_stationery_8.png,316,4.0,1.799226599978283,,,043,00,2025-02-04_14h36.40.862,Surprise recog test,2023.1.3,59.95246968304407,
316,0,316,0,,,,,,,,,,,,,,,,,,,,,,,,,,,,,,,,,,1448.9256583999377,,1447.6413417999865,1447.6413417999865,1447.6413417999865,1447.6413417999865,old_sceneIn_24.png,317,4.0,1.2853383000474423,,,043,00,2025-02-04_14h36.40.862,Surprise recog test,2023.1.3,59.95246968304407,
317,0,317,0,,,,,,,,,,,,,,,,,,,,,,,,,,,,,,,,,,1451.6476600999013,1452.675916499924,1449.9586435999954,1449.9586435999954,1449.9586435999954,1449.9586435999954,old_fruit_26.png,318,4.0,1.6891918999608606,,,043,00,2025-02-04_14h36.40.862,Surprise recog test,2023.1.3,59.95246968304407,
318,0,318,0,,,,,,,,,,,,,,,,,,,,,,,,,,,,,,,,,,1454.215167599963,,1452.675916499924,1452.675916499924,1452.675916499924,1452.675916499924,new_stationery_18.png,319,1.0,1.5411867999937385,,,043,00,2025-02-04_14h36.40.862,Surprise recog test,2023.1.3,59.95246968304407,
319,0,319,0,,,,,,,,,,,,,,,,,,,,,,,,,,,,,,,,,,1456.8657114999369,,1455.2450959999114,1455.2450959999114,1455.2450959999114,1455.2450959999114,new_fruit_25.png,320,2.0,1.6224473000038415,,,043,00,2025-02-04_14h36.40.862,Surprise recog test,2023.1.3,59.95246968304407,
320,0,320,0,,,,,,,,,,,,,,,,,,,,,,,,,,,,,,,,,,1459.7154616999906,1460.734631099971,1457.8955037998967,1457.8955037998967,1457.8955037998967,1457.8955037998967,new_stationery_6.png,321,4.0,1.8183668999699876,,,043,00,2025-02-04_14h36.40.862,Surprise recog test,2023.1.3,59.95246968304407,
321,0,321,0,,,,,,,,,,,,,,,,,,,,,,,,,,,,,,,,,,1462.3511608999688,1463.3701730999164,1460.734631099971,1460.734631099971,1460.734631099971,1460.734631099971,new_sceneOut_48.png,322,3.0,1.6116386000066996,,,043,00,2025-02-04_14h36.40.862,Surprise recog test,2023.1.3,59.95246968304407,
322,0,322,0,,,,,,,,,,,,,,,,,,,,,,,,,,,,,,,,,,1465.2995775999734,1466.3242568999995,1463.3701730999164,1463.3701730999164,1463.3701730999164,1463.3701730999164,new_fruit_38.png,323,2.0,1.9284612000919878,,,043,00,2025-02-04_14h36.40.862,Surprise recog test,2023.1.3,59.95246968304407,
323,0,323,0,,,,,,,,,,,,,,,,,,,,,,,,,,,,,,,,,,1467.8933288999833,,1466.3242568999995,1466.3242568999995,1466.3242568999995,1466.3242568999995,new_fruit_39.png,324,3.0,1.5715106000425294,,,043,00,2025-02-04_14h36.40.862,Surprise recog test,2023.1.3,59.95246968304407,
324,0,324,0,,,,,,,,,,,,,,,,,,,,,,,,,,,,,,,,,,1470.2868123999797,1471.3141045999946,1468.9272719,1468.9272719,1468.9272719,1468.9272719,new_sceneIn_47.png,325,4.0,1.3593845000723377,,,043,00,2025-02-04_14h36.40.862,Surprise recog test,2023.1.3,59.95246968304407,
325,0,325,0,,,,,,,,,,,,,,,,,,,,,,,,,,,,,,,,,,1472.3439521999098,1473.3645680999616,1471.3141045999946,1471.3141045999946,1471.3141045999946,1471.3141045999946,new_sceneOut_1.png,326,4.0,1.03251689998433,,,043,00,2025-02-04_14h36.40.862,Surprise recog test,2023.1.3,59.95246968304407,
326,0,326,0,,,,,,,,,,,,,,,,,,,,,,,,,,,,,,,,,,1474.545119499904,1475.5493113999255,1473.3645680999616,1473.3645680999616,1473.3645680999616,1473.3645680999616,new_stationery_10.png,327,4.0,1.1837397000053898,,,043,00,2025-02-04_14h36.40.862,Surprise recog test,2023.1.3,59.95246968304407,
327,0,327,0,,,,,,,,,,,,,,,,,,,,,,,,,,,,,,,,,,1477.1207962000044,1478.1521020999644,1475.5493113999255,1475.5493113999255,1475.5493113999255,1475.5493113999255,new_sceneIn_13.png,328,3.0,1.5680414999369532,,,043,00,2025-02-04_14h36.40.862,Surprise recog test,2023.1.3,59.95246968304407,
328,0,328,0,,,,,,,,,,,,,,,,,,,,,,,,,,,,,,,,,,1479.2575817999896,1480.2863427998964,1478.1521020999644,1478.1521020999644,1478.1521020999644,1478.1521020999644,old_sceneOut_1.png,329,3.0,1.1057218000059947,,,043,00,2025-02-04_14h36.40.862,Surprise recog test,2023.1.3,59.95246968304407,
329,0,329,0,,,,,,,,,,,,,,,,,,,,,,,,,,,,,,,,,,1482.1049087999854,,1480.2863427998964,1480.2863427998964,1480.2863427998964,1480.2863427998964,new_sceneIn_20.png,330,4.0,1.8213346999837086,,,043,00,2025-02-04_14h36.40.862,Surprise recog test,2023.1.3,59.95246968304407,
330,0,330,0,,,,,,,,,,,,,,,,,,,,,,,,,,,,,,,,,,1484.0579634999158,1485.0764440000057,1483.1384964999743,1483.1384964999743,1483.1384964999743,1483.1384964999743,old_sceneIn_5.png,331,4.0,0.9216491000261158,,,043,00,2025-02-04_14h36.40.862,Surprise recog test,2023.1.3,59.95246968304407,
331,0,331,0,,,,,,,,,,,,,,,,,,,,,,,,,,,,,,,,,,1486.979150399915,1487.9969403999858,1485.0764440000057,1485.0764440000057,1485.0764440000057,1485.0764440000057,old_stationery_10.png,332,1.0,1.898568999953568,,,043,00,2025-02-04_14h36.40.862,Surprise recog test,2023.1.3,59.95246968304407,
332,0,332,0,,,,,,,,,,,,,,,,,,,,,,,,,,,,,,,,,,1489.2479222998954,1490.2761245999718,1487.9969403999858,1487.9969403999858,1487.9969403999858,1487.9969403999858,old_stationery_15.png,333,1.0,1.2451012000674382,,,043,00,2025-02-04_14h36.40.862,Surprise recog test,2023.1.3,59.95246968304407,
333,0,333,0,,,,,,,,,,,,,,,,,,,,,,,,,,,,,,,,,,1492.9427665999392,1493.9634382999502,1490.2761245999718,1490.2761245999718,1490.2761245999718,1490.2761245999718,new_fruit_49.png,334,2.0,2.6678451999323443,,,043,00,2025-02-04_14h36.40.862,Surprise recog test,2023.1.3,59.95246968304407,
334,0,334,0,,,,,,,,,,,,,,,,,,,,,,,,,,,,,,,,,,1495.7129044999601,1496.7196931999642,1493.9634382999502,1493.9634382999502,1493.9634382999502,1493.9634382999502,old_sceneOut_5.png,335,4.0,1.7529307999648154,,,043,00,2025-02-04_14h36.40.862,Surprise recog test,2023.1.3,59.95246968304407,
335,0,335,0,,,,,,,,,,,,,,,,,,,,,,,,,,,,,,,,,,1497.5670025999425,,1496.7196931999642,1496.7196931999642,1496.7196931999642,1496.7196931999642,new_sceneIn_50.png,336,4.0,0.8441856999415904,,,043,00,2025-02-04_14h36.40.862,Surprise recog test,2023.1.3,59.95246968304407,
336,0,336,0,,,,,,,,,,,,,,,,,,,,,,,,,,,,,,,,,,1499.9289725999115,1500.9490486999275,1498.601520499913,1498.601520499913,1498.601520499913,1498.601520499913,new_sceneIn_8.png,337,4.0,1.3299056000541896,,,043,00,2025-02-04_14h36.40.862,Surprise recog test,2023.1.3,59.95246968304407,
337,0,337,0,,,,,,,,,,,,,,,,,,,,,,,,,,,,,,,,,,1502.363128399942,1503.3733115999494,1500.9490486999275,1500.9490486999275,1500.9490486999275,1500.9490486999275,new_fruit_4.png,338,4.0,1.4142464000033215,,,043,00,2025-02-04_14h36.40.862,Surprise recog test,2023.1.3,59.95246968304407,
338,0,338,0,,,,,,,,,,,,,,,,,,,,,,,,,,,,,,,,,,1505.3364958999446,1506.3453118999023,1503.3733115999494,1503.3733115999494,1503.3733115999494,1503.3733115999494,old_stationery_47.png,339,1.0,1.9563531000167131,,,043,00,2025-02-04_14h36.40.862,Surprise recog test,2023.1.3,59.95246968304407,
339,0,339,0,,,,,,,,,,,,,,,,,,,,,,,,,,,,,,,,,,1507.3010790999979,1508.3253449999029,1506.3453118999023,1506.3453118999023,1506.3453118999023,1506.3453118999023,new_stationery_30.png,340,1.0,0.9519497000146657,,,043,00,2025-02-04_14h36.40.862,Surprise recog test,2023.1.3,59.95246968304407,
340,0,340,0,,,,,,,,,,,,,,,,,,,,,,,,,,,,,,,,,,1510.5476675999817,1511.5791936999885,1508.3253449999029,1508.3253449999029,1508.3253449999029,1508.3253449999029,new_sceneOut_8.png,341,3.0,2.2260199999436736,,,043,00,2025-02-04_14h36.40.862,Surprise recog test,2023.1.3,59.95246968304407,
341,0,341,0,,,,,,,,,,,,,,,,,,,,,,,,,,,,,,,,,,1514.0330233999994,1515.0531461999053,1511.5791936999885,1511.5791936999885,1511.5791936999885,1511.5791936999885,new_fruit_43.png,342,4.0,2.456759799970314,,,043,00,2025-02-04_14h36.40.862,Surprise recog test,2023.1.3,59.95246968304407,
342,0,342,0,,,,,,,,,,,,,,,,,,,,,,,,,,,,,,,,,,1516.7730471999384,1517.788072999916,1515.0531461999053,1515.0531461999053,1515.0531461999053,1515.0531461999053,new_fruit_8.png,343,2.0,1.7137646999908611,,,043,00,2025-02-04_14h36.40.862,Surprise recog test,2023.1.3,59.95246968304407,
343,0,343,0,,,,,,,,,,,,,,,,,,,,,,,,,,,,,,,,,,1519.7654483999358,1520.7858829000033,1517.788072999916,1517.788072999916,1517.788072999916,1517.788072999916,new_sceneOut_7.png,344,3.0,1.967357199988328,,,043,00,2025-02-04_14h36.40.862,Surprise recog test,2023.1.3,59.95246968304407,
344,0,344,0,,,,,,,,,,,,,,,,,,,,,,,,,,,,,,,,,,1521.8521419999888,1522.8696174999932,1520.7858829000033,1520.7858829000033,1520.7858829000033,1520.7858829000033,new_sceneOut_41.png,345,3.0,1.0676886999281123,,,043,00,2025-02-04_14h36.40.862,Surprise recog test,2023.1.3,59.95246968304407,
345,0,345,0,,,,,,,,,,,,,,,,,,,,,,,,,,,,,,,,,,1524.3074014999438,1525.33901659993,1522.8696174999932,1522.8696174999932,1522.8696174999932,1522.8696174999932,old_sceneIn_34.png,346,3.0,1.435640599927865,,,043,00,2025-02-04_14h36.40.862,Surprise recog test,2023.1.3,59.95246968304407,
346,0,346,0,,,,,,,,,,,,,,,,,,,,,,,,,,,,,,,,,,1526.7057885999093,1527.7211013999768,1525.33901659993,1525.33901659993,1525.33901659993,1525.33901659993,old_sceneOut_42.png,347,4.0,1.3693114999914542,,,043,00,2025-02-04_14h36.40.862,Surprise recog test,2023.1.3,59.95246968304407,
347,0,347,0,,,,,,,,,,,,,,,,,,,,,,,,,,,,,,,,,,1529.3233430999098,1530.3443709999556,1527.7211013999768,1527.7211013999768,1527.7211013999768,1527.7211013999768,new_fruit_14.png,348,3.0,1.5975723000010476,,,043,00,2025-02-04_14h36.40.862,Surprise recog test,2023.1.3,59.95246968304407,
348,0,348,0,,,,,,,,,,,,,,,,,,,,,,,,,,,,,,,,,,1531.4903463999508,1532.513430699939,1530.3443709999556,1530.3443709999556,1530.3443709999556,1530.3443709999556,old_sceneIn_14.png,349,3.0,1.1482449999311939,,,043,00,2025-02-04_14h36.40.862,Surprise recog test,2023.1.3,59.95246968304407,
349,0,349,0,,,,,,,,,,,,,,,,,,,,,,,,,,,,,,,,,,1534.2401234999998,1535.252832799917,1532.513430699939,1532.513430699939,1532.513430699939,1532.513430699939,old_fruit_18.png,350,1.0,1.7303789999568835,,,043,00,2025-02-04_14h36.40.862,Surprise recog test,2023.1.3,59.95246968304407,
350,0,350,0,,,,,,,,,,,,,,,,,,,,,,,,,,,,,,,,,,1536.7594183000037,1537.7822753000073,1535.252832799917,1535.252832799917,1535.252832799917,1535.252832799917,old_fruit_24.png,351,2.0,1.5022475000005215,,,043,00,2025-02-04_14h36.40.862,Surprise recog test,2023.1.3,59.95246968304407,
351,0,351,0,,,,,,,,,,,,,,,,,,,,,,,,,,,,,,,,,,1539.314997999929,1540.332003199961,1537.7822753000073,1537.7822753000073,1537.7822753000073,1537.7822753000073,old_stationery_4.png,352,1.0,1.5318146999925375,,,043,00,2025-02-04_14h36.40.862,Surprise recog test,2023.1.3,59.95246968304407,
352,0,352,0,,,,,,,,,,,,,,,,,,,,,,,,,,,,,,,,,,1542.013762599905,1543.027190499939,1540.332003199961,1540.332003199961,1540.332003199961,1540.332003199961,new_fruit_12.png,353,2.0,1.683619499905035,,,043,00,2025-02-04_14h36.40.862,Surprise recog test,2023.1.3,59.95246968304407,
