trial_loop.thisRepN,trial_loop.thisTrialN,trial_loop.thisN,trial_loop.thisIndex,VAS_slider.started,VAS_text.started,VAS_notstressed_text.started,VAS_stressed_text.started,continue_input.started,continue_text.started,label0.started,label10.started,label20.started,label30.started,label40.started,label50.started,label60.started,label70.started,label80.started,label90.started,label100.started,VAS_slider.response,VAS_slider.rt,VAS_slider.history,Answer_VAS,continue_input.keys,continue_input.rt,continue_input.duration,instruction_text.started,continue_text_2.started,continue_input_2.started,continue_input_2.keys,continue_input_2.rt,continue_input_2.duration,example_text.started,example_slider_2.started,example_image.started,example_slider_2.response,example_slider_2.rt,fixcross.started,fixcross.stopped,front_square.started,stim_images.started,trial_inst_images.started,slider_images.started,thisImg,trial_count,slider_images.response,slider_images.rt,slider_images.stopped,outro.started,participant,condition,date,expName,psychopyVersion,frameRate,
,,,,68.88565179996658,68.88565179996658,68.88565179996658,68.88565179996658,68.88565179996658,68.88565179996658,68.88565179996658,68.88565179996658,68.88565179996658,68.88565179996658,68.88565179996658,68.88565179996658,68.88565179996658,68.88565179996658,68.88565179996658,68.88565179996658,68.88565179996658,None,None,[],3.2399999999999998,space,13.655389999970794,None,,,,,,,,,,,,,,,,,,,,,,,,044,10,2025-04-08_14h34.10.006,Surprise recog test,2023.1.3,59.93080389716869,
,,,,,,,,,,,,,,,,,,,,,,,,,,,,82.60246809996897,82.60246809996897,82.60246809996897,space,10.570698100025766,None,,,,,,,,,,,,,,,,,,044,10,2025-04-08_14h34.10.006,Surprise recog test,2023.1.3,59.93080389716869,
0,0,0,0,,,,,,,,,,,,,,,,,,,,,,,,,,,,,,,93.3076560999616,93.3076560999616,93.3076560999616,5.0,3.16089420003118,99.49613889999455,100.51102749997517,97.41709879995324,97.41709879995324,97.41709879995324,97.41709879995324,old_sceneOut_20.png,1,3.0,2.0817337000044063,,,044,10,2025-04-08_14h34.10.006,Surprise recog test,2023.1.3,59.93080389716869,
1,0,1,0,,,,,,,,,,,,,,,,,,,,,,,,,,,,,,,,,,,,102.55368839995936,103.58164359995862,100.51102749997517,100.51102749997517,100.51102749997517,100.51102749997517,new_sceneIn_43.png,2,5.0,2.0429544000071473,,,044,10,2025-04-08_14h34.10.006,Surprise recog test,2023.1.3,59.93080389716869,
2,0,2,0,,,,,,,,,,,,,,,,,,,,,,,,,,,,,,,,,,,,106.92714899999555,107.95570519997273,103.58164359995862,103.58164359995862,103.58164359995862,103.58164359995862,old_fruit_12.png,3,3.0,3.3437045000027865,,,044,10,2025-04-08_14h34.10.006,Surprise recog test,2023.1.3,59.93080389716869,
3,0,3,0,,,,,,,,,,,,,,,,,,,,,,,,,,,,,,,,,,,,110.11057689995505,111.13765190000413,107.95570519997273,107.95570519997273,107.95570519997273,107.95570519997273,new_fruit_8.png,4,2.0,2.1579236999969,,,044,10,2025-04-08_14h34.10.006,Surprise recog test,2023.1.3,59.93080389716869,
4,0,4,0,,,,,,,,,,,,,,,,,,,,,,,,,,,,,,,,,,,,113.21596259996295,114.24216699996032,111.13765190000413,111.13765190000413,111.13765190000413,111.13765190000413,old_sceneIn_43.png,5,5.0,2.0776833999552764,,,044,10,2025-04-08_14h34.10.006,Surprise recog test,2023.1.3,59.93080389716869,
5,0,5,0,,,,,,,,,,,,,,,,,,,,,,,,,,,,,,,,,,,,116.61495749995811,117.63313390000258,114.24216699996032,114.24216699996032,114.24216699996032,114.24216699996032,new_sceneIn_35.png,6,5.0,2.3737141000456177,,,044,10,2025-04-08_14h34.10.006,Surprise recog test,2023.1.3,59.93080389716869,
6,0,6,0,,,,,,,,,,,,,,,,,,,,,,,,,,,,,,,,,,,,119.69495989999268,120.71738829999231,117.63313390000258,117.63313390000258,117.63313390000258,117.63313390000258,old_sceneIn_37.png,7,4.0,2.0569540999713354,,,044,10,2025-04-08_14h34.10.006,Surprise recog test,2023.1.3,59.93080389716869,
7,0,7,0,,,,,,,,,,,,,,,,,,,,,,,,,,,,,,,,,,,,122.9398137999815,123.96877729997505,120.71738829999231,120.71738829999231,120.71738829999231,120.71738829999231,old_stationery_28.png,8,2.0,2.225907699961681,,,044,10,2025-04-08_14h34.10.006,Surprise recog test,2023.1.3,59.93080389716869,
8,0,8,0,,,,,,,,,,,,,,,,,,,,,,,,,,,,,,,,,,,,126.45836389996111,127.48592149995966,123.96877729997505,123.96877729997505,123.96877729997505,123.96877729997505,old_stationery_37.png,9,1.0,2.4918082000222057,,,044,10,2025-04-08_14h34.10.006,Surprise recog test,2023.1.3,59.93080389716869,
9,0,9,0,,,,,,,,,,,,,,,,,,,,,,,,,,,,,,,,,,,,130.05503759998828,131.07305149995955,127.48592149995966,127.48592149995966,127.48592149995966,127.48592149995966,new_sceneIn_39.png,10,4.0,2.561241000017617,,,044,10,2025-04-08_14h34.10.006,Surprise recog test,2023.1.3,59.93080389716869,
10,0,10,0,,,,,,,,,,,,,,,,,,,,,,,,,,,,,,,,,,,,132.75974660000065,,131.07305149995955,131.07305149995955,131.07305149995955,131.07305149995955,new_stationery_31.png,11,4.0,1.6869956000009552,,,044,10,2025-04-08_14h34.10.006,Surprise recog test,2023.1.3,59.93080389716869,
11,0,11,0,,,,,,,,,,,,,,,,,,,,,,,,,,,,,,,,,,,,136.4169619999593,137.43738139997004,133.7890681999852,133.7890681999852,133.7890681999852,133.7890681999852,new_sceneIn_24.png,12,3.0,2.628931399958674,,,044,10,2025-04-08_14h34.10.006,Surprise recog test,2023.1.3,59.93080389716869,
12,0,12,0,,,,,,,,,,,,,,,,,,,,,,,,,,,,,,,,,,,,140.2398314999882,141.26729779999005,137.43738139997004,137.43738139997004,137.43738139997004,137.43738139997004,old_fruit_32.png,13,2.0,2.7999860999989323,,,044,10,2025-04-08_14h34.10.006,Surprise recog test,2023.1.3,59.93080389716869,
13,0,13,0,,,,,,,,,,,,,,,,,,,,,,,,,,,,,,,,,,,,143.06932349997805,,141.26729779999005,141.26729779999005,141.26729779999005,141.26729779999005,old_sceneOut_14.png,14,4.0,1.802366699965205,,,044,10,2025-04-08_14h34.10.006,Surprise recog test,2023.1.3,59.93080389716869,
14,0,14,0,,,,,,,,,,,,,,,,,,,,,,,,,,,,,,,,,,,,145.95168479997665,146.9712854999816,144.1083902999526,144.1083902999526,144.1083902999526,144.1083902999526,new_sceneIn_19.png,15,4.0,1.8457602999988012,,,044,10,2025-04-08_14h34.10.006,Surprise recog test,2023.1.3,59.93080389716869,
15,0,15,0,,,,,,,,,,,,,,,,,,,,,,,,,,,,,,,,,,,,149.97899059997872,151.00984600000083,146.9712854999816,146.9712854999816,146.9712854999816,146.9712854999816,old_sceneOut_43.png,16,3.0,3.0073280000360683,,,044,10,2025-04-08_14h34.10.006,Surprise recog test,2023.1.3,59.93080389716869,
16,0,16,0,,,,,,,,,,,,,,,,,,,,,,,,,,,,,,,,,,,,153.31529439997394,154.34485959995072,151.00984600000083,151.00984600000083,151.00984600000083,151.00984600000083,new_sceneOut_15.png,17,4.0,2.307251100020949,,,044,10,2025-04-08_14h34.10.006,Surprise recog test,2023.1.3,59.93080389716869,
17,0,17,0,,,,,,,,,,,,,,,,,,,,,,,,,,,,,,,,,,,,156.44720749999397,,154.34485959995072,154.34485959995072,154.34485959995072,154.34485959995072,new_fruit_27.png,18,2.0,2.106023499974981,,,044,10,2025-04-08_14h34.10.006,Surprise recog test,2023.1.3,59.93080389716869,
18,0,18,0,,,,,,,,,,,,,,,,,,,,,,,,,,,,,,,,,,,,160.0154999999795,,157.47507099999348,157.47507099999348,157.47507099999348,157.47507099999348,new_fruit_46.png,19,3.0,2.541289600019809,,,044,10,2025-04-08_14h34.10.006,Surprise recog test,2023.1.3,59.93080389716869,
19,0,19,0,,,,,,,,,,,,,,,,,,,,,,,,,,,,,,,,,,,,163.20084499998484,164.2203395999968,161.04110319999745,161.04110319999745,161.04110319999745,161.04110319999745,old_stationery_1.png,20,1.0,2.156709899951238,,,044,10,2025-04-08_14h34.10.006,Surprise recog test,2023.1.3,59.93080389716869,
20,0,20,0,,,,,,,,,,,,,,,,,,,,,,,,,,,,,,,,,,,,166.22288509999635,167.25402299995767,164.2203395999968,164.2203395999968,164.2203395999968,164.2203395999968,new_fruit_1.png,21,4.0,2.0054393999744207,,,044,10,2025-04-08_14h34.10.006,Surprise recog test,2023.1.3,59.93080389716869,
21,0,21,0,,,,,,,,,,,,,,,,,,,,,,,,,,,,,,,,,,,,169.62555799999973,,167.25402299995767,167.25402299995767,167.25402299995767,167.25402299995767,new_sceneOut_39.png,22,4.0,2.3725368000450544,,,044,10,2025-04-08_14h34.10.006,Surprise recog test,2023.1.3,59.93080389716869,
22,0,22,0,,,,,,,,,,,,,,,,,,,,,,,,,,,,,,,,,,,,173.51285599998664,174.54256729996996,170.66073699999833,170.66073699999833,170.66073699999833,170.66073699999833,new_sceneOut_7.png,23,5.0,2.855445699999109,,,044,10,2025-04-08_14h34.10.006,Surprise recog test,2023.1.3,59.93080389716869,
23,0,23,0,,,,,,,,,,,,,,,,,,,,,,,,,,,,,,,,,,,,176.6806982999551,,174.54256729996996,174.54256729996996,174.54256729996996,174.54256729996996,new_stationery_41.png,24,5.0,2.1392093999893405,,,044,10,2025-04-08_14h34.10.006,Surprise recog test,2023.1.3,59.93080389716869,
24,0,24,0,,,,,,,,,,,,,,,,,,,,,,,,,,,,,,,,,,,,179.83314229996176,,177.70649479998974,177.70649479998974,177.70649479998974,177.70649479998974,old_fruit_22.png,25,3.0,2.127983000013046,,,044,10,2025-04-08_14h34.10.006,Surprise recog test,2023.1.3,59.93080389716869,
25,0,25,0,,,,,,,,,,,,,,,,,,,,,,,,,,,,,,,,,,,,183.13661769998726,,180.86741679999977,180.86741679999977,180.86741679999977,180.86741679999977,old_sceneOut_24.png,26,4.0,2.2716588000184856,,,044,10,2025-04-08_14h34.10.006,Surprise recog test,2023.1.3,59.93080389716869,
26,0,26,0,,,,,,,,,,,,,,,,,,,,,,,,,,,,,,,,,,,,186.11652969999705,187.1397212999873,184.16883939999389,184.16883939999389,184.16883939999389,184.16883939999389,old_sceneIn_21.png,27,4.0,1.9495586999692023,,,044,10,2025-04-08_14h34.10.006,Surprise recog test,2023.1.3,59.93080389716869,
27,0,27,0,,,,,,,,,,,,,,,,,,,,,,,,,,,,,,,,,,,,188.94343709998066,189.97409049997805,187.1397212999873,187.1397212999873,187.1397212999873,187.1397212999873,old_sceneIn_39.png,28,4.0,1.8051241000066511,,,044,10,2025-04-08_14h34.10.006,Surprise recog test,2023.1.3,59.93080389716869,
28,0,28,0,,,,,,,,,,,,,,,,,,,,,,,,,,,,,,,,,,,,192.51666029996704,193.54846049996559,189.97409049997805,189.97409049997805,189.97409049997805,189.97409049997805,old_stationery_22.png,29,1.0,2.544789400009904,,,044,10,2025-04-08_14h34.10.006,Surprise recog test,2023.1.3,59.93080389716869,
29,0,29,0,,,,,,,,,,,,,,,,,,,,,,,,,,,,,,,,,,,,197.0930565999588,198.10560660000192,193.54846049996559,193.54846049996559,193.54846049996559,193.54846049996559,old_sceneIn_32.png,30,4.0,3.547189500008244,,,044,10,2025-04-08_14h34.10.006,Surprise recog test,2023.1.3,59.93080389716869,
30,0,30,0,,,,,,,,,,,,,,,,,,,,,,,,,,,,,,,,,,,,200.9417940999847,201.96249700000044,198.10560660000192,198.10560660000192,198.10560660000192,198.10560660000192,new_stationery_43.png,31,2.0,2.8346930000116117,,,044,10,2025-04-08_14h34.10.006,Surprise recog test,2023.1.3,59.93080389716869,
31,0,31,0,,,,,,,,,,,,,,,,,,,,,,,,,,,,,,,,,,,,203.91621309996117,204.93785899999784,201.96249700000044,201.96249700000044,201.96249700000044,201.96249700000044,old_stationery_7.png,32,1.0,1.951522599963937,,,044,10,2025-04-08_14h34.10.006,Surprise recog test,2023.1.3,59.93080389716869,
32,0,32,0,,,,,,,,,,,,,,,,,,,,,,,,,,,,,,,,,,,,209.50798199995188,,204.93785899999784,204.93785899999784,204.93785899999784,204.93785899999784,new_sceneIn_7.png,33,3.0,4.572979100048542,,,044,10,2025-04-08_14h34.10.006,Surprise recog test,2023.1.3,59.93080389716869,
33,0,33,0,,,,,,,,,,,,,,,,,,,,,,,,,,,,,,,,,,,,212.61174289998598,213.64212539995788,210.53840329998638,210.53840329998638,210.53840329998638,210.53840329998638,old_sceneOut_42.png,34,4.0,2.075753799988888,,,044,10,2025-04-08_14h34.10.006,Surprise recog test,2023.1.3,59.93080389716869,
34,0,34,0,,,,,,,,,,,,,,,,,,,,,,,,,,,,,,,,,,,,215.28711849998217,216.31245579995448,213.64212539995788,213.64212539995788,213.64212539995788,213.64212539995788,old_fruit_33.png,35,2.0,1.6422275999793783,,,044,10,2025-04-08_14h34.10.006,Surprise recog test,2023.1.3,59.93080389716869,
35,0,35,0,,,,,,,,,,,,,,,,,,,,,,,,,,,,,,,,,,,,218.42454929999076,219.44418249995215,216.31245579995448,216.31245579995448,216.31245579995448,216.31245579995448,new_sceneOut_34.png,36,4.0,2.1129138999967836,,,044,10,2025-04-08_14h34.10.006,Surprise recog test,2023.1.3,59.93080389716869,
36,0,36,0,,,,,,,,,,,,,,,,,,,,,,,,,,,,,,,,,,,,220.8283456999925,221.83884519996354,219.44418249995215,219.44418249995215,219.44418249995215,219.44418249995215,old_sceneOut_29.png,37,4.0,1.3843866000534035,,,044,10,2025-04-08_14h34.10.006,Surprise recog test,2023.1.3,59.93080389716869,
37,0,37,0,,,,,,,,,,,,,,,,,,,,,,,,,,,,,,,,,,,,223.9482911999803,224.97085819998756,221.83884519996354,221.83884519996354,221.83884519996354,221.83884519996354,old_fruit_3.png,38,2.0,2.105460299993865,,,044,10,2025-04-08_14h34.10.006,Surprise recog test,2023.1.3,59.93080389716869,
38,0,38,0,,,,,,,,,,,,,,,,,,,,,,,,,,,,,,,,,,,,227.30030319996877,228.30854389996966,224.97085819998756,224.97085819998756,224.97085819998756,224.97085819998756,new_sceneOut_47.png,39,4.0,2.3283700000029057,,,044,10,2025-04-08_14h34.10.006,Surprise recog test,2023.1.3,59.93080389716869,
39,0,39,0,,,,,,,,,,,,,,,,,,,,,,,,,,,,,,,,,,,,230.92991219996475,231.95925600000191,228.30854389996966,228.30854389996966,228.30854389996966,228.30854389996966,new_sceneIn_15.png,40,4.0,2.6178723000339232,,,044,10,2025-04-08_14h34.10.006,Surprise recog test,2023.1.3,59.93080389716869,
40,0,40,0,,,,,,,,,,,,,,,,,,,,,,,,,,,,,,,,,,,,233.86088019999443,,231.95925600000191,231.95925600000191,231.95925600000191,231.95925600000191,old_fruit_39.png,41,2.0,1.9044604999944568,,,044,10,2025-04-08_14h34.10.006,Surprise recog test,2023.1.3,59.93080389716869,
41,0,41,0,,,,,,,,,,,,,,,,,,,,,,,,,,,,,,,,,,,,237.1870624999865,238.20969409996178,234.8917268999503,234.8917268999503,234.8917268999503,234.8917268999503,new_sceneOut_5.png,42,4.0,2.2982835000148043,,,044,10,2025-04-08_14h34.10.006,Surprise recog test,2023.1.3,59.93080389716869,
42,0,42,0,,,,,,,,,,,,,,,,,,,,,,,,,,,,,,,,,,,,239.40812129998812,240.43387349997647,238.20969409996178,238.20969409996178,238.20969409996178,238.20969409996178,new_sceneOut_22.png,43,4.0,1.1963259999756701,,,044,10,2025-04-08_14h34.10.006,Surprise recog test,2023.1.3,59.93080389716869,
43,0,43,0,,,,,,,,,,,,,,,,,,,,,,,,,,,,,,,,,,,,243.08251149998978,244.10307650000323,240.43387349997647,240.43387349997647,240.43387349997647,240.43387349997647,new_fruit_38.png,44,3.0,2.6499726999900304,,,044,10,2025-04-08_14h34.10.006,Surprise recog test,2023.1.3,59.93080389716869,
44,0,44,0,,,,,,,,,,,,,,,,,,,,,,,,,,,,,,,,,,,,247.40697969996836,248.4391105999821,244.10307650000323,244.10307650000323,244.10307650000323,244.10307650000323,old_sceneOut_25.png,45,3.0,3.306166200025473,,,044,10,2025-04-08_14h34.10.006,Surprise recog test,2023.1.3,59.93080389716869,
45,0,45,0,,,,,,,,,,,,,,,,,,,,,,,,,,,,,,,,,,,,250.85931539995363,,248.4391105999821,248.4391105999821,248.4391105999821,248.4391105999821,new_fruit_26.png,46,2.0,2.423465400002897,,,044,10,2025-04-08_14h34.10.006,Surprise recog test,2023.1.3,59.93080389716869,
46,0,46,0,,,,,,,,,,,,,,,,,,,,,,,,,,,,,,,,,,,,253.87394209997728,254.89397969999118,251.8863714999752,251.8863714999752,251.8863714999752,251.8863714999752,new_sceneIn_5.png,47,4.0,1.988666400022339,,,044,10,2025-04-08_14h34.10.006,Surprise recog test,2023.1.3,59.93080389716869,
47,0,47,0,,,,,,,,,,,,,,,,,,,,,,,,,,,,,,,,,,,,256.93599789997097,257.9601364999544,254.89397969999118,254.89397969999118,254.89397969999118,254.89397969999118,new_fruit_33.png,48,3.0,2.04294180002762,,,044,10,2025-04-08_14h34.10.006,Surprise recog test,2023.1.3,59.93080389716869,
48,0,48,0,,,,,,,,,,,,,,,,,,,,,,,,,,,,,,,,,,,,260.300607299956,,257.9601364999544,257.9601364999544,257.9601364999544,257.9601364999544,old_stationery_6.png,49,1.0,2.3420028000255115,,,044,10,2025-04-08_14h34.10.006,Surprise recog test,2023.1.3,59.93080389716869,
49,0,49,0,,,,,,,,,,,,,,,,,,,,,,,,,,,,,,,,,,,,264.0663538999506,265.0760668999865,261.33804289996624,261.33804289996624,261.33804289996624,261.33804289996624,new_stationery_8.png,50,4.0,2.731991700013168,,,044,10,2025-04-08_14h34.10.006,Surprise recog test,2023.1.3,59.93080389716869,
50,0,50,0,,,,,,,,,,,,,,,,,,,,,,,,,,,,,,,,,,,,267.30930769996485,268.33550679998007,265.0760668999865,265.0760668999865,265.0760668999865,265.0760668999865,old_sceneOut_9.png,51,3.0,2.230606800003443,,,044,10,2025-04-08_14h34.10.006,Surprise recog test,2023.1.3,59.93080389716869,
51,0,51,0,,,,,,,,,,,,,,,,,,,,,,,,,,,,,,,,,,,,270.253771699965,271.2606493999483,268.33550679998007,268.33550679998007,268.33550679998007,268.33550679998007,new_sceneOut_29.png,52,4.0,1.9202629000064917,,,044,10,2025-04-08_14h34.10.006,Surprise recog test,2023.1.3,59.93080389716869,
52,0,52,0,,,,,,,,,,,,,,,,,,,,,,,,,,,,,,,,,,,,274.3123222999857,,271.2606493999483,271.2606493999483,271.2606493999483,271.2606493999483,new_stationery_40.png,53,5.0,3.047321300022304,,,044,10,2025-04-08_14h34.10.006,Surprise recog test,2023.1.3,59.93080389716869,
53,0,53,0,,,,,,,,,,,,,,,,,,,,,,,,,,,,,,,,,,,,277.3717032999848,278.39716880000196,275.3350182999857,275.3350182999857,275.3350182999857,275.3350182999857,new_sceneIn_42.png,54,4.0,2.0320071000023745,,,044,10,2025-04-08_14h34.10.006,Surprise recog test,2023.1.3,59.93080389716869,
54,0,54,0,,,,,,,,,,,,,,,,,,,,,,,,,,,,,,,,,,,,280.38448680000147,281.40252589999,278.39716880000196,278.39716880000196,278.39716880000196,278.39716880000196,old_fruit_47.png,55,2.0,1.9901372999884188,,,044,10,2025-04-08_14h34.10.006,Surprise recog test,2023.1.3,59.93080389716869,
55,0,55,0,,,,,,,,,,,,,,,,,,,,,,,,,,,,,,,,,,,,282.56824259995483,,281.40252589999,281.40252589999,281.40252589999,281.40252589999,old_fruit_21.png,56,2.0,1.1623929000343196,,,044,10,2025-04-08_14h34.10.006,Surprise recog test,2023.1.3,59.93080389716869,
56,0,56,0,,,,,,,,,,,,,,,,,,,,,,,,,,,,,,,,,,,,285.8955127999652,286.9214863999514,283.59369109995896,283.59369109995896,283.59369109995896,283.59369109995896,old_sceneIn_38.png,57,4.0,2.3017027999740094,,,044,10,2025-04-08_14h34.10.006,Surprise recog test,2023.1.3,59.93080389716869,
57,0,57,0,,,,,,,,,,,,,,,,,,,,,,,,,,,,,,,,,,,,289.14769219997106,290.16604729997925,286.9214863999514,286.9214863999514,286.9214863999514,286.9214863999514,new_fruit_49.png,58,1.0,2.2271004000212997,,,044,10,2025-04-08_14h34.10.006,Surprise recog test,2023.1.3,59.93080389716869,
58,0,58,0,,,,,,,,,,,,,,,,,,,,,,,,,,,,,,,,,,,,293.7074581999914,294.7291239000042,290.16604729997925,290.16604729997925,290.16604729997925,290.16604729997925,old_sceneIn_41.png,59,5.0,3.5399803000036627,,,044,10,2025-04-08_14h34.10.006,Surprise recog test,2023.1.3,59.93080389716869,
59,0,59,0,,,,,,,,,,,,,,,,,,,,,,,,,,,,,,,,,,,,296.55970949999755,297.57953210000414,294.7291239000042,294.7291239000042,294.7291239000042,294.7291239000042,old_fruit_25.png,60,3.0,1.831629200023599,,,044,10,2025-04-08_14h34.10.006,Surprise recog test,2023.1.3,59.93080389716869,
60,0,60,0,,,,,,,,,,,,,,,,,,,,,,,,,,,,,,,,,,,,299.28768339997623,300.3000140999793,297.57953210000414,297.57953210000414,297.57953210000414,297.57953210000414,new_stationery_20.png,61,3.0,1.7082028000149876,,,044,10,2025-04-08_14h34.10.006,Surprise recog test,2023.1.3,59.93080389716869,
61,0,61,0,,,,,,,,,,,,,,,,,,,,,,,,,,,,,,,,,,,,302.1309905999806,303.149797399994,300.3000140999793,300.3000140999793,300.3000140999793,300.3000140999793,old_sceneIn_35.png,62,4.0,1.8203491999884136,,,044,10,2025-04-08_14h34.10.006,Surprise recog test,2023.1.3,59.93080389716869,
62,0,62,0,,,,,,,,,,,,,,,,,,,,,,,,,,,,,,,,,,,,305.0554700999637,306.0891929999925,303.149797399994,303.149797399994,303.149797399994,303.149797399994,new_stationery_38.png,63,2.0,1.9064494000049308,,,044,10,2025-04-08_14h34.10.006,Surprise recog test,2023.1.3,59.93080389716869,
63,0,63,0,,,,,,,,,,,,,,,,,,,,,,,,,,,,,,,,,,,,308.12041469995165,309.1428253999911,306.0891929999925,306.0891929999925,306.0891929999925,306.0891929999925,new_fruit_30.png,64,3.0,2.03288449998945,,,044,10,2025-04-08_14h34.10.006,Surprise recog test,2023.1.3,59.93080389716869,
64,0,64,0,,,,,,,,,,,,,,,,,,,,,,,,,,,,,,,,,,,,311.5148508999846,312.53827269998146,309.1428253999911,309.1428253999911,309.1428253999911,309.1428253999911,new_sceneOut_25.png,65,4.0,2.3716308000148274,,,044,10,2025-04-08_14h34.10.006,Surprise recog test,2023.1.3,59.93080389716869,
65,0,65,0,,,,,,,,,,,,,,,,,,,,,,,,,,,,,,,,,,,,315.34883129998343,316.3792875999934,312.53827269998146,312.53827269998146,312.53827269998146,312.53827269998146,new_stationery_23.png,66,3.0,2.811616800026968,,,044,10,2025-04-08_14h34.10.006,Surprise recog test,2023.1.3,59.93080389716869,
66,0,66,0,,,,,,,,,,,,,,,,,,,,,,,,,,,,,,,,,,,,318.8783005999867,319.8995069999946,316.3792875999934,316.3792875999934,316.3792875999934,316.3792875999934,old_fruit_23.png,67,1.0,2.492934800044168,,,044,10,2025-04-08_14h34.10.006,Surprise recog test,2023.1.3,59.93080389716869,
67,0,67,0,,,,,,,,,,,,,,,,,,,,,,,,,,,,,,,,,,,,321.9642390999943,322.97683089994825,319.8995069999946,319.8995069999946,319.8995069999946,319.8995069999946,old_fruit_42.png,68,2.0,2.060084700002335,,,044,10,2025-04-08_14h34.10.006,Surprise recog test,2023.1.3,59.93080389716869,
68,0,68,0,,,,,,,,,,,,,,,,,,,,,,,,,,,,,,,,,,,,325.04979409999214,326.0715903999517,322.97683089994825,322.97683089994825,322.97683089994825,322.97683089994825,new_sceneIn_41.png,69,4.0,2.0735821000416763,,,044,10,2025-04-08_14h34.10.006,Surprise recog test,2023.1.3,59.93080389716869,
69,0,69,0,,,,,,,,,,,,,,,,,,,,,,,,,,,,,,,,,,,,327.3585850999807,328.3807095999946,326.0715903999517,326.0715903999517,326.0715903999517,326.0715903999517,new_sceneOut_6.png,70,4.0,1.2898854000377469,,,044,10,2025-04-08_14h34.10.006,Surprise recog test,2023.1.3,59.93080389716869,
70,0,70,0,,,,,,,,,,,,,,,,,,,,,,,,,,,,,,,,,,,,331.75387329998193,332.7753748999676,328.3807095999946,328.3807095999946,328.3807095999946,328.3807095999946,new_sceneOut_46.png,71,3.0,3.3707132000126876,,,044,10,2025-04-08_14h34.10.006,Surprise recog test,2023.1.3,59.93080389716869,
71,0,71,0,,,,,,,,,,,,,,,,,,,,,,,,,,,,,,,,,,,,335.81749200000195,336.8418993999949,332.7753748999676,332.7753748999676,332.7753748999676,332.7753748999676,old_fruit_43.png,72,2.0,3.044475300004706,,,044,10,2025-04-08_14h34.10.006,Surprise recog test,2023.1.3,59.93080389716869,
72,0,72,0,,,,,,,,,,,,,,,,,,,,,,,,,,,,,,,,,,,,339.9089360999642,340.9348112999578,336.8418993999949,336.8418993999949,336.8418993999949,336.8418993999949,new_sceneIn_25.png,73,4.0,3.0687343000317924,,,044,10,2025-04-08_14h34.10.006,Surprise recog test,2023.1.3,59.93080389716869,
73,0,73,0,,,,,,,,,,,,,,,,,,,,,,,,,,,,,,,,,,,,343.08341219997965,344.101868800004,340.9348112999578,340.9348112999578,340.9348112999578,340.9348112999578,old_sceneOut_41.png,74,3.0,2.151654100045562,,,044,10,2025-04-08_14h34.10.006,Surprise recog test,2023.1.3,59.93080389716869,
74,0,74,0,,,,,,,,,,,,,,,,,,,,,,,,,,,,,,,,,,,,345.4090481000021,346.43580729997484,344.101868800004,344.101868800004,344.101868800004,344.101868800004,old_sceneOut_12.png,75,3.0,1.3098188999574631,,,044,10,2025-04-08_14h34.10.006,Surprise recog test,2023.1.3,59.93080389716869,
75,0,75,0,,,,,,,,,,,,,,,,,,,,,,,,,,,,,,,,,,,,348.2963388999924,349.31809399998747,346.43580729997484,346.43580729997484,346.43580729997484,346.43580729997484,old_sceneIn_42.png,76,4.0,1.8607161000254564,,,044,10,2025-04-08_14h34.10.006,Surprise recog test,2023.1.3,59.93080389716869,
76,0,76,0,,,,,,,,,,,,,,,,,,,,,,,,,,,,,,,,,,,,351.8219613999827,352.8502956999582,349.31809399998747,349.31809399998747,349.31809399998747,349.31809399998747,old_sceneIn_15.png,77,4.0,2.5056314999819733,,,044,10,2025-04-08_14h34.10.006,Surprise recog test,2023.1.3,59.93080389716869,
77,0,77,0,,,,,,,,,,,,,,,,,,,,,,,,,,,,,,,,,,,,354.7029270999483,355.7224184999941,352.8502956999582,352.8502956999582,352.8502956999582,352.8502956999582,new_fruit_29.png,78,3.0,1.8568408000282943,,,044,10,2025-04-08_14h34.10.006,Surprise recog test,2023.1.3,59.93080389716869,
78,0,78,0,,,,,,,,,,,,,,,,,,,,,,,,,,,,,,,,,,,,357.49497309996514,358.5013382000034,355.7224184999941,355.7224184999941,355.7224184999941,355.7224184999941,new_fruit_39.png,79,2.0,1.7726761000230908,,,044,10,2025-04-08_14h34.10.006,Surprise recog test,2023.1.3,59.93080389716869,
79,0,79,0,,,,,,,,,,,,,,,,,,,,,,,,,,,,,,,,,,,,360.81266469997354,361.8216614999692,358.5013382000034,358.5013382000034,358.5013382000034,358.5013382000034,new_stationery_18.png,80,1.0,2.307492199994158,,,044,10,2025-04-08_14h34.10.006,Surprise recog test,2023.1.3,59.93080389716869,
80,0,80,0,,,,,,,,,,,,,,,,,,,,,,,,,,,,,,,,,,,,364.0924074999639,365.1181221999577,361.8216614999692,361.8216614999692,361.8216614999692,361.8216614999692,old_sceneOut_6.png,81,4.0,2.266760400030762,,,044,10,2025-04-08_14h34.10.006,Surprise recog test,2023.1.3,59.93080389716869,
81,0,81,0,,,,,,,,,,,,,,,,,,,,,,,,,,,,,,,,,,,,368.4893738999963,,365.1181221999577,365.1181221999577,365.1181221999577,365.1181221999577,old_sceneIn_30.png,82,4.0,3.3705358000006527,,,044,10,2025-04-08_14h34.10.006,Surprise recog test,2023.1.3,59.93080389716869,
82,0,82,0,,,,,,,,,,,,,,,,,,,,,,,,,,,,,,,,,,,,372.21638219995657,373.24232499999925,369.52257629996166,369.52257629996166,369.52257629996166,369.52257629996166,new_sceneOut_17.png,83,4.0,2.6960611999966204,,,044,10,2025-04-08_14h34.10.006,Surprise recog test,2023.1.3,59.93080389716869,
83,0,83,0,,,,,,,,,,,,,,,,,,,,,,,,,,,,,,,,,,,,375.4330017999746,376.4631361999782,373.24232499999925,373.24232499999925,373.24232499999925,373.24232499999925,new_fruit_13.png,84,2.0,2.1924322999548167,,,044,10,2025-04-08_14h34.10.006,Surprise recog test,2023.1.3,59.93080389716869,
84,0,84,0,,,,,,,,,,,,,,,,,,,,,,,,,,,,,,,,,,,,378.30342809995636,379.3376783999847,376.4631361999782,376.4631361999782,376.4631361999782,376.4631361999782,new_sceneOut_19.png,85,4.0,1.8390146999736317,,,044,10,2025-04-08_14h34.10.006,Surprise recog test,2023.1.3,59.93080389716869,
85,0,85,0,,,,,,,,,,,,,,,,,,,,,,,,,,,,,,,,,,,,380.9932218999602,382.01615109998966,379.3376783999847,379.3376783999847,379.3376783999847,379.3376783999847,old_sceneIn_18.png,86,4.0,1.6593499999726191,,,044,10,2025-04-08_14h34.10.006,Surprise recog test,2023.1.3,59.93080389716869,
86,0,86,0,,,,,,,,,,,,,,,,,,,,,,,,,,,,,,,,,,,,384.9490471999743,385.96956349996617,382.01615109998966,382.01615109998966,382.01615109998966,382.01615109998966,new_stationery_33.png,87,3.0,2.932555700012017,,,044,10,2025-04-08_14h34.10.006,Surprise recog test,2023.1.3,59.93080389716869,
87,0,87,0,,,,,,,,,,,,,,,,,,,,,,,,,,,,,,,,,,,,387.60670579998987,388.62659279996296,385.96956349996617,385.96956349996617,385.96956349996617,385.96956349996617,new_sceneIn_49.png,88,4.0,1.6383124999701977,,,044,10,2025-04-08_14h34.10.006,Surprise recog test,2023.1.3,59.93080389716869,
88,0,88,0,,,,,,,,,,,,,,,,,,,,,,,,,,,,,,,,,,,,390.65461319999304,391.6668413999723,388.62659279996296,388.62659279996296,388.62659279996296,388.62659279996296,old_stationery_42.png,89,1.0,2.0219588999752887,,,044,10,2025-04-08_14h34.10.006,Surprise recog test,2023.1.3,59.93080389716869,
89,0,89,0,,,,,,,,,,,,,,,,,,,,,,,,,,,,,,,,,,,,392.9003232999821,393.9279017999652,391.6668413999723,391.6668413999723,391.6668413999723,391.6668413999723,old_stationery_14.png,90,1.0,1.2301597999758087,,,044,10,2025-04-08_14h34.10.006,Surprise recog test,2023.1.3,59.93080389716869,
90,0,90,0,,,,,,,,,,,,,,,,,,,,,,,,,,,,,,,,,,,,398.6574320999789,399.6781472999719,393.9279017999652,393.9279017999652,393.9279017999652,393.9279017999652,new_sceneIn_12.png,91,4.0,4.73217959998874,,,044,10,2025-04-08_14h34.10.006,Surprise recog test,2023.1.3,59.93080389716869,
91,0,91,0,,,,,,,,,,,,,,,,,,,,,,,,,,,,,,,,,,,,401.63716699997894,402.6691673999885,399.6781472999719,399.6781472999719,399.6781472999719,399.6781472999719,old_fruit_44.png,92,3.0,1.9593932999996468,,,044,10,2025-04-08_14h34.10.006,Surprise recog test,2023.1.3,59.93080389716869,
92,0,92,0,,,,,,,,,,,,,,,,,,,,,,,,,,,,,,,,,,,,405.55994129995815,406.58376099995803,402.6691673999885,402.6691673999885,402.6691673999885,402.6691673999885,old_sceneOut_27.png,93,4.0,2.8943726000143215,,,044,10,2025-04-08_14h34.10.006,Surprise recog test,2023.1.3,59.93080389716869,
93,0,93,0,,,,,,,,,,,,,,,,,,,,,,,,,,,,,,,,,,,,408.6361332999659,409.65660559997195,406.58376099995803,406.58376099995803,406.58376099995803,406.58376099995803,new_fruit_41.png,94,3.0,2.047257400001399,,,044,10,2025-04-08_14h34.10.006,Surprise recog test,2023.1.3,59.93080389716869,
94,0,94,0,,,,,,,,,,,,,,,,,,,,,,,,,,,,,,,,,,,,412.3361242999672,413.3439928999869,409.65660559997195,409.65660559997195,409.65660559997195,409.65660559997195,new_sceneOut_16.png,95,4.0,2.6816602000035346,,,044,10,2025-04-08_14h34.10.006,Surprise recog test,2023.1.3,59.93080389716869,
95,0,95,0,,,,,,,,,,,,,,,,,,,,,,,,,,,,,,,,,,,,414.95831719995476,415.9655192999635,413.3439928999869,413.3439928999869,413.3439928999869,413.3439928999869,new_stationery_6.png,96,4.0,1.6107632999774069,,,044,10,2025-04-08_14h34.10.006,Surprise recog test,2023.1.3,59.93080389716869,
96,0,96,0,,,,,,,,,,,,,,,,,,,,,,,,,,,,,,,,,,,,417.49305539997295,418.5096227999893,415.9655192999635,415.9655192999635,415.9655192999635,415.9655192999635,old_sceneOut_4.png,97,4.0,1.5224233999615535,,,044,10,2025-04-08_14h34.10.006,Surprise recog test,2023.1.3,59.93080389716869,
97,0,97,0,,,,,,,,,,,,,,,,,,,,,,,,,,,,,,,,,,,,421.7633510999731,422.78365939995274,418.5096227999893,418.5096227999893,418.5096227999893,418.5096227999893,old_sceneOut_47.png,98,4.0,3.2539556000265293,,,044,10,2025-04-08_14h34.10.006,Surprise recog test,2023.1.3,59.93080389716869,
98,0,98,0,,,,,,,,,,,,,,,,,,,,,,,,,,,,,,,,,,,,426.3622786999913,427.3775171999587,422.78365939995274,422.78365939995274,422.78365939995274,422.78365939995274,new_sceneOut_2.png,99,5.0,3.580977100005839,,,044,10,2025-04-08_14h34.10.006,Surprise recog test,2023.1.3,59.93080389716869,
99,0,99,0,,,,,,,,,,,,,,,,,,,,,,,,,,,,,,,,,,,,429.59966459998395,430.61236889997963,427.3775171999587,427.3775171999587,427.3775171999587,427.3775171999587,new_sceneIn_30.png,100,4.0,2.2200521999620833,,,044,10,2025-04-08_14h34.10.006,Surprise recog test,2023.1.3,59.93080389716869,
100,0,100,0,,,,,,,,,,,,,,,,,,,,,,,,,,,,,,,,,,,,432.3692644999828,433.39197979995515,430.61236889997963,430.61236889997963,430.61236889997963,430.61236889997963,old_fruit_15.png,101,3.0,1.753875499998685,,,044,10,2025-04-08_14h34.10.006,Surprise recog test,2023.1.3,59.93080389716869,
101,0,101,0,,,,,,,,,,,,,,,,,,,,,,,,,,,,,,,,,,,,437.17382949998137,438.19534009997733,433.39197979995515,433.39197979995515,433.39197979995515,433.39197979995515,old_sceneIn_47.png,102,1.0,3.7838444999651983,,,044,10,2025-04-08_14h34.10.006,Surprise recog test,2023.1.3,59.93080389716869,
102,0,102,0,,,,,,,,,,,,,,,,,,,,,,,,,,,,,,,,,,,,440.5809797999682,441.59814279997954,438.19534009997733,438.19534009997733,438.19534009997733,438.19534009997733,new_sceneIn_6.png,103,4.0,2.3892315999837592,,,044,10,2025-04-08_14h34.10.006,Surprise recog test,2023.1.3,59.93080389716869,
103,0,103,0,,,,,,,,,,,,,,,,,,,,,,,,,,,,,,,,,,,,443.2815738999634,444.3029609999503,441.59814279997954,441.59814279997954,441.59814279997954,441.59814279997954,old_fruit_11.png,104,3.0,1.6827053999877535,,,044,10,2025-04-08_14h34.10.006,Surprise recog test,2023.1.3,59.93080389716869,
104,0,104,0,,,,,,,,,,,,,,,,,,,,,,,,,,,,,,,,,,,,446.805041399959,,444.3029609999503,444.3029609999503,444.3029609999503,444.3029609999503,old_sceneIn_27.png,105,4.0,2.5070396999944933,,,044,10,2025-04-08_14h34.10.006,Surprise recog test,2023.1.3,59.93080389716869,
105,0,105,0,,,,,,,,,,,,,,,,,,,,,,,,,,,,,,,,,,,,449.2992172999657,450.3084288999671,447.8221687999903,447.8221687999903,447.8221687999903,447.8221687999903,old_sceneIn_31.png,106,4.0,1.4726961000123993,,,044,10,2025-04-08_14h34.10.006,Surprise recog test,2023.1.3,59.93080389716869,
106,0,106,0,,,,,,,,,,,,,,,,,,,,,,,,,,,,,,,,,,,,451.8617541999556,452.8902414999902,450.3084288999671,450.3084288999671,450.3084288999671,450.3084288999671,old_sceneOut_32.png,107,3.0,1.5497847000369802,,,044,10,2025-04-08_14h34.10.006,Surprise recog test,2023.1.3,59.93080389716869,
107,0,107,0,,,,,,,,,,,,,,,,,,,,,,,,,,,,,,,,,,,,455.3479681999888,456.3784403000027,452.8902414999902,452.8902414999902,452.8902414999902,452.8902414999902,old_stationery_5.png,108,1.0,2.456016600015573,,,044,10,2025-04-08_14h34.10.006,Surprise recog test,2023.1.3,59.93080389716869,
108,0,108,0,,,,,,,,,,,,,,,,,,,,,,,,,,,,,,,,,,,,458.99017529998673,459.99887599999784,456.3784403000027,456.3784403000027,456.3784403000027,456.3784403000027,old_sceneOut_22.png,109,4.0,2.611650799983181,,,044,10,2025-04-08_14h34.10.006,Surprise recog test,2023.1.3,59.93080389716869,
109,0,109,0,,,,,,,,,,,,,,,,,,,,,,,,,,,,,,,,,,,,461.3675149999908,,459.99887599999784,459.99887599999784,459.99887599999784,459.99887599999784,old_sceneOut_16.png,110,4.0,1.3643734999932349,,,044,10,2025-04-08_14h34.10.006,Surprise recog test,2023.1.3,59.93080389716869,
110,0,110,0,,,,,,,,,,,,,,,,,,,,,,,,,,,,,,,,,,,,465.1205743000028,,462.4005722999573,462.4005722999573,462.4005722999573,462.4005722999573,new_stationery_19.png,111,5.0,2.723202000022866,,,044,10,2025-04-08_14h34.10.006,Surprise recog test,2023.1.3,59.93080389716869,
111,0,111,0,,,,,,,,,,,,,,,,,,,,,,,,,,,,,,,,,,,,468.0768390999874,469.10150419996353,466.1524833999574,466.1524833999574,466.1524833999574,466.1524833999574,old_sceneOut_10.png,112,4.0,1.9269056000048295,,,044,10,2025-04-08_14h34.10.006,Surprise recog test,2023.1.3,59.93080389716869,
112,0,112,0,,,,,,,,,,,,,,,,,,,,,,,,,,,,,,,,,,,,470.99323909997474,472.0137450999464,469.10150419996353,469.10150419996353,469.10150419996353,469.10150419996353,new_stationery_46.png,113,4.0,1.8927172999829054,,,044,10,2025-04-08_14h34.10.006,Surprise recog test,2023.1.3,59.93080389716869,
113,0,113,0,,,,,,,,,,,,,,,,,,,,,,,,,,,,,,,,,,,,473.93944779998856,474.9449540999485,472.0137450999464,472.0137450999464,472.0137450999464,472.0137450999464,new_stationery_37.png,114,3.0,1.923191100009717,,,044,10,2025-04-08_14h34.10.006,Surprise recog test,2023.1.3,59.93080389716869,
114,0,114,0,,,,,,,,,,,,,,,,,,,,,,,,,,,,,,,,,,,,477.3434417999815,478.3617146000033,474.9449540999485,474.9449540999485,474.9449540999485,474.9449540999485,old_sceneIn_49.png,115,4.0,2.3950628000311553,,,044,10,2025-04-08_14h34.10.006,Surprise recog test,2023.1.3,59.93080389716869,
115,0,115,0,,,,,,,,,,,,,,,,,,,,,,,,,,,,,,,,,,,,480.5048248999519,481.53300509997644,478.3617146000033,478.3617146000033,478.3617146000033,478.3617146000033,new_stationery_24.png,116,3.0,2.1439687999663875,,,044,10,2025-04-08_14h34.10.006,Surprise recog test,2023.1.3,59.93080389716869,
116,0,116,0,,,,,,,,,,,,,,,,,,,,,,,,,,,,,,,,,,,,482.75094499997795,,481.53300509997644,481.53300509997644,481.53300509997644,481.53300509997644,new_fruit_12.png,117,3.0,1.218222199997399,,,044,10,2025-04-08_14h34.10.006,Surprise recog test,2023.1.3,59.93080389716869,
117,0,117,0,,,,,,,,,,,,,,,,,,,,,,,,,,,,,,,,,,,,485.210554099991,486.23302119999425,483.7716107000015,483.7716107000015,483.7716107000015,483.7716107000015,new_fruit_48.png,118,3.0,1.4348369000363164,,,044,10,2025-04-08_14h34.10.006,Surprise recog test,2023.1.3,59.93080389716869,
118,0,118,0,,,,,,,,,,,,,,,,,,,,,,,,,,,,,,,,,,,,489.0221640999662,,486.23302119999425,486.23302119999425,486.23302119999425,486.23302119999425,new_sceneOut_38.png,119,4.0,2.7903819999773987,,,044,10,2025-04-08_14h34.10.006,Surprise recog test,2023.1.3,59.93080389716869,
119,0,119,0,,,,,,,,,,,,,,,,,,,,,,,,,,,,,,,,,,,,491.8180503999465,492.8307893999736,490.05258879996836,490.05258879996836,490.05258879996836,490.05258879996836,old_fruit_17.png,120,3.0,1.7640670000109822,,,044,10,2025-04-08_14h34.10.006,Surprise recog test,2023.1.3,59.93080389716869,
120,0,120,0,,,,,,,,,,,,,,,,,,,,,,,,,,,,,,,,,,,,494.92583859997103,495.94058359996416,492.8307893999736,492.8307893999736,492.8307893999736,492.8307893999736,old_stationery_39.png,121,1.0,2.0911639999831095,,,044,10,2025-04-08_14h34.10.006,Surprise recog test,2023.1.3,59.93080389716869,
121,0,121,0,,,,,,,,,,,,,,,,,,,,,,,,,,,,,,,,,,,,497.903583999956,498.92925239994656,495.94058359996416,495.94058359996416,495.94058359996416,495.94058359996416,old_sceneOut_31.png,122,4.0,1.9622937999665737,,,044,10,2025-04-08_14h34.10.006,Surprise recog test,2023.1.3,59.93080389716869,
122,0,122,0,,,,,,,,,,,,,,,,,,,,,,,,,,,,,,,,,,,,500.9126529999776,501.9260895999614,498.92925239994656,498.92925239994656,498.92925239994656,498.92925239994656,new_stationery_29.png,123,4.0,1.9793030000291765,,,044,10,2025-04-08_14h34.10.006,Surprise recog test,2023.1.3,59.93080389716869,
123,0,123,0,,,,,,,,,,,,,,,,,,,,,,,,,,,,,,,,,,,,504.6092148000025,505.6205063999514,501.9260895999614,501.9260895999614,501.9260895999614,501.9260895999614,new_fruit_19.png,124,4.0,2.6826216999907047,,,044,10,2025-04-08_14h34.10.006,Surprise recog test,2023.1.3,59.93080389716869,
124,0,124,0,,,,,,,,,,,,,,,,,,,,,,,,,,,,,,,,,,,,508.06970069999807,509.0757381999865,505.6205063999514,505.6205063999514,505.6205063999514,505.6205063999514,old_stationery_48.png,125,1.0,2.4456948000006378,,,044,10,2025-04-08_14h34.10.006,Surprise recog test,2023.1.3,59.93080389716869,
125,0,125,0,,,,,,,,,,,,,,,,,,,,,,,,,,,,,,,,,,,,510.9557435999741,511.9605444999761,509.0757381999865,509.0757381999865,509.0757381999865,509.0757381999865,new_stationery_1.png,126,1.0,1.8732308000326157,,,044,10,2025-04-08_14h34.10.006,Surprise recog test,2023.1.3,59.93080389716869,
126,0,126,0,,,,,,,,,,,,,,,,,,,,,,,,,,,,,,,,,,,,514.3029196999851,515.3287704999675,511.9605444999761,511.9605444999761,511.9605444999761,511.9605444999761,old_sceneIn_13.png,127,4.0,2.3361182999797165,,,044,10,2025-04-08_14h34.10.006,Surprise recog test,2023.1.3,59.93080389716869,
127,0,127,0,,,,,,,,,,,,,,,,,,,,,,,,,,,,,,,,,,,,517.557630700001,518.5804790999973,515.3287704999675,515.3287704999675,515.3287704999675,515.3287704999675,old_stationery_26.png,128,1.0,2.230714499950409,,,044,10,2025-04-08_14h34.10.006,Surprise recog test,2023.1.3,59.93080389716869,
128,0,128,0,,,,,,,,,,,,,,,,,,,,,,,,,,,,,,,,,,,,521.6782924999716,522.7011014999589,518.5804790999973,518.5804790999973,518.5804790999973,518.5804790999973,new_sceneOut_24.png,129,4.0,3.097462599980645,,,044,10,2025-04-08_14h34.10.006,Surprise recog test,2023.1.3,59.93080389716869,
129,0,129,0,,,,,,,,,,,,,,,,,,,,,,,,,,,,,,,,,,,,526.7610339999665,527.7866019999492,522.7011014999589,522.7011014999589,522.7011014999589,522.7011014999589,old_fruit_27.png,130,2.0,4.061884000024293,,,044,10,2025-04-08_14h34.10.006,Surprise recog test,2023.1.3,59.93080389716869,
130,0,130,0,,,,,,,,,,,,,,,,,,,,,,,,,,,,,,,,,,,,530.9144682000042,531.9412868999643,527.7866019999492,527.7866019999492,527.7866019999492,527.7866019999492,old_stationery_16.png,131,1.0,3.1288396999589168,,,044,10,2025-04-08_14h34.10.006,Surprise recog test,2023.1.3,59.93080389716869,
131,0,131,0,,,,,,,,,,,,,,,,,,,,,,,,,,,,,,,,,,,,533.8524671999621,534.8695585999521,531.9412868999643,531.9412868999643,531.9412868999643,531.9412868999643,new_fruit_43.png,132,4.0,1.9137052000151016,,,044,10,2025-04-08_14h34.10.006,Surprise recog test,2023.1.3,59.93080389716869,
132,0,132,0,,,,,,,,,,,,,,,,,,,,,,,,,,,,,,,,,,,,537.5847279999871,538.6120641999878,534.8695585999521,534.8695585999521,534.8695585999521,534.8695585999521,new_sceneOut_50.png,133,3.0,2.715146799979266,,,044,10,2025-04-08_14h34.10.006,Surprise recog test,2023.1.3,59.93080389716869,
133,0,133,0,,,,,,,,,,,,,,,,,,,,,,,,,,,,,,,,,,,,540.9758822000003,541.9961914999876,538.6120641999878,538.6120641999878,538.6120641999878,538.6120641999878,new_fruit_32.png,134,2.0,2.3637454999843612,,,044,10,2025-04-08_14h34.10.006,Surprise recog test,2023.1.3,59.93080389716869,
134,0,134,0,,,,,,,,,,,,,,,,,,,,,,,,,,,,,,,,,,,,543.0591943999752,544.0735769000021,541.9961914999876,541.9961914999876,541.9961914999876,541.9961914999876,old_fruit_9.png,135,2.0,1.0609786999993958,,,044,10,2025-04-08_14h34.10.006,Surprise recog test,2023.1.3,59.93080389716869,
135,0,135,0,,,,,,,,,,,,,,,,,,,,,,,,,,,,,,,,,,,,548.0351156999823,549.0540982999955,544.0735769000021,544.0735769000021,544.0735769000021,544.0735769000021,old_sceneIn_23.png,136,3.0,3.9534107000217773,,,044,10,2025-04-08_14h34.10.006,Surprise recog test,2023.1.3,59.93080389716869,
136,0,136,0,,,,,,,,,,,,,,,,,,,,,,,,,,,,,,,,,,,,551.5311146999593,552.5585771999904,549.0540982999955,549.0540982999955,549.0540982999955,549.0540982999955,new_sceneOut_44.png,137,4.0,2.4796536000212654,,,044,10,2025-04-08_14h34.10.006,Surprise recog test,2023.1.3,59.93080389716869,
137,0,137,0,,,,,,,,,,,,,,,,,,,,,,,,,,,,,,,,,,,,554.8128672000021,555.8394959999714,552.5585771999904,552.5585771999904,552.5585771999904,552.5585771999904,new_stationery_16.png,138,2.0,2.256382899999153,,,044,10,2025-04-08_14h34.10.006,Surprise recog test,2023.1.3,59.93080389716869,
138,0,138,0,,,,,,,,,,,,,,,,,,,,,,,,,,,,,,,,,,,,557.7739268000005,558.796726999979,555.8394959999714,555.8394959999714,555.8394959999714,555.8394959999714,new_sceneIn_21.png,139,4.0,1.9282416999922134,,,044,10,2025-04-08_14h34.10.006,Surprise recog test,2023.1.3,59.93080389716869,
139,0,139,0,,,,,,,,,,,,,,,,,,,,,,,,,,,,,,,,,,,,561.1600397999864,562.1675564000034,558.796726999979,558.796726999979,558.796726999979,558.796726999979,old_stationery_10.png,140,1.0,2.365775600017514,,,044,10,2025-04-08_14h34.10.006,Surprise recog test,2023.1.3,59.93080389716869,
140,0,140,0,,,,,,,,,,,,,,,,,,,,,,,,,,,,,,,,,,,,564.6002784000011,565.6119601999526,562.1675564000034,562.1675564000034,562.1675564000034,562.1675564000034,new_sceneOut_26.png,141,4.0,2.429153800010681,,,044,10,2025-04-08_14h34.10.006,Surprise recog test,2023.1.3,59.93080389716869,
141,0,141,0,,,,,,,,,,,,,,,,,,,,,,,,,,,,,,,,,,,,567.6149088999955,568.6426619999693,565.6119601999526,565.6119601999526,565.6119601999526,565.6119601999526,old_sceneOut_37.png,142,5.0,2.002678599965293,,,044,10,2025-04-08_14h34.10.006,Surprise recog test,2023.1.3,59.93080389716869,
142,0,142,0,,,,,,,,,,,,,,,,,,,,,,,,,,,,,,,,,,,,572.4887640999514,573.5085786999553,568.6426619999693,568.6426619999693,568.6426619999693,568.6426619999693,new_stationery_9.png,143,4.0,3.8490266000153497,,,044,10,2025-04-08_14h34.10.006,Surprise recog test,2023.1.3,59.93080389716869,
143,0,143,0,,,,,,,,,,,,,,,,,,,,,,,,,,,,,,,,,,,,575.0706905999687,576.0822912000003,573.5085786999553,573.5085786999553,573.5085786999553,573.5085786999553,new_sceneIn_11.png,144,4.0,1.5611843999940902,,,044,10,2025-04-08_14h34.10.006,Surprise recog test,2023.1.3,59.93080389716869,
144,0,144,0,,,,,,,,,,,,,,,,,,,,,,,,,,,,,,,,,,,,578.236057699949,579.2487322999514,576.0822912000003,576.0822912000003,576.0822912000003,576.0822912000003,old_stationery_24.png,145,1.0,2.149320800032001,,,044,10,2025-04-08_14h34.10.006,Surprise recog test,2023.1.3,59.93080389716869,
145,0,145,0,,,,,,,,,,,,,,,,,,,,,,,,,,,,,,,,,,,,581.3882693999913,582.4124555999879,579.2487322999514,579.2487322999514,579.2487322999514,579.2487322999514,new_sceneIn_46.png,146,4.0,2.1360743999830447,,,044,10,2025-04-08_14h34.10.006,Surprise recog test,2023.1.3,59.93080389716869,
146,0,146,0,,,,,,,,,,,,,,,,,,,,,,,,,,,,,,,,,,,,583.6306494000019,584.6408012000029,582.4124555999879,582.4124555999879,582.4124555999879,582.4124555999879,new_sceneIn_27.png,147,4.0,1.2186662000021897,,,044,10,2025-04-08_14h34.10.006,Surprise recog test,2023.1.3,59.93080389716869,
147,0,147,0,,,,,,,,,,,,,,,,,,,,,,,,,,,,,,,,,,,,589.6476734000025,,584.6408012000029,584.6408012000029,584.6408012000029,584.6408012000029,old_fruit_45.png,148,None,None,589.6343326999922,,044,10,2025-04-08_14h34.10.006,Surprise recog test,2023.1.3,59.93080389716869,
148,0,148,0,,,,,,,,,,,,,,,,,,,,,,,,,,,,,,,,,,,,591.6274203999783,592.6520955999731,590.6688669999712,590.6688669999712,590.6688669999712,590.6688669999712,old_fruit_1.png,149,3.0,0.9562921000178903,,,044,10,2025-04-08_14h34.10.006,Surprise recog test,2023.1.3,59.93080389716869,
149,0,149,0,,,,,,,,,,,,,,,,,,,,,,,,,,,,,,,,,,,,594.3379135999712,595.3604798999731,592.6520955999731,592.6520955999731,592.6520955999731,592.6520955999731,old_stationery_18.png,150,1.0,1.6846722000045702,,,044,10,2025-04-08_14h34.10.006,Surprise recog test,2023.1.3,59.93080389716869,
150,0,150,0,,,,,,,,,,,,,,,,,,,,,,,,,,,,,,,,,,,,596.8377936999896,597.8564577999641,595.3604798999731,595.3604798999731,595.3604798999731,595.3604798999731,new_stationery_48.png,151,1.0,1.4770305000129156,,,044,10,2025-04-08_14h34.10.006,Surprise recog test,2023.1.3,59.93080389716869,
151,0,151,0,,,,,,,,,,,,,,,,,,,,,,,,,,,,,,,,,,,,599.6564572999487,600.6789526999928,597.8564577999641,597.8564577999641,597.8564577999641,597.8564577999641,new_fruit_42.png,152,3.0,1.7988133000326343,,,044,10,2025-04-08_14h34.10.006,Surprise recog test,2023.1.3,59.93080389716869,
152,0,152,0,,,,,,,,,,,,,,,,,,,,,,,,,,,,,,,,,,,,601.767667899956,602.8000172000029,600.6789526999928,600.6789526999928,600.6789526999928,600.6789526999928,new_fruit_50.png,153,3.0,1.0916893999674357,,,044,10,2025-04-08_14h34.10.006,Surprise recog test,2023.1.3,59.93080389716869,
153,0,153,0,,,,,,,,,,,,,,,,,,,,,,,,,,,,,,,,,,,,604.3363059999538,,602.8000172000029,602.8000172000029,602.8000172000029,602.8000172000029,old_sceneOut_33.png,154,4.0,1.5358101000310853,,,044,10,2025-04-08_14h34.10.006,Surprise recog test,2023.1.3,59.93080389716869,
154,0,154,0,,,,,,,,,,,,,,,,,,,,,,,,,,,,,,,,,,,,606.2522414999548,,605.3664488999639,605.3664488999639,605.3664488999639,605.3664488999639,new_sceneOut_21.png,155,4.0,0.8871970999753103,,,044,10,2025-04-08_14h34.10.006,Surprise recog test,2023.1.3,59.93080389716869,
155,0,155,0,,,,,,,,,,,,,,,,,,,,,,,,,,,,,,,,,,,,608.0547737999586,,607.2731097999495,607.2731097999495,607.2731097999495,607.2731097999495,old_sceneOut_23.png,156,4.0,0.7763244999805465,,,044,10,2025-04-08_14h34.10.006,Surprise recog test,2023.1.3,59.93080389716869,
156,0,156,0,,,,,,,,,,,,,,,,,,,,,,,,,,,,,,,,,,,,610.9373074999894,611.9491361999535,609.0860880999826,609.0860880999826,609.0860880999826,609.0860880999826,old_stationery_15.png,157,1.0,1.8473210000083782,,,044,10,2025-04-08_14h34.10.006,Surprise recog test,2023.1.3,59.93080389716869,
157,0,157,0,,,,,,,,,,,,,,,,,,,,,,,,,,,,,,,,,,,,613.3942726999521,614.416078899987,611.9491361999535,611.9491361999535,611.9491361999535,611.9491361999535,new_fruit_47.png,158,3.0,1.444331799983047,,,044,10,2025-04-08_14h34.10.006,Surprise recog test,2023.1.3,59.93080389716869,
158,0,158,0,,,,,,,,,,,,,,,,,,,,,,,,,,,,,,,,,,,,615.9228983999928,616.9399517999846,614.416078899987,614.416078899987,614.416078899987,614.416078899987,new_sceneOut_28.png,159,3.0,1.5042418999946676,,,044,10,2025-04-08_14h34.10.006,Surprise recog test,2023.1.3,59.93080389716869,
159,0,159,0,,,,,,,,,,,,,,,,,,,,,,,,,,,,,,,,,,,,618.7807984999963,,616.9399517999846,616.9399517999846,616.9399517999846,616.9399517999846,old_stationery_38.png,160,2.0,1.8426210000179708,,,044,10,2025-04-08_14h34.10.006,Surprise recog test,2023.1.3,59.93080389716869,
160,0,160,0,,,,,,,,,,,,,,,,,,,,,,,,,,,,,,,,,,,,621.7469673999585,622.7661905999994,619.815948799951,619.815948799951,619.815948799951,619.815948799951,new_sceneOut_30.png,161,4.0,1.9336723000160418,,,044,10,2025-04-08_14h34.10.006,Surprise recog test,2023.1.3,59.93080389716869,
161,0,161,0,,,,,,,,,,,,,,,,,,,,,,,,,,,,,,,,,,,,624.7960218999651,625.8184794999543,622.7661905999994,622.7661905999994,622.7661905999994,622.7661905999994,new_stationery_10.png,162,1.0,2.0314076999784447,,,044,10,2025-04-08_14h34.10.006,Surprise recog test,2023.1.3,59.93080389716869,
162,0,162,0,,,,,,,,,,,,,,,,,,,,,,,,,,,,,,,,,,,,628.165097399964,629.1845240999828,625.8184794999543,625.8184794999543,625.8184794999543,625.8184794999543,new_sceneIn_31.png,163,4.0,2.34657920000609,,,044,10,2025-04-08_14h34.10.006,Surprise recog test,2023.1.3,59.93080389716869,
163,0,163,0,,,,,,,,,,,,,,,,,,,,,,,,,,,,,,,,,,,,632.0434797999915,633.0732056999695,629.1845240999828,629.1845240999828,629.1845240999828,629.1845240999828,old_stationery_49.png,164,3.0,2.8615662999800406,,,044,10,2025-04-08_14h34.10.006,Surprise recog test,2023.1.3,59.93080389716869,
164,0,164,0,,,,,,,,,,,,,,,,,,,,,,,,,,,,,,,,,,,,634.7447941999999,,633.0732056999695,633.0732056999695,633.0732056999695,633.0732056999695,new_fruit_5.png,165,3.0,1.6732047999976203,,,044,10,2025-04-08_14h34.10.006,Surprise recog test,2023.1.3,59.93080389716869,
165,0,165,0,,,,,,,,,,,,,,,,,,,,,,,,,,,,,,,,,,,,637.5927843999816,638.6142744999961,635.7697342999745,635.7697342999745,635.7697342999745,635.7697342999745,new_sceneOut_40.png,166,4.0,1.8127516000531614,,,044,10,2025-04-08_14h34.10.006,Surprise recog test,2023.1.3,59.93080389716869,
166,0,166,0,,,,,,,,,,,,,,,,,,,,,,,,,,,,,,,,,,,,641.1832006999757,,638.6142744999961,638.6142744999961,638.6142744999961,638.6142744999961,new_stationery_42.png,167,3.0,2.569580200011842,,,044,10,2025-04-08_14h34.10.006,Surprise recog test,2023.1.3,59.93080389716869,
167,0,167,0,,,,,,,,,,,,,,,,,,,,,,,,,,,,,,,,,,,,643.4007968999795,,642.213755099976,642.213755099976,642.213755099976,642.213755099976,old_fruit_26.png,168,3.0,1.1892158999689855,,,044,10,2025-04-08_14h34.10.006,Surprise recog test,2023.1.3,59.93080389716869,
168,0,168,0,,,,,,,,,,,,,,,,,,,,,,,,,,,,,,,,,,,,646.1726514999755,647.2029618999804,644.422197399952,644.422197399952,644.422197399952,644.422197399952,new_sceneOut_4.png,169,3.0,1.7422331999987364,,,044,10,2025-04-08_14h34.10.006,Surprise recog test,2023.1.3,59.93080389716869,
169,0,169,0,,,,,,,,,,,,,,,,,,,,,,,,,,,,,,,,,,,,649.3587092999951,650.3857556000003,647.2029618999804,647.2029618999804,647.2029618999804,647.2029618999804,old_stationery_21.png,170,1.0,2.1568984999903478,,,044,10,2025-04-08_14h34.10.006,Surprise recog test,2023.1.3,59.93080389716869,
170,0,170,0,,,,,,,,,,,,,,,,,,,,,,,,,,,,,,,,,,,,652.168273599993,653.1916079999646,650.3857556000003,650.3857556000003,650.3857556000003,650.3857556000003,old_fruit_2.png,171,3.0,1.7818716000183485,,,044,10,2025-04-08_14h34.10.006,Surprise recog test,2023.1.3,59.93080389716869,
171,0,171,0,,,,,,,,,,,,,,,,,,,,,,,,,,,,,,,,,,,,655.1007952999789,656.1239237999544,653.1916079999646,653.1916079999646,653.1916079999646,653.1916079999646,old_stationery_3.png,172,1.0,1.911013099947013,,,044,10,2025-04-08_14h34.10.006,Surprise recog test,2023.1.3,59.93080389716869,
172,0,172,0,,,,,,,,,,,,,,,,,,,,,,,,,,,,,,,,,,,,658.1945903999731,659.2104546999908,656.1239237999544,656.1239237999544,656.1239237999544,656.1239237999544,new_fruit_6.png,173,1.0,2.070635600015521,,,044,10,2025-04-08_14h34.10.006,Surprise recog test,2023.1.3,59.93080389716869,
173,0,173,0,,,,,,,,,,,,,,,,,,,,,,,,,,,,,,,,,,,,660.98075529997,661.9836928999866,659.2104546999908,659.2104546999908,659.2104546999908,659.2104546999908,new_fruit_14.png,174,3.0,1.7692886000149883,,,044,10,2025-04-08_14h34.10.006,Surprise recog test,2023.1.3,59.93080389716869,
174,0,174,0,,,,,,,,,,,,,,,,,,,,,,,,,,,,,,,,,,,,664.6379517999594,665.6563285999582,661.9836928999866,661.9836928999866,661.9836928999866,661.9836928999866,old_sceneIn_8.png,175,3.0,2.6505436000297777,,,044,10,2025-04-08_14h34.10.006,Surprise recog test,2023.1.3,59.93080389716869,
175,0,175,0,,,,,,,,,,,,,,,,,,,,,,,,,,,,,,,,,,,,667.6233857999905,668.6421498999698,665.6563285999582,665.6563285999582,665.6563285999582,665.6563285999582,new_stationery_15.png,176,1.0,1.9629987999796867,,,044,10,2025-04-08_14h34.10.006,Surprise recog test,2023.1.3,59.93080389716869,
176,0,176,0,,,,,,,,,,,,,,,,,,,,,,,,,,,,,,,,,,,,670.8496180999791,671.8590407999582,668.6421498999698,668.6421498999698,668.6421498999698,668.6421498999698,new_fruit_28.png,177,3.0,2.203253199986648,,,044,10,2025-04-08_14h34.10.006,Surprise recog test,2023.1.3,59.93080389716869,
177,0,177,0,,,,,,,,,,,,,,,,,,,,,,,,,,,,,,,,,,,,674.3065273999819,675.311595599982,671.8590407999582,671.8590407999582,671.8590407999582,671.8590407999582,new_fruit_22.png,178,3.0,2.4402680000057444,,,044,10,2025-04-08_14h34.10.006,Surprise recog test,2023.1.3,59.93080389716869,
178,0,178,0,,,,,,,,,,,,,,,,,,,,,,,,,,,,,,,,,,,,677.3955184999504,,675.311595599982,675.311595599982,675.311595599982,675.311595599982,old_sceneOut_21.png,179,4.0,2.0779383999761194,,,044,10,2025-04-08_14h34.10.006,Surprise recog test,2023.1.3,59.93080389716869,
179,0,179,0,,,,,,,,,,,,,,,,,,,,,,,,,,,,,,,,,,,,680.4451064000023,681.4658453000011,678.4136565999943,678.4136565999943,678.4136565999943,678.4136565999943,old_sceneIn_44.png,180,4.0,2.0212301000137813,,,044,10,2025-04-08_14h34.10.006,Surprise recog test,2023.1.3,59.93080389716869,
180,0,180,0,,,,,,,,,,,,,,,,,,,,,,,,,,,,,,,,,,,,684.3362472999725,685.3679089999641,681.4658453000011,681.4658453000011,681.4658453000011,681.4658453000011,old_sceneIn_4.png,181,3.0,2.87342630000785,,,044,10,2025-04-08_14h34.10.006,Surprise recog test,2023.1.3,59.93080389716869,
181,0,181,0,,,,,,,,,,,,,,,,,,,,,,,,,,,,,,,,,,,,688.1384018999524,,685.3679089999641,685.3679089999641,685.3679089999641,685.3679089999641,new_sceneOut_13.png,182,5.0,2.7725344999926165,,,044,10,2025-04-08_14h34.10.006,Surprise recog test,2023.1.3,59.93080389716869,
182,0,182,0,,,,,,,,,,,,,,,,,,,,,,,,,,,,,,,,,,,,690.5758354999707,691.5948235999676,689.1727947999607,689.1727947999607,689.1727947999607,689.1727947999607,new_fruit_23.png,183,3.0,1.4031685000518337,,,044,10,2025-04-08_14h34.10.006,Surprise recog test,2023.1.3,59.93080389716869,
183,0,183,0,,,,,,,,,,,,,,,,,,,,,,,,,,,,,,,,,,,,693.3514183999505,694.3705560999806,691.5948235999676,691.5948235999676,691.5948235999676,691.5948235999676,old_sceneIn_9.png,184,4.0,1.7507091999868862,,,044,10,2025-04-08_14h34.10.006,Surprise recog test,2023.1.3,59.93080389716869,
184,0,184,0,,,,,,,,,,,,,,,,,,,,,,,,,,,,,,,,,,,,695.8370246999548,696.8591024999623,694.3705560999806,694.3705560999806,694.3705560999806,694.3705560999806,new_fruit_15.png,185,4.0,1.467644099961035,,,044,10,2025-04-08_14h34.10.006,Surprise recog test,2023.1.3,59.93080389716869,
185,0,185,0,,,,,,,,,,,,,,,,,,,,,,,,,,,,,,,,,,,,699.2543846999761,700.2790658999584,696.8591024999623,696.8591024999623,696.8591024999623,696.8591024999623,old_sceneOut_44.png,186,3.0,2.395024999976158,,,044,10,2025-04-08_14h34.10.006,Surprise recog test,2023.1.3,59.93080389716869,
186,0,186,0,,,,,,,,,,,,,,,,,,,,,,,,,,,,,,,,,,,,702.4985077999881,703.5124988000025,700.2790658999584,700.2790658999584,700.2790658999584,700.2790658999584,new_sceneIn_26.png,187,4.0,2.221380000002682,,,044,10,2025-04-08_14h34.10.006,Surprise recog test,2023.1.3,59.93080389716869,
187,0,187,0,,,,,,,,,,,,,,,,,,,,,,,,,,,,,,,,,,,,706.3165635999758,707.323300899996,703.5124988000025,703.5124988000025,703.5124988000025,703.5124988000025,old_stationery_43.png,188,2.0,2.805214599997271,,,044,10,2025-04-08_14h34.10.006,Surprise recog test,2023.1.3,59.93080389716869,
188,0,188,0,,,,,,,,,,,,,,,,,,,,,,,,,,,,,,,,,,,,709.0687676999951,710.0734545000014,707.323300899996,707.323300899996,707.323300899996,707.323300899996,old_fruit_19.png,189,3.0,1.7341336000245064,,,044,10,2025-04-08_14h34.10.006,Surprise recog test,2023.1.3,59.93080389716869,
189,0,189,0,,,,,,,,,,,,,,,,,,,,,,,,,,,,,,,,,,,,713.0592786999769,,710.0734545000014,710.0734545000014,710.0734545000014,710.0734545000014,old_sceneIn_3.png,190,4.0,2.98195659997873,,,044,10,2025-04-08_14h34.10.006,Surprise recog test,2023.1.3,59.93080389716869,
190,0,190,0,,,,,,,,,,,,,,,,,,,,,,,,,,,,,,,,,,,,715.6514144999674,716.6662176999962,714.0853671999648,714.0853671999648,714.0853671999648,714.0853671999648,old_sceneIn_40.png,191,4.0,1.564425199991092,,,044,10,2025-04-08_14h34.10.006,Surprise recog test,2023.1.3,59.93080389716869,
191,0,191,0,,,,,,,,,,,,,,,,,,,,,,,,,,,,,,,,,,,,719.9110762999626,720.9304965999909,716.6662176999962,716.6662176999962,716.6662176999962,716.6662176999962,new_fruit_36.png,192,3.0,3.23574400000507,,,044,10,2025-04-08_14h34.10.006,Surprise recog test,2023.1.3,59.93080389716869,
192,0,192,0,,,,,,,,,,,,,,,,,,,,,,,,,,,,,,,,,,,,722.5373590999516,723.5673441999825,720.9304965999909,720.9304965999909,720.9304965999909,720.9304965999909,new_fruit_40.png,193,4.0,1.6062060000258498,,,044,10,2025-04-08_14h34.10.006,Surprise recog test,2023.1.3,59.93080389716869,
193,0,193,0,,,,,,,,,,,,,,,,,,,,,,,,,,,,,,,,,,,,724.5615082999575,725.5734196999692,723.5673441999825,723.5673441999825,723.5673441999825,723.5673441999825,old_sceneOut_28.png,194,4.0,0.996091700042598,,,044,10,2025-04-08_14h34.10.006,Surprise recog test,2023.1.3,59.93080389716869,
194,0,194,0,,,,,,,,,,,,,,,,,,,,,,,,,,,,,,,,,,,,726.858631399984,727.8940981999622,725.5734196999692,725.5734196999692,725.5734196999692,725.5734196999692,old_sceneIn_46.png,195,4.0,1.280667999992147,,,044,10,2025-04-08_14h34.10.006,Surprise recog test,2023.1.3,59.93080389716869,
195,0,195,0,,,,,,,,,,,,,,,,,,,,,,,,,,,,,,,,,,,,729.0743311999831,730.1021025999798,727.8940981999622,727.8940981999622,727.8940981999622,727.8940981999622,new_fruit_24.png,196,4.0,1.1833889000117779,,,044,10,2025-04-08_14h34.10.006,Surprise recog test,2023.1.3,59.93080389716869,
196,0,196,0,,,,,,,,,,,,,,,,,,,,,,,,,,,,,,,,,,,,731.9764244999969,732.9962214999832,730.1021025999798,730.1021025999798,730.1021025999798,730.1021025999798,old_fruit_41.png,197,3.0,1.877142500015907,,,044,10,2025-04-08_14h34.10.006,Surprise recog test,2023.1.3,59.93080389716869,
197,0,197,0,,,,,,,,,,,,,,,,,,,,,,,,,,,,,,,,,,,,735.3216133999522,736.3443016999518,732.9962214999832,732.9962214999832,732.9962214999832,732.9962214999832,old_sceneIn_5.png,198,4.0,2.32065850001527,,,044,10,2025-04-08_14h34.10.006,Surprise recog test,2023.1.3,59.93080389716869,
198,0,198,0,,,,,,,,,,,,,,,,,,,,,,,,,,,,,,,,,,,,737.2854205999756,738.3052917000023,736.3443016999518,736.3443016999518,736.3443016999518,736.3443016999518,new_sceneIn_16.png,199,4.0,0.9430707999854349,,,044,10,2025-04-08_14h34.10.006,Surprise recog test,2023.1.3,59.93080389716869,
199,0,199,0,,,,,,,,,,,,,,,,,,,,,,,,,,,,,,,,,,,,740.2728953000042,741.2905803999747,738.3052917000023,738.3052917000023,738.3052917000023,738.3052917000023,new_fruit_16.png,200,3.0,1.9681865000166,,,044,10,2025-04-08_14h34.10.006,Surprise recog test,2023.1.3,59.93080389716869,
200,0,200,0,,,,,,,,,,,,,,,,,,,,,,,,,,,,,,,,,,,,743.0182787999511,744.05056959996,741.2905803999747,741.2905803999747,741.2905803999747,741.2905803999747,new_sceneOut_8.png,201,4.0,1.728537500021048,,,044,10,2025-04-08_14h34.10.006,Surprise recog test,2023.1.3,59.93080389716869,
201,0,201,0,,,,,,,,,,,,,,,,,,,,,,,,,,,,,,,,,,,,746.4048856999725,747.4359664999647,744.05056959996,744.05056959996,744.05056959996,744.05056959996,new_stationery_25.png,202,3.0,2.3558760000159964,,,044,10,2025-04-08_14h34.10.006,Surprise recog test,2023.1.3,59.93080389716869,
202,0,202,0,,,,,,,,,,,,,,,,,,,,,,,,,,,,,,,,,,,,748.4060582999955,749.4393467999762,747.4359664999647,747.4359664999647,747.4359664999647,747.4359664999647,old_sceneIn_1.png,203,3.0,0.9719475000165403,,,044,10,2025-04-08_14h34.10.006,Surprise recog test,2023.1.3,59.93080389716869,
203,0,203,0,,,,,,,,,,,,,,,,,,,,,,,,,,,,,,,,,,,,750.4757776999613,751.494961999997,749.4393467999762,749.4393467999762,749.4393467999762,749.4393467999762,new_sceneOut_42.png,204,3.0,1.0357526000007056,,,044,10,2025-04-08_14h34.10.006,Surprise recog test,2023.1.3,59.93080389716869,
204,0,204,0,,,,,,,,,,,,,,,,,,,,,,,,,,,,,,,,,,,,752.3104749999475,753.3295895999763,751.494961999997,751.494961999997,751.494961999997,751.494961999997,new_sceneOut_37.png,205,3.0,0.8106122000026517,,,044,10,2025-04-08_14h34.10.006,Surprise recog test,2023.1.3,59.93080389716869,
205,0,205,0,,,,,,,,,,,,,,,,,,,,,,,,,,,,,,,,,,,,755.2870516999974,756.3101924999501,753.3295895999763,753.3295895999763,753.3295895999763,753.3295895999763,new_stationery_44.png,206,2.0,1.954351400025189,,,044,10,2025-04-08_14h34.10.006,Surprise recog test,2023.1.3,59.93080389716869,
206,0,206,0,,,,,,,,,,,,,,,,,,,,,,,,,,,,,,,,,,,,758.3572745999554,759.368387399998,756.3101924999501,756.3101924999501,756.3101924999501,756.3101924999501,new_sceneOut_14.png,207,4.0,2.0467299000010826,,,044,10,2025-04-08_14h34.10.006,Surprise recog test,2023.1.3,59.93080389716869,
207,0,207,0,,,,,,,,,,,,,,,,,,,,,,,,,,,,,,,,,,,,760.7239110999508,761.7416736999876,759.368387399998,759.368387399998,759.368387399998,759.368387399998,new_sceneIn_23.png,208,4.0,1.3509957999922335,,,044,10,2025-04-08_14h34.10.006,Surprise recog test,2023.1.3,59.93080389716869,
208,0,208,0,,,,,,,,,,,,,,,,,,,,,,,,,,,,,,,,,,,,762.6039294999791,763.6326903000008,761.7416736999876,761.7416736999876,761.7416736999876,761.7416736999876,new_sceneOut_35.png,209,4.0,0.863956099958159,,,044,10,2025-04-08_14h34.10.006,Surprise recog test,2023.1.3,59.93080389716869,
209,0,209,0,,,,,,,,,,,,,,,,,,,,,,,,,,,,,,,,,,,,766.1482179999584,767.1671414999873,763.6326903000008,763.6326903000008,763.6326903000008,763.6326903000008,old_stationery_2.png,210,1.0,2.5200655999942683,,,044,10,2025-04-08_14h34.10.006,Surprise recog test,2023.1.3,59.93080389716869,
210,0,210,0,,,,,,,,,,,,,,,,,,,,,,,,,,,,,,,,,,,,769.1264260999742,770.148616899969,767.1671414999873,767.1671414999873,767.1671414999873,767.1671414999873,old_sceneIn_50.png,211,4.0,1.959815800015349,,,044,10,2025-04-08_14h34.10.006,Surprise recog test,2023.1.3,59.93080389716869,
211,0,211,0,,,,,,,,,,,,,,,,,,,,,,,,,,,,,,,,,,,,772.2397228999762,773.2493146999623,770.148616899969,770.148616899969,770.148616899969,770.148616899969,new_sceneIn_10.png,212,4.0,2.0913545000366867,,,044,10,2025-04-08_14h34.10.006,Surprise recog test,2023.1.3,59.93080389716869,
212,0,212,0,,,,,,,,,,,,,,,,,,,,,,,,,,,,,,,,,,,,774.8615622999496,775.8885995000019,773.2493146999623,773.2493146999623,773.2493146999623,773.2493146999623,new_fruit_45.png,213,3.0,1.6117661999887787,,,044,10,2025-04-08_14h34.10.006,Surprise recog test,2023.1.3,59.93080389716869,
213,0,213,0,,,,,,,,,,,,,,,,,,,,,,,,,,,,,,,,,,,,778.1487630999763,779.1682769999607,775.8885995000019,775.8885995000019,775.8885995000019,775.8885995000019,new_stationery_49.png,214,3.0,2.2624496999778785,,,044,10,2025-04-08_14h34.10.006,Surprise recog test,2023.1.3,59.93080389716869,
214,0,214,0,,,,,,,,,,,,,,,,,,,,,,,,,,,,,,,,,,,,780.5543138999492,781.5885376999504,779.1682769999607,779.1682769999607,779.1682769999607,779.1682769999607,old_sceneOut_40.png,215,3.0,1.3824923999491148,,,044,10,2025-04-08_14h34.10.006,Surprise recog test,2023.1.3,59.93080389716869,
215,0,215,0,,,,,,,,,,,,,,,,,,,,,,,,,,,,,,,,,,,,782.9980919999653,784.0046355999657,781.5885376999504,781.5885376999504,781.5885376999504,781.5885376999504,old_fruit_4.png,216,3.0,1.412508700042963,,,044,10,2025-04-08_14h34.10.006,Surprise recog test,2023.1.3,59.93080389716869,
216,0,216,0,,,,,,,,,,,,,,,,,,,,,,,,,,,,,,,,,,,,786.7764604999684,787.7919519999996,784.0046355999657,784.0046355999657,784.0046355999657,784.0046355999657,old_stationery_34.png,217,1.0,2.7655447000288405,,,044,10,2025-04-08_14h34.10.006,Surprise recog test,2023.1.3,59.93080389716869,
217,0,217,0,,,,,,,,,,,,,,,,,,,,,,,,,,,,,,,,,,,,789.9789529999834,790.9907079999684,787.7919519999996,787.7919519999996,787.7919519999996,787.7919519999996,new_sceneIn_34.png,218,4.0,2.1824169000028633,,,044,10,2025-04-08_14h34.10.006,Surprise recog test,2023.1.3,59.93080389716869,
218,0,218,0,,,,,,,,,,,,,,,,,,,,,,,,,,,,,,,,,,,,792.8207220999757,793.8413253999897,790.9907079999684,790.9907079999684,790.9907079999684,790.9907079999684,new_stationery_5.png,219,1.0,1.8260977999889292,,,044,10,2025-04-08_14h34.10.006,Surprise recog test,2023.1.3,59.93080389716869,
219,0,219,0,,,,,,,,,,,,,,,,,,,,,,,,,,,,,,,,,,,,795.141104099981,796.1602493999526,793.8413253999897,793.8413253999897,793.8413253999897,793.8413253999897,new_stationery_45.png,220,1.0,1.3024626999977045,,,044,10,2025-04-08_14h34.10.006,Surprise recog test,2023.1.3,59.93080389716869,
220,0,220,0,,,,,,,,,,,,,,,,,,,,,,,,,,,,,,,,,,,,798.0564926999505,799.0800324999727,796.1602493999526,796.1602493999526,796.1602493999526,796.1602493999526,new_stationery_28.png,221,1.0,1.8966605000314303,,,044,10,2025-04-08_14h34.10.006,Surprise recog test,2023.1.3,59.93080389716869,
221,0,221,0,,,,,,,,,,,,,,,,,,,,,,,,,,,,,,,,,,,,801.9547071999987,802.9816879999707,799.0800324999727,799.0800324999727,799.0800324999727,799.0800324999727,new_stationery_26.png,222,3.0,2.8769966999534518,,,044,10,2025-04-08_14h34.10.006,Surprise recog test,2023.1.3,59.93080389716869,
222,0,222,0,,,,,,,,,,,,,,,,,,,,,,,,,,,,,,,,,,,,805.434063499968,806.4542124999571,802.9816879999707,802.9816879999707,802.9816879999707,802.9816879999707,old_sceneOut_36.png,223,4.0,2.4525446000043303,,,044,10,2025-04-08_14h34.10.006,Surprise recog test,2023.1.3,59.93080389716869,
223,0,223,0,,,,,,,,,,,,,,,,,,,,,,,,,,,,,,,,,,,,808.9026498000021,809.9240259999642,806.4542124999571,806.4542124999571,806.4542124999571,806.4542124999571,old_fruit_35.png,224,3.0,2.4506614999845624,,,044,10,2025-04-08_14h34.10.006,Surprise recog test,2023.1.3,59.93080389716869,
224,0,224,0,,,,,,,,,,,,,,,,,,,,,,,,,,,,,,,,,,,,811.6562787999865,,809.9240259999642,809.9240259999642,809.9240259999642,809.9240259999642,new_sceneOut_31.png,225,4.0,1.734508600027766,,,044,10,2025-04-08_14h34.10.006,Surprise recog test,2023.1.3,59.93080389716869,
225,0,225,0,,,,,,,,,,,,,,,,,,,,,,,,,,,,,,,,,,,,815.1266507999972,,812.6778824999928,812.6778824999928,812.6778824999928,812.6778824999928,old_stationery_50.png,226,1.0,2.445201000024099,,,044,10,2025-04-08_14h34.10.006,Surprise recog test,2023.1.3,59.93080389716869,
226,0,226,0,,,,,,,,,,,,,,,,,,,,,,,,,,,,,,,,,,,,818.5496308999718,819.5679272999987,816.1597013999708,816.1597013999708,816.1597013999708,816.1597013999708,old_sceneIn_17.png,227,4.0,2.3921484000165947,,,044,10,2025-04-08_14h34.10.006,Surprise recog test,2023.1.3,59.93080389716869,
227,0,227,0,,,,,,,,,,,,,,,,,,,,,,,,,,,,,,,,,,,,821.6814391999505,,819.5679272999987,819.5679272999987,819.5679272999987,819.5679272999987,old_stationery_44.png,228,2.0,2.109046199999284,,,044,10,2025-04-08_14h34.10.006,Surprise recog test,2023.1.3,59.93080389716869,
228,0,228,0,,,,,,,,,,,,,,,,,,,,,,,,,,,,,,,,,,,,824.5530624999665,825.5717836999684,822.7029564999975,822.7029564999975,822.7029564999975,822.7029564999975,new_sceneIn_37.png,229,4.0,1.8461751999566332,,,044,10,2025-04-08_14h34.10.006,Surprise recog test,2023.1.3,59.93080389716869,
229,0,229,0,,,,,,,,,,,,,,,,,,,,,,,,,,,,,,,,,,,,827.2135798999807,828.2373867999995,825.5717836999684,825.5717836999684,825.5717836999684,825.5717836999684,new_fruit_2.png,230,3.0,1.6380861999932677,,,044,10,2025-04-08_14h34.10.006,Surprise recog test,2023.1.3,59.93080389716869,
230,0,230,0,,,,,,,,,,,,,,,,,,,,,,,,,,,,,,,,,,,,830.0792762999772,831.101470499998,828.2373867999995,828.2373867999995,828.2373867999995,828.2373867999995,old_sceneOut_48.png,231,3.0,1.8438781999866478,,,044,10,2025-04-08_14h34.10.006,Surprise recog test,2023.1.3,59.93080389716869,
231,0,231,0,,,,,,,,,,,,,,,,,,,,,,,,,,,,,,,,,,,,833.4532201999682,834.4730178999598,831.101470499998,831.101470499998,831.101470499998,831.101470499998,old_stationery_47.png,232,1.0,2.3502925999928266,,,044,10,2025-04-08_14h34.10.006,Surprise recog test,2023.1.3,59.93080389716869,
232,0,232,0,,,,,,,,,,,,,,,,,,,,,,,,,,,,,,,,,,,,838.2594648999511,839.2776449999656,834.4730178999598,834.4730178999598,834.4730178999598,834.4730178999598,new_sceneIn_50.png,233,4.0,3.786286399990786,,,044,10,2025-04-08_14h34.10.006,Surprise recog test,2023.1.3,59.93080389716869,
233,0,233,0,,,,,,,,,,,,,,,,,,,,,,,,,,,,,,,,,,,,841.4421710000024,842.4659122999874,839.2776449999656,839.2776449999656,839.2776449999656,839.2776449999656,new_stationery_11.png,234,3.0,2.163452700013295,,,044,10,2025-04-08_14h34.10.006,Surprise recog test,2023.1.3,59.93080389716869,
234,0,234,0,,,,,,,,,,,,,,,,,,,,,,,,,,,,,,,,,,,,846.99174519995,848.009530499985,842.4659122999874,842.4659122999874,842.4659122999874,842.4659122999874,old_sceneIn_2.png,235,3.0,4.52691000001505,,,044,10,2025-04-08_14h34.10.006,Surprise recog test,2023.1.3,59.93080389716869,
235,0,235,0,,,,,,,,,,,,,,,,,,,,,,,,,,,,,,,,,,,,850.5955733999726,851.6307850999874,848.009530499985,848.009530499985,848.009530499985,848.009530499985,new_sceneIn_17.png,236,4.0,2.583828500006348,,,044,10,2025-04-08_14h34.10.006,Surprise recog test,2023.1.3,59.93080389716869,
236,0,236,0,,,,,,,,,,,,,,,,,,,,,,,,,,,,,,,,,,,,853.3881302999798,854.4095612999517,851.6307850999874,851.6307850999874,851.6307850999874,851.6307850999874,old_fruit_13.png,237,3.0,1.7613151000114158,,,044,10,2025-04-08_14h34.10.006,Surprise recog test,2023.1.3,59.93080389716869,
237,0,237,0,,,,,,,,,,,,,,,,,,,,,,,,,,,,,,,,,,,,855.6943461999763,,854.4095612999517,854.4095612999517,854.4095612999517,854.4095612999517,old_fruit_7.png,238,3.0,1.2871089999680407,,,044,10,2025-04-08_14h34.10.006,Surprise recog test,2023.1.3,59.93080389716869,
238,0,238,0,,,,,,,,,,,,,,,,,,,,,,,,,,,,,,,,,,,,858.5972465999657,,856.7256127999863,856.7256127999863,856.7256127999863,856.7256127999863,new_stationery_12.png,239,1.0,1.8715208999929018,,,044,10,2025-04-08_14h34.10.006,Surprise recog test,2023.1.3,59.93080389716869,
239,0,239,0,,,,,,,,,,,,,,,,,,,,,,,,,,,,,,,,,,,,861.6205760999583,862.6488178999862,859.6226974999881,859.6226974999881,859.6226974999881,859.6226974999881,old_stationery_9.png,240,2.0,1.9931878999923356,,,044,10,2025-04-08_14h34.10.006,Surprise recog test,2023.1.3,59.93080389716869,
240,0,240,0,,,,,,,,,,,,,,,,,,,,,,,,,,,,,,,,,,,,864.4706149999984,865.4860928999842,862.6488178999862,862.6488178999862,862.6488178999862,862.6488178999862,new_sceneIn_45.png,241,4.0,1.8242999999783933,,,044,10,2025-04-08_14h34.10.006,Surprise recog test,2023.1.3,59.93080389716869,
241,0,241,0,,,,,,,,,,,,,,,,,,,,,,,,,,,,,,,,,,,,866.7614290999481,867.7829785999493,865.4860928999842,865.4860928999842,865.4860928999842,865.4860928999842,new_fruit_20.png,242,4.0,1.2710386000107974,,,044,10,2025-04-08_14h34.10.006,Surprise recog test,2023.1.3,59.93080389716869,
242,0,242,0,,,,,,,,,,,,,,,,,,,,,,,,,,,,,,,,,,,,869.418679800001,870.4376715999679,867.7829785999493,867.7829785999493,867.7829785999493,867.7829785999493,new_sceneIn_4.png,243,4.0,1.6377935000346042,,,044,10,2025-04-08_14h34.10.006,Surprise recog test,2023.1.3,59.93080389716869,
243,0,243,0,,,,,,,,,,,,,,,,,,,,,,,,,,,,,,,,,,,,873.1883213999681,874.2104719999479,870.4376715999679,870.4376715999679,870.4376715999679,870.4376715999679,new_sceneIn_20.png,244,3.0,2.745537900016643,,,044,10,2025-04-08_14h34.10.006,Surprise recog test,2023.1.3,59.93080389716869,
244,0,244,0,,,,,,,,,,,,,,,,,,,,,,,,,,,,,,,,,,,,875.2128735999577,876.2420682999655,874.2104719999479,874.2104719999479,874.2104719999479,874.2104719999479,old_fruit_24.png,245,3.0,1.0061703999526799,,,044,10,2025-04-08_14h34.10.006,Surprise recog test,2023.1.3,59.93080389716869,
245,0,245,0,,,,,,,,,,,,,,,,,,,,,,,,,,,,,,,,,,,,879.9384437999688,880.9575081999646,876.2420682999655,876.2420682999655,876.2420682999655,876.2420682999655,new_stationery_21.png,246,5.0,3.7002921999664977,,,044,10,2025-04-08_14h34.10.006,Surprise recog test,2023.1.3,59.93080389716869,
246,0,246,0,,,,,,,,,,,,,,,,,,,,,,,,,,,,,,,,,,,,883.0631506999489,884.0851586999488,880.9575081999646,880.9575081999646,880.9575081999646,880.9575081999646,old_stationery_46.png,247,2.0,2.095066800015047,,,044,10,2025-04-08_14h34.10.006,Surprise recog test,2023.1.3,59.93080389716869,
247,0,247,0,,,,,,,,,,,,,,,,,,,,,,,,,,,,,,,,,,,,886.5336254999856,887.5507479999796,884.0851586999488,884.0851586999488,884.0851586999488,884.0851586999488,old_sceneOut_13.png,248,4.0,2.4531323999981396,,,044,10,2025-04-08_14h34.10.006,Surprise recog test,2023.1.3,59.93080389716869,
248,0,248,0,,,,,,,,,,,,,,,,,,,,,,,,,,,,,,,,,,,,889.3555511999875,,887.5507479999796,887.5507479999796,887.5507479999796,887.5507479999796,old_sceneOut_8.png,249,4.0,1.806487100024242,,,044,10,2025-04-08_14h34.10.006,Surprise recog test,2023.1.3,59.93080389716869,
249,0,249,0,,,,,,,,,,,,,,,,,,,,,,,,,,,,,,,,,,,,891.8739857999608,,890.384853800002,890.384853800002,890.384853800002,890.384853800002,old_sceneIn_24.png,250,4.0,1.4912985999835655,,,044,10,2025-04-08_14h34.10.006,Surprise recog test,2023.1.3,59.93080389716869,
250,0,250,0,,,,,,,,,,,,,,,,,,,,,,,,,,,,,,,,,,,,894.9098606999614,,892.902306999953,892.902306999953,892.902306999953,892.902306999953,old_fruit_29.png,251,3.0,2.0078112999908626,,,044,10,2025-04-08_14h34.10.006,Surprise recog test,2023.1.3,59.93080389716869,
251,0,251,0,,,,,,,,,,,,,,,,,,,,,,,,,,,,,,,,,,,,897.8087308999966,898.8204237999744,895.9421784000006,895.9421784000006,895.9421784000006,895.9421784000006,old_stationery_41.png,252,2.0,1.867378800001461,,,044,10,2025-04-08_14h34.10.006,Surprise recog test,2023.1.3,59.93080389716869,
252,0,252,0,,,,,,,,,,,,,,,,,,,,,,,,,,,,,,,,,,,,902.2980381999514,,898.8204237999744,898.8204237999744,898.8204237999744,898.8204237999744,old_fruit_16.png,253,3.0,3.4766801999649033,,,044,10,2025-04-08_14h34.10.006,Surprise recog test,2023.1.3,59.93080389716869,
253,0,253,0,,,,,,,,,,,,,,,,,,,,,,,,,,,,,,,,,,,,906.4325725999661,907.4460296999896,903.332948700001,903.332948700001,903.332948700001,903.332948700001,new_stationery_50.png,254,1.0,3.101080799999181,,,044,10,2025-04-08_14h34.10.006,Surprise recog test,2023.1.3,59.93080389716869,
254,0,254,0,,,,,,,,,,,,,,,,,,,,,,,,,,,,,,,,,,,,909.9920899999561,911.0071233999915,907.4460296999896,907.4460296999896,907.4460296999896,907.4460296999896,new_sceneIn_1.png,255,4.0,2.5476409000111744,,,044,10,2025-04-08_14h34.10.006,Surprise recog test,2023.1.3,59.93080389716869,
255,0,255,0,,,,,,,,,,,,,,,,,,,,,,,,,,,,,,,,,,,,912.2075535999611,,911.0071233999915,911.0071233999915,911.0071233999915,911.0071233999915,new_sceneIn_13.png,256,4.0,1.1950503999833018,,,044,10,2025-04-08_14h34.10.006,Surprise recog test,2023.1.3,59.93080389716869,
256,0,256,0,,,,,,,,,,,,,,,,,,,,,,,,,,,,,,,,,,,,915.3037193999626,916.3271764999954,913.244226699986,913.244226699986,913.244226699986,913.244226699986,old_sceneOut_7.png,257,3.0,2.0637404000153765,,,044,10,2025-04-08_14h34.10.006,Surprise recog test,2023.1.3,59.93080389716869,
257,0,257,0,,,,,,,,,,,,,,,,,,,,,,,,,,,,,,,,,,,,918.1532635999611,919.1663636000012,916.3271764999954,916.3271764999954,916.3271764999954,916.3271764999954,old_stationery_8.png,258,2.0,1.8269106000079773,,,044,10,2025-04-08_14h34.10.006,Surprise recog test,2023.1.3,59.93080389716869,
258,0,258,0,,,,,,,,,,,,,,,,,,,,,,,,,,,,,,,,,,,,920.7880468999501,921.8021364999586,919.1663636000012,919.1663636000012,919.1663636000012,919.1663636000012,old_sceneOut_15.png,259,4.0,1.6152398999547586,,,044,10,2025-04-08_14h34.10.006,Surprise recog test,2023.1.3,59.93080389716869,
259,0,259,0,,,,,,,,,,,,,,,,,,,,,,,,,,,,,,,,,,,,925.6485251999693,926.6583888999885,921.8021364999586,921.8021364999586,921.8021364999586,921.8021364999586,new_stationery_30.png,260,2.0,3.835235400008969,,,044,10,2025-04-08_14h34.10.006,Surprise recog test,2023.1.3,59.93080389716869,
260,0,260,0,,,,,,,,,,,,,,,,,,,,,,,,,,,,,,,,,,,,928.7383329999866,,926.6583888999885,926.6583888999885,926.6583888999885,926.6583888999885,old_sceneIn_25.png,261,4.0,2.0756766999838874,,,044,10,2025-04-08_14h34.10.006,Surprise recog test,2023.1.3,59.93080389716869,
261,0,261,0,,,,,,,,,,,,,,,,,,,,,,,,,,,,,,,,,,,,932.3441217999789,933.3680611999589,929.7706932000001,929.7706932000001,929.7706932000001,929.7706932000001,old_stationery_25.png,262,1.0,2.575376100023277,,,044,10,2025-04-08_14h34.10.006,Surprise recog test,2023.1.3,59.93080389716869,
262,0,262,0,,,,,,,,,,,,,,,,,,,,,,,,,,,,,,,,,,,,935.8530436999863,936.8651646999642,933.3680611999589,933.3680611999589,933.3680611999589,933.3680611999589,old_fruit_36.png,263,3.0,2.4816779000102542,,,044,10,2025-04-08_14h34.10.006,Surprise recog test,2023.1.3,59.93080389716869,
263,0,263,0,,,,,,,,,,,,,,,,,,,,,,,,,,,,,,,,,,,,939.0226520999568,940.0436653999495,936.8651646999642,936.8651646999642,936.8651646999642,936.8651646999642,old_sceneIn_10.png,264,4.0,2.1529596999753267,,,044,10,2025-04-08_14h34.10.006,Surprise recog test,2023.1.3,59.93080389716869,
264,0,264,0,,,,,,,,,,,,,,,,,,,,,,,,,,,,,,,,,,,,941.5377845999901,942.5650165999541,940.0436653999495,940.0436653999495,940.0436653999495,940.0436653999495,new_fruit_4.png,265,3.0,1.4958273000083864,,,044,10,2025-04-08_14h34.10.006,Surprise recog test,2023.1.3,59.93080389716869,
265,0,265,0,,,,,,,,,,,,,,,,,,,,,,,,,,,,,,,,,,,,944.4480692999787,945.468623099965,942.5650165999541,942.5650165999541,942.5650165999541,942.5650165999541,old_stationery_17.png,266,3.0,1.8852109999861568,,,044,10,2025-04-08_14h34.10.006,Surprise recog test,2023.1.3,59.93080389716869,
266,0,266,0,,,,,,,,,,,,,,,,,,,,,,,,,,,,,,,,,,,,947.4742471999489,948.5032963999547,945.468623099965,945.468623099965,945.468623099965,945.468623099965,new_sceneIn_32.png,267,4.0,2.0079476999817416,,,044,10,2025-04-08_14h34.10.006,Surprise recog test,2023.1.3,59.93080389716869,
267,0,267,0,,,,,,,,,,,,,,,,,,,,,,,,,,,,,,,,,,,,950.0717942999909,,948.5032963999547,948.5032963999547,948.5032963999547,948.5032963999547,old_stationery_35.png,268,2.0,1.5710153000545688,,,044,10,2025-04-08_14h34.10.006,Surprise recog test,2023.1.3,59.93080389716869,
268,0,268,0,,,,,,,,,,,,,,,,,,,,,,,,,,,,,,,,,,,,952.831342999998,953.8533157999627,951.1058967999998,951.1058967999998,951.1058967999998,951.1058967999998,new_sceneOut_45.png,269,4.0,1.7267959999735467,,,044,10,2025-04-08_14h34.10.006,Surprise recog test,2023.1.3,59.93080389716869,
269,0,269,0,,,,,,,,,,,,,,,,,,,,,,,,,,,,,,,,,,,,955.1811578999623,956.1993255999987,953.8533157999627,953.8533157999627,953.8533157999627,953.8533157999627,old_sceneIn_16.png,270,4.0,1.32771560002584,,,044,10,2025-04-08_14h34.10.006,Surprise recog test,2023.1.3,59.93080389716869,
270,0,270,0,,,,,,,,,,,,,,,,,,,,,,,,,,,,,,,,,,,,958.3831561999978,959.4112822999596,956.1993255999987,956.1993255999987,956.1993255999987,956.1993255999987,old_stationery_27.png,271,1.0,2.180048599955626,,,044,10,2025-04-08_14h34.10.006,Surprise recog test,2023.1.3,59.93080389716869,
271,0,271,0,,,,,,,,,,,,,,,,,,,,,,,,,,,,,,,,,,,,961.2240069999825,962.2323265000014,959.4112822999596,959.4112822999596,959.4112822999596,959.4112822999596,new_sceneIn_22.png,272,4.0,1.8136460999958217,,,044,10,2025-04-08_14h34.10.006,Surprise recog test,2023.1.3,59.93080389716869,
272,0,272,0,,,,,,,,,,,,,,,,,,,,,,,,,,,,,,,,,,,,964.2942204999854,965.3152648999821,962.2323265000014,962.2323265000014,962.2323265000014,962.2323265000014,old_stationery_40.png,273,1.0,2.058198300015647,,,044,10,2025-04-08_14h34.10.006,Surprise recog test,2023.1.3,59.93080389716869,
273,0,273,0,,,,,,,,,,,,,,,,,,,,,,,,,,,,,,,,,,,,966.6661405999912,967.6738392999978,965.3152648999821,965.3152648999821,965.3152648999821,965.3152648999821,old_fruit_48.png,274,1.0,1.3474297999637201,,,044,10,2025-04-08_14h34.10.006,Surprise recog test,2023.1.3,59.93080389716869,
274,0,274,0,,,,,,,,,,,,,,,,,,,,,,,,,,,,,,,,,,,,969.7663841999602,970.7769970999798,967.6738392999978,967.6738392999978,967.6738392999978,967.6738392999978,new_fruit_25.png,275,3.0,2.0884123999858275,,,044,10,2025-04-08_14h34.10.006,Surprise recog test,2023.1.3,59.93080389716869,
275,0,275,0,,,,,,,,,,,,,,,,,,,,,,,,,,,,,,,,,,,,972.752024699992,973.7753962999559,970.7769970999798,970.7769970999798,970.7769970999798,970.7769970999798,new_sceneOut_32.png,276,4.0,1.9664296999690123,,,044,10,2025-04-08_14h34.10.006,Surprise recog test,2023.1.3,59.93080389716869,
276,0,276,0,,,,,,,,,,,,,,,,,,,,,,,,,,,,,,,,,,,,974.8033483999898,975.8177804999868,973.7753962999559,973.7753962999559,973.7753962999559,973.7753962999559,old_sceneOut_35.png,277,4.0,1.026363599987235,,,044,10,2025-04-08_14h34.10.006,Surprise recog test,2023.1.3,59.93080389716869,
277,0,277,0,,,,,,,,,,,,,,,,,,,,,,,,,,,,,,,,,,,,977.6750851999968,978.6881375999656,975.8177804999868,975.8177804999868,975.8177804999868,975.8177804999868,old_sceneOut_46.png,278,3.0,1.85245040000882,,,044,10,2025-04-08_14h34.10.006,Surprise recog test,2023.1.3,59.93080389716869,
278,0,278,0,,,,,,,,,,,,,,,,,,,,,,,,,,,,,,,,,,,,981.1525850999751,982.1676463999902,978.6881375999656,978.6881375999656,978.6881375999656,978.6881375999656,old_stationery_30.png,279,1.0,2.464726200036239,,,044,10,2025-04-08_14h34.10.006,Surprise recog test,2023.1.3,59.93080389716869,
279,0,279,0,,,,,,,,,,,,,,,,,,,,,,,,,,,,,,,,,,,,984.5743785999948,985.6002997999894,982.1676463999902,982.1676463999902,982.1676463999902,982.1676463999902,new_fruit_44.png,280,3.0,2.404174699971918,,,044,10,2025-04-08_14h34.10.006,Surprise recog test,2023.1.3,59.93080389716869,
280,0,280,0,,,,,,,,,,,,,,,,,,,,,,,,,,,,,,,,,,,,987.9234265999985,988.9462179999682,985.6002997999894,985.6002997999894,985.6002997999894,985.6002997999894,old_sceneIn_29.png,281,5.0,2.3232348000165075,,,044,10,2025-04-08_14h34.10.006,Surprise recog test,2023.1.3,59.93080389716869,
281,0,281,0,,,,,,,,,,,,,,,,,,,,,,,,,,,,,,,,,,,,991.0764665000024,992.1059420999954,988.9462179999682,988.9462179999682,988.9462179999682,988.9462179999682,new_stationery_36.png,282,2.0,2.1297832000418566,,,044,10,2025-04-08_14h34.10.006,Surprise recog test,2023.1.3,59.93080389716869,
282,0,282,0,,,,,,,,,,,,,,,,,,,,,,,,,,,,,,,,,,,,994.208071400004,,992.1059420999954,992.1059420999954,992.1059420999954,992.1059420999954,new_stationery_32.png,283,3.0,2.1014328000019304,,,044,10,2025-04-08_14h34.10.006,Surprise recog test,2023.1.3,59.93080389716869,
283,0,283,0,,,,,,,,,,,,,,,,,,,,,,,,,,,,,,,,,,,,996.8783460999839,,995.2467162999674,995.2467162999674,995.2467162999674,995.2467162999674,new_sceneOut_12.png,284,4.0,1.636325100029353,,,044,10,2025-04-08_14h34.10.006,Surprise recog test,2023.1.3,59.93080389716869,
284,0,284,0,,,,,,,,,,,,,,,,,,,,,,,,,,,,,,,,,,,,999.6641217999859,,997.9134831999545,997.9134831999545,997.9134831999545,997.9134831999545,new_fruit_31.png,285,3.0,1.7523662999738008,,,044,10,2025-04-08_14h34.10.006,Surprise recog test,2023.1.3,59.93080389716869,
285,0,285,0,,,,,,,,,,,,,,,,,,,,,,,,,,,,,,,,,,,,1002.4269321999745,1003.4473515999853,1000.6819232999696,1000.6819232999696,1000.6819232999696,1000.6819232999696,old_sceneIn_34.png,286,4.0,1.7395075999666005,,,044,10,2025-04-08_14h34.10.006,Surprise recog test,2023.1.3,59.93080389716869,
286,0,286,0,,,,,,,,,,,,,,,,,,,,,,,,,,,,,,,,,,,,1004.6475968000013,1005.6606004999485,1003.4473515999853,1003.4473515999853,1003.4473515999853,1003.4473515999853,old_sceneOut_30.png,287,4.0,1.1952311999630183,,,044,10,2025-04-08_14h34.10.006,Surprise recog test,2023.1.3,59.93080389716869,
287,0,287,0,,,,,,,,,,,,,,,,,,,,,,,,,,,,,,,,,,,,1006.9107650999795,1007.9358854999882,1005.6606004999485,1005.6606004999485,1005.6606004999485,1005.6606004999485,old_sceneOut_34.png,288,4.0,1.2501837000017986,,,044,10,2025-04-08_14h34.10.006,Surprise recog test,2023.1.3,59.93080389716869,
288,0,288,0,,,,,,,,,,,,,,,,,,,,,,,,,,,,,,,,,,,,1009.2634207999799,1010.2831563999644,1007.9358854999882,1007.9358854999882,1007.9358854999882,1007.9358854999882,old_fruit_28.png,289,4.0,1.3265366000123322,,,044,10,2025-04-08_14h34.10.006,Surprise recog test,2023.1.3,59.93080389716869,
289,0,289,0,,,,,,,,,,,,,,,,,,,,,,,,,,,,,,,,,,,,1012.1812843999942,1013.2070510999765,1010.2831563999644,1010.2831563999644,1010.2831563999644,1010.2831563999644,new_stationery_4.png,290,3.0,1.8968335000099614,,,044,10,2025-04-08_14h34.10.006,Surprise recog test,2023.1.3,59.93080389716869,
290,0,290,0,,,,,,,,,,,,,,,,,,,,,,,,,,,,,,,,,,,,1015.0236363000004,1016.0391182999592,1013.2070510999765,1013.2070510999765,1013.2070510999765,1013.2070510999765,old_sceneOut_49.png,291,4.0,1.8189124999917112,,,044,10,2025-04-08_14h34.10.006,Surprise recog test,2023.1.3,59.93080389716869,
291,0,291,0,,,,,,,,,,,,,,,,,,,,,,,,,,,,,,,,,,,,1018.3253869999899,1019.3442500999663,1016.0391182999592,1016.0391182999592,1016.0391182999592,1016.0391182999592,new_stationery_14.png,292,3.0,2.285991200013086,,,044,10,2025-04-08_14h34.10.006,Surprise recog test,2023.1.3,59.93080389716869,
292,0,292,0,,,,,,,,,,,,,,,,,,,,,,,,,,,,,,,,,,,,1024.3369652999681,,1019.3442500999663,1019.3442500999663,1019.3442500999663,1019.3442500999663,new_stationery_3.png,293,None,None,1024.3232283999678,,044,10,2025-04-08_14h34.10.006,Surprise recog test,2023.1.3,59.93080389716869,
293,0,293,0,,,,,,,,,,,,,,,,,,,,,,,,,,,,,,,,,,,,1026.7791405000025,1027.8029222999467,1025.3652210999862,1025.3652210999862,1025.3652210999862,1025.3652210999862,old_sceneIn_48.png,294,4.0,1.4156541000120342,,,044,10,2025-04-08_14h34.10.006,Surprise recog test,2023.1.3,59.93080389716869,
294,0,294,0,,,,,,,,,,,,,,,,,,,,,,,,,,,,,,,,,,,,1029.7849763999693,1030.8098798999563,1027.8029222999467,1027.8029222999467,1027.8029222999467,1027.8029222999467,old_stationery_36.png,295,1.0,1.9796453000162728,,,044,10,2025-04-08_14h34.10.006,Surprise recog test,2023.1.3,59.93080389716869,
295,0,295,0,,,,,,,,,,,,,,,,,,,,,,,,,,,,,,,,,,,,1032.3272388999467,1033.356927099987,1030.8098798999563,1030.8098798999563,1030.8098798999563,1030.8098798999563,old_sceneOut_50.png,296,3.0,1.5185412000282668,,,044,10,2025-04-08_14h34.10.006,Surprise recog test,2023.1.3,59.93080389716869,
296,0,296,0,,,,,,,,,,,,,,,,,,,,,,,,,,,,,,,,,,,,1034.8336232999573,1035.8557224999531,1033.356927099987,1033.356927099987,1033.356927099987,1033.356927099987,new_sceneOut_49.png,297,3.0,1.4788671999704093,,,044,10,2025-04-08_14h34.10.006,Surprise recog test,2023.1.3,59.93080389716869,
297,0,297,0,,,,,,,,,,,,,,,,,,,,,,,,,,,,,,,,,,,,1038.0423965999507,1039.0511843999848,1035.8557224999531,1035.8557224999531,1035.8557224999531,1035.8557224999531,old_stationery_11.png,298,1.0,2.1877611000090837,,,044,10,2025-04-08_14h34.10.006,Surprise recog test,2023.1.3,59.93080389716869,
298,0,298,0,,,,,,,,,,,,,,,,,,,,,,,,,,,,,,,,,,,,1040.6939298999496,1041.7117326000007,1039.0511843999848,1039.0511843999848,1039.0511843999848,1039.0511843999848,old_fruit_49.png,299,3.0,1.6393999999854714,,,044,10,2025-04-08_14h34.10.006,Surprise recog test,2023.1.3,59.93080389716869,
299,0,299,0,,,,,,,,,,,,,,,,,,,,,,,,,,,,,,,,,,,,1044.28795909998,1045.31604169996,1041.7117326000007,1041.7117326000007,1041.7117326000007,1041.7117326000007,new_fruit_7.png,300,1.0,2.5793441999703646,,,044,10,2025-04-08_14h34.10.006,Surprise recog test,2023.1.3,59.93080389716869,
300,0,300,0,,,,,,,,,,,,,,,,,,,,,,,,,,,,,,,,,,,,1046.6822618999868,1047.6985227999976,1045.31604169996,1045.31604169996,1045.31604169996,1045.31604169996,new_fruit_37.png,301,3.0,1.3672020999947563,,,044,10,2025-04-08_14h34.10.006,Surprise recog test,2023.1.3,59.93080389716869,
301,0,301,0,,,,,,,,,,,,,,,,,,,,,,,,,,,,,,,,,,,,1049.1100599999772,1050.1250796999666,1047.6985227999976,1047.6985227999976,1047.6985227999976,1047.6985227999976,old_sceneOut_3.png,302,3.0,1.409821200009901,,,044,10,2025-04-08_14h34.10.006,Surprise recog test,2023.1.3,59.93080389716869,
302,0,302,0,,,,,,,,,,,,,,,,,,,,,,,,,,,,,,,,,,,,1051.3899578999844,,1050.1250796999666,1050.1250796999666,1050.1250796999666,1050.1250796999666,old_sceneOut_19.png,303,3.0,1.2583755000378005,,,044,10,2025-04-08_14h34.10.006,Surprise recog test,2023.1.3,59.93080389716869,
303,0,303,0,,,,,,,,,,,,,,,,,,,,,,,,,,,,,,,,,,,,1053.9932756999624,1055.0249748999486,1052.4106809999794,1052.4106809999794,1052.4106809999794,1052.4106809999794,old_fruit_20.png,304,4.0,1.5781564000062644,,,044,10,2025-04-08_14h34.10.006,Surprise recog test,2023.1.3,59.93080389716869,
304,0,304,0,,,,,,,,,,,,,,,,,,,,,,,,,,,,,,,,,,,,1056.535386799951,1057.549380899989,1055.0249748999486,1055.0249748999486,1055.0249748999486,1055.0249748999486,new_sceneOut_10.png,305,4.0,1.5127371000126004,,,044,10,2025-04-08_14h34.10.006,Surprise recog test,2023.1.3,59.93080389716869,
305,0,305,0,,,,,,,,,,,,,,,,,,,,,,,,,,,,,,,,,,,,1058.6158072999679,1059.6460345999803,1057.549380899989,1057.549380899989,1057.549380899989,1057.549380899989,new_sceneIn_14.png,306,4.0,1.0598464999930002,,,044,10,2025-04-08_14h34.10.006,Surprise recog test,2023.1.3,59.93080389716869,
306,0,306,0,,,,,,,,,,,,,,,,,,,,,,,,,,,,,,,,,,,,1060.4110896999482,1061.4218654999859,1059.6460345999803,1059.6460345999803,1059.6460345999803,1059.6460345999803,old_sceneOut_1.png,307,4.0,0.768428799987305,,,044,10,2025-04-08_14h34.10.006,Surprise recog test,2023.1.3,59.93080389716869,
307,0,307,0,,,,,,,,,,,,,,,,,,,,,,,,,,,,,,,,,,,,1063.2599231999484,1064.2830804999685,1061.4218654999859,1061.4218654999859,1061.4218654999859,1061.4218654999859,old_stationery_4.png,308,2.0,1.8372289999970235,,,044,10,2025-04-08_14h34.10.006,Surprise recog test,2023.1.3,59.93080389716869,
308,0,308,0,,,,,,,,,,,,,,,,,,,,,,,,,,,,,,,,,,,,1065.8811439999845,1066.8871958999662,1064.2830804999685,1064.2830804999685,1064.2830804999685,1064.2830804999685,new_sceneIn_18.png,309,4.0,1.5978280999697745,,,044,10,2025-04-08_14h34.10.006,Surprise recog test,2023.1.3,59.93080389716869,
309,0,309,0,,,,,,,,,,,,,,,,,,,,,,,,,,,,,,,,,,,,1067.8078302999493,1068.8248351999791,1066.8871958999662,1066.8871958999662,1066.8871958999662,1066.8871958999662,new_sceneIn_38.png,310,4.0,0.9172543000313453,,,044,10,2025-04-08_14h34.10.006,Surprise recog test,2023.1.3,59.93080389716869,
310,0,310,0,,,,,,,,,,,,,,,,,,,,,,,,,,,,,,,,,,,,1071.2525848999503,1072.2708189999685,1068.8248351999791,1068.8248351999791,1068.8248351999791,1068.8248351999791,old_stationery_23.png,311,1.0,2.423162900027819,,,044,10,2025-04-08_14h34.10.006,Surprise recog test,2023.1.3,59.93080389716869,
311,0,311,0,,,,,,,,,,,,,,,,,,,,,,,,,,,,,,,,,,,,1074.2388727999642,1075.2594134999672,1072.2708189999685,1072.2708189999685,1072.2708189999685,1072.2708189999685,old_sceneOut_39.png,312,4.0,1.9689019999932498,,,044,10,2025-04-08_14h34.10.006,Surprise recog test,2023.1.3,59.93080389716869,
312,0,312,0,,,,,,,,,,,,,,,,,,,,,,,,,,,,,,,,,,,,1076.1170432999497,1077.1275118999765,1075.2594134999672,1075.2594134999672,1075.2594134999672,1075.2594134999672,old_sceneOut_11.png,313,4.0,0.8580110999755561,,,044,10,2025-04-08_14h34.10.006,Surprise recog test,2023.1.3,59.93080389716869,
313,0,313,0,,,,,,,,,,,,,,,,,,,,,,,,,,,,,,,,,,,,1078.1109148999676,,1077.1275118999765,1077.1275118999765,1077.1275118999765,1077.1275118999765,old_fruit_38.png,314,4.0,0.9795804999885149,,,044,10,2025-04-08_14h34.10.006,Surprise recog test,2023.1.3,59.93080389716869,
314,0,314,0,,,,,,,,,,,,,,,,,,,,,,,,,,,,,,,,,,,,1081.2562472999562,1082.2684004999464,1079.1384052999783,1079.1384052999783,1079.1384052999783,1079.1384052999783,old_fruit_40.png,315,5.0,2.118161699967459,,,044,10,2025-04-08_14h34.10.006,Surprise recog test,2023.1.3,59.93080389716869,
315,0,315,0,,,,,,,,,,,,,,,,,,,,,,,,,,,,,,,,,,,,1083.2001245999709,,1082.2684004999464,1082.2684004999464,1082.2684004999464,1082.2684004999464,new_sceneOut_23.png,316,5.0,0.9279222000041045,,,044,10,2025-04-08_14h34.10.006,Surprise recog test,2023.1.3,59.93080389716869,
316,0,316,0,,,,,,,,,,,,,,,,,,,,,,,,,,,,,,,,,,,,1085.297854000004,1086.318787599972,1084.2308988999575,1084.2308988999575,1084.2308988999575,1084.2308988999575,new_sceneOut_48.png,317,5.0,1.0660544999991544,,,044,10,2025-04-08_14h34.10.006,Surprise recog test,2023.1.3,59.93080389716869,
317,0,317,0,,,,,,,,,,,,,,,,,,,,,,,,,,,,,,,,,,,,1088.3257895999704,1089.3525384999812,1086.318787599972,1086.318787599972,1086.318787599972,1086.318787599972,new_sceneOut_27.png,318,4.0,2.0111831999965943,,,044,10,2025-04-08_14h34.10.006,Surprise recog test,2023.1.3,59.93080389716869,
318,0,318,0,,,,,,,,,,,,,,,,,,,,,,,,,,,,,,,,,,,,1091.6719065999496,,1089.3525384999812,1089.3525384999812,1089.3525384999812,1089.3525384999812,new_stationery_7.png,319,4.0,2.321657199994661,,,044,10,2025-04-08_14h34.10.006,Surprise recog test,2023.1.3,59.93080389716869,
319,0,319,0,,,,,,,,,,,,,,,,,,,,,,,,,,,,,,,,,,,,1094.2948872999987,1095.3239495999878,1092.70671889995,1092.70671889995,1092.70671889995,1092.70671889995,old_fruit_18.png,320,3.0,1.5885387999587692,,,044,10,2025-04-08_14h34.10.006,Surprise recog test,2023.1.3,59.93080389716869,
320,0,320,0,,,,,,,,,,,,,,,,,,,,,,,,,,,,,,,,,,,,1096.4697521999478,1097.479331099952,1095.3239495999878,1095.3239495999878,1095.3239495999878,1095.3239495999878,new_stationery_47.png,321,3.0,1.1475270999944769,,,044,10,2025-04-08_14h34.10.006,Surprise recog test,2023.1.3,59.93080389716869,
321,0,321,0,,,,,,,,,,,,,,,,,,,,,,,,,,,,,,,,,,,,1098.655609099951,1099.6786953999544,1097.479331099952,1097.479331099952,1097.479331099952,1097.479331099952,new_fruit_11.png,322,3.0,1.1733750000130385,,,044,10,2025-04-08_14h34.10.006,Surprise recog test,2023.1.3,59.93080389716869,
322,0,322,0,,,,,,,,,,,,,,,,,,,,,,,,,,,,,,,,,,,,1101.670891399961,1102.6988782999688,1099.6786953999544,1099.6786953999544,1099.6786953999544,1099.6786953999544,old_stationery_12.png,323,1.0,1.9920476999832317,,,044,10,2025-04-08_14h34.10.006,Surprise recog test,2023.1.3,59.93080389716869,
323,0,323,0,,,,,,,,,,,,,,,,,,,,,,,,,,,,,,,,,,,,1104.5448578999494,1105.5555932999705,1102.6988782999688,1102.6988782999688,1102.6988782999688,1102.6988782999688,new_sceneOut_20.png,324,4.0,1.8471674000029452,,,044,10,2025-04-08_14h34.10.006,Surprise recog test,2023.1.3,59.93080389716869,
324,0,324,0,,,,,,,,,,,,,,,,,,,,,,,,,,,,,,,,,,,,1106.8960281999898,1107.9065474999952,1105.5555932999705,1105.5555932999705,1105.5555932999705,1105.5555932999705,new_sceneIn_36.png,325,4.0,1.3363857000367716,,,044,10,2025-04-08_14h34.10.006,Surprise recog test,2023.1.3,59.93080389716869,
325,0,325,0,,,,,,,,,,,,,,,,,,,,,,,,,,,,,,,,,,,,1110.042108499969,1111.0709704999463,1107.9065474999952,1107.9065474999952,1107.9065474999952,1107.9065474999952,new_sceneIn_48.png,326,3.0,2.130478300037794,,,044,10,2025-04-08_14h34.10.006,Surprise recog test,2023.1.3,59.93080389716869,
326,0,326,0,,,,,,,,,,,,,,,,,,,,,,,,,,,,,,,,,,,,1112.6704613000038,1113.684962600004,1111.0709704999463,1111.0709704999463,1111.0709704999463,1111.0709704999463,new_stationery_13.png,327,2.0,1.600020100013353,,,044,10,2025-04-08_14h34.10.006,Surprise recog test,2023.1.3,59.93080389716869,
327,0,327,0,,,,,,,,,,,,,,,,,,,,,,,,,,,,,,,,,,,,1115.2644458999857,1116.2863860999933,1113.684962600004,1113.684962600004,1113.684962600004,1113.684962600004,new_sceneOut_33.png,328,3.0,1.5809407000197098,,,044,10,2025-04-08_14h34.10.006,Surprise recog test,2023.1.3,59.93080389716869,
328,0,328,0,,,,,,,,,,,,,,,,,,,,,,,,,,,,,,,,,,,,1118.2705029999488,1119.2941229999997,1116.2863860999933,1116.2863860999933,1116.2863860999933,1116.2863860999933,new_sceneIn_8.png,329,4.0,1.9850259000086226,,,044,10,2025-04-08_14h34.10.006,Surprise recog test,2023.1.3,59.93080389716869,
329,0,329,0,,,,,,,,,,,,,,,,,,,,,,,,,,,,,,,,,,,,1121.8108057999634,1122.82855679997,1119.2941229999997,1119.2941229999997,1119.2941229999997,1119.2941229999997,old_sceneIn_6.png,330,4.0,2.515475799969863,,,044,10,2025-04-08_14h34.10.006,Surprise recog test,2023.1.3,59.93080389716869,
330,0,330,0,,,,,,,,,,,,,,,,,,,,,,,,,,,,,,,,,,,,1124.0590781999636,1125.071484199958,1122.82855679997,1122.82855679997,1122.82855679997,1122.82855679997,new_sceneOut_41.png,331,4.0,1.2303886999725364,,,044,10,2025-04-08_14h34.10.006,Surprise recog test,2023.1.3,59.93080389716869,
331,0,331,0,,,,,,,,,,,,,,,,,,,,,,,,,,,,,,,,,,,,1126.3654736999888,1127.3873267999734,1125.071484199958,1125.071484199958,1125.071484199958,1125.071484199958,new_sceneOut_18.png,332,4.0,1.2887918999767862,,,044,10,2025-04-08_14h34.10.006,Surprise recog test,2023.1.3,59.93080389716869,
332,0,332,0,,,,,,,,,,,,,,,,,,,,,,,,,,,,,,,,,,,,1129.5011108999606,1130.5181418999564,1127.3873267999734,1127.3873267999734,1127.3873267999734,1127.3873267999734,old_stationery_29.png,333,1.0,2.11053860001266,,,044,10,2025-04-08_14h34.10.006,Surprise recog test,2023.1.3,59.93080389716869,
333,0,333,0,,,,,,,,,,,,,,,,,,,,,,,,,,,,,,,,,,,,1133.0872142000007,1134.1132767999661,1130.5181418999564,1130.5181418999564,1130.5181418999564,1130.5181418999564,new_sceneIn_47.png,334,3.0,2.5710040999692865,,,044,10,2025-04-08_14h34.10.006,Surprise recog test,2023.1.3,59.93080389716869,
334,0,334,0,,,,,,,,,,,,,,,,,,,,,,,,,,,,,,,,,,,,1136.3498830999597,1137.368427999958,1134.1132767999661,1134.1132767999661,1134.1132767999661,1134.1132767999661,old_stationery_32.png,335,1.0,2.2410858999937773,,,044,10,2025-04-08_14h34.10.006,Surprise recog test,2023.1.3,59.93080389716869,
335,0,335,0,,,,,,,,,,,,,,,,,,,,,,,,,,,,,,,,,,,,1140.1321899999748,1141.1604880999657,1137.368427999958,1137.368427999958,1137.368427999958,1137.368427999958,old_fruit_46.png,336,3.0,2.7632059000316076,,,044,10,2025-04-08_14h34.10.006,Surprise recog test,2023.1.3,59.93080389716869,
336,0,336,0,,,,,,,,,,,,,,,,,,,,,,,,,,,,,,,,,,,,1143.0051471999614,1144.0292704000021,1141.1604880999657,1141.1604880999657,1141.1604880999657,1141.1604880999657,new_sceneIn_44.png,337,4.0,1.8465044000186026,,,044,10,2025-04-08_14h34.10.006,Surprise recog test,2023.1.3,59.93080389716869,
337,0,337,0,,,,,,,,,,,,,,,,,,,,,,,,,,,,,,,,,,,,1145.3078231999534,1146.3348234999576,1144.0292704000021,1144.0292704000021,1144.0292704000021,1144.0292704000021,new_sceneIn_2.png,338,4.0,1.2787712999852374,,,044,10,2025-04-08_14h34.10.006,Surprise recog test,2023.1.3,59.93080389716869,
338,0,338,0,,,,,,,,,,,,,,,,,,,,,,,,,,,,,,,,,,,,1148.0738671,1149.0927482999978,1146.3348234999576,1146.3348234999576,1146.3348234999576,1146.3348234999576,old_fruit_31.png,339,3.0,1.7396219000220299,,,044,10,2025-04-08_14h34.10.006,Surprise recog test,2023.1.3,59.93080389716869,
339,0,339,0,,,,,,,,,,,,,,,,,,,,,,,,,,,,,,,,,,,,1152.3633565999917,1153.37687919999,1149.0927482999978,1149.0927482999978,1149.0927482999978,1149.0927482999978,new_stationery_39.png,340,3.0,3.2661367999971844,,,044,10,2025-04-08_14h34.10.006,Surprise recog test,2023.1.3,59.93080389716869,
340,0,340,0,,,,,,,,,,,,,,,,,,,,,,,,,,,,,,,,,,,,1155.5099012999563,,1153.37687919999,1153.37687919999,1153.37687919999,1153.37687919999,new_sceneIn_40.png,341,4.0,2.131147699954454,,,044,10,2025-04-08_14h34.10.006,Surprise recog test,2023.1.3,59.93080389716869,
341,0,341,0,,,,,,,,,,,,,,,,,,,,,,,,,,,,,,,,,,,,1158.4055058999802,1159.4223008999834,1156.5448996999767,1156.5448996999767,1156.5448996999767,1156.5448996999767,old_sceneIn_11.png,342,3.0,1.8638012000010349,,,044,10,2025-04-08_14h34.10.006,Surprise recog test,2023.1.3,59.93080389716869,
342,0,342,0,,,,,,,,,,,,,,,,,,,,,,,,,,,,,,,,,,,,1160.9847252999898,1162.005710999947,1159.4223008999834,1159.4223008999834,1159.4223008999834,1159.4223008999834,new_fruit_21.png,343,3.0,1.5612999000004493,,,044,10,2025-04-08_14h34.10.006,Surprise recog test,2023.1.3,59.93080389716869,
343,0,343,0,,,,,,,,,,,,,,,,,,,,,,,,,,,,,,,,,,,,1162.9028360999655,1163.9310765999835,1162.005710999947,1162.005710999947,1162.005710999947,1162.005710999947,old_sceneOut_38.png,344,3.0,0.8971336000249721,,,044,10,2025-04-08_14h34.10.006,Surprise recog test,2023.1.3,59.93080389716869,
344,0,344,0,,,,,,,,,,,,,,,,,,,,,,,,,,,,,,,,,,,,1164.8388919999707,1165.8692164999666,1163.9310765999835,1163.9310765999835,1163.9310765999835,1163.9310765999835,new_fruit_18.png,345,3.0,0.9096946999779902,,,044,10,2025-04-08_14h34.10.006,Surprise recog test,2023.1.3,59.93080389716869,
345,0,345,0,,,,,,,,,,,,,,,,,,,,,,,,,,,,,,,,,,,,1166.7224459999707,1167.757198199979,1165.8692164999666,1165.8692164999666,1165.8692164999666,1165.8692164999666,old_fruit_37.png,346,3.0,0.8555226000025868,,,044,10,2025-04-08_14h34.10.006,Surprise recog test,2023.1.3,59.93080389716869,
346,0,346,0,,,,,,,,,,,,,,,,,,,,,,,,,,,,,,,,,,,,1169.050562599965,1170.0567195999902,1167.757198199979,1167.757198199979,1167.757198199979,1167.757198199979,new_sceneOut_11.png,347,3.0,1.2966828999924473,,,044,10,2025-04-08_14h34.10.006,Surprise recog test,2023.1.3,59.93080389716869,
347,0,347,0,,,,,,,,,,,,,,,,,,,,,,,,,,,,,,,,,,,,1173.405602499959,1174.4186622999841,1170.0567195999902,1170.0567195999902,1170.0567195999902,1170.0567195999902,old_sceneIn_22.png,348,3.0,3.34476970002288,,,044,10,2025-04-08_14h34.10.006,Surprise recog test,2023.1.3,59.93080389716869,
348,0,348,0,,,,,,,,,,,,,,,,,,,,,,,,,,,,,,,,,,,,1176.5655342999962,1177.592399199959,1174.4186622999841,1174.4186622999841,1174.4186622999841,1174.4186622999841,new_fruit_17.png,349,2.0,2.14607109996723,,,044,10,2025-04-08_14h34.10.006,Surprise recog test,2023.1.3,59.93080389716869,
349,0,349,0,,,,,,,,,,,,,,,,,,,,,,,,,,,,,,,,,,,,1179.5802468999755,,1177.592399199959,1177.592399199959,1177.592399199959,1177.592399199959,new_sceneIn_28.png,350,4.0,1.98874609998893,,,044,10,2025-04-08_14h34.10.006,Surprise recog test,2023.1.3,59.93080389716869,
