trial_loop.thisRepN,trial_loop.thisTrialN,trial_loop.thisN,trial_loop.thisIndex,VAS_slider.started,VAS_text.started,VAS_notstressed_text.started,VAS_stressed_text.started,continue_input.started,continue_text.started,label0.started,label10.started,label20.started,label30.started,label40.started,label50.started,label60.started,label70.started,label80.started,label90.started,label100.started,VAS_slider.response,VAS_slider.rt,VAS_slider.history,Answer_VAS,continue_input.keys,continue_input.rt,continue_input.duration,instruction_text.started,continue_text_2.started,continue_input_2.started,continue_input_2.keys,continue_input_2.rt,continue_input_2.duration,example_text.started,example_slider_2.started,example_image.started,example_slider_2.response,example_slider_2.rt,fixcross.started,fixcross.stopped,front_square.started,stim_images.started,trial_inst_images.started,slider_images.started,slider_images.stopped,thisImg,trial_count,slider_images.response,slider_images.rt,outro.started,participant,condition,date,expName,psychopyVersion,frameRate,
,,,,249.84636790002696,249.84636790002696,249.84636790002696,249.84636790002696,249.84636790002696,249.84636790002696,249.84636790002696,249.84636790002696,249.84636790002696,249.84636790002696,249.84636790002696,249.84636790002696,249.84636790002696,249.84636790002696,249.84636790002696,249.84636790002696,249.84636790002696,None,None,[],0,space,9.456873799907044,None,,,,,,,,,,,,,,,,,,,,,,,,047,11,2025-02-20_14h06.16.432,Surprise recog test,2023.1.3,59.949594401998525,
,,,,,,,,,,,,,,,,,,,,,,,,,,,,259.374787400011,259.374787400011,259.374787400011,space,29.1051332000643,None,,,,,,,,,,,,,,,,,,047,11,2025-02-20_14h06.16.432,Surprise recog test,2023.1.3,59.949594401998525,
0,0,0,0,,,,,,,,,,,,,,,,,,,,,,,,,,,,,,,288.6550953000551,288.6550953000551,288.6550953000551,4.0,18.27297239995096,312.8240482000401,307.85429419996217,307.85429419996217,307.85429419996217,307.85429419996217,307.85429419996217,312.8094539999729,old_fruit_20.png,1,None,None,,047,11,2025-02-20_14h06.16.432,Surprise recog test,2023.1.3,59.949594401998525,
1,0,1,0,,,,,,,,,,,,,,,,,,,,,,,,,,,,,,,,,,,,316.26704990002327,317.28751389996614,313.842587799998,313.842587799998,313.842587799998,313.842587799998,,old_stationery_22.png,2,1.0,2.422275299904868,,047,11,2025-02-20_14h06.16.432,Surprise recog test,2023.1.3,59.949594401998525,
2,0,2,0,,,,,,,,,,,,,,,,,,,,,,,,,,,,,,,,,,,,319.89123209996615,320.9071705000242,317.28751389996614,317.28751389996614,317.28751389996614,317.28751389996614,,old_fruit_33.png,3,4.0,2.6009752999525517,,047,11,2025-02-20_14h06.16.432,Surprise recog test,2023.1.3,59.949594401998525,
3,0,3,0,,,,,,,,,,,,,,,,,,,,,,,,,,,,,,,,,,,,323.13814190006815,,320.9071705000242,320.9071705000242,320.9071705000242,320.9071705000242,,new_stationery_48.png,4,4.0,2.2259045999962837,,047,11,2025-02-20_14h06.16.432,Surprise recog test,2023.1.3,59.949594401998525,
4,0,4,0,,,,,,,,,,,,,,,,,,,,,,,,,,,,,,,,,,,,325.71972599998116,326.7293429999845,324.17260339995846,324.17260339995846,324.17260339995846,324.17260339995846,,old_stationery_7.png,5,1.0,1.5496561999898404,,047,11,2025-02-20_14h06.16.432,Surprise recog test,2023.1.3,59.949594401998525,
5,0,5,0,,,,,,,,,,,,,,,,,,,,,,,,,,,,,,,,,,,,330.3096813999582,,326.7293429999845,326.7293429999845,326.7293429999845,326.7293429999845,,new_sceneOut_47.png,6,3.0,3.5790318999206647,,047,11,2025-02-20_14h06.16.432,Surprise recog test,2023.1.3,59.949594401998525,
6,0,6,0,,,,,,,,,,,,,,,,,,,,,,,,,,,,,,,,,,,,334.4066547000548,335.4260835000314,331.3387659,331.3387659,331.3387659,331.3387659,,new_sceneOut_21.png,7,2.0,3.0699400000739843,,047,11,2025-02-20_14h06.16.432,Surprise recog test,2023.1.3,59.949594401998525,
7,0,7,0,,,,,,,,,,,,,,,,,,,,,,,,,,,,,,,,,,,,338.6981832999736,339.7070356999757,335.4260835000314,335.4260835000314,335.4260835000314,335.4260835000314,,new_sceneIn_50.png,8,4.0,3.273169399937615,,047,11,2025-02-20_14h06.16.432,Surprise recog test,2023.1.3,59.949594401998525,
8,0,8,0,,,,,,,,,,,,,,,,,,,,,,,,,,,,,,,,,,,,341.3575053999666,342.3757486999966,339.7070356999757,339.7070356999757,339.7070356999757,339.7070356999757,,new_sceneIn_48.png,9,1.0,1.6471632999600843,,047,11,2025-02-20_14h06.16.432,Surprise recog test,2023.1.3,59.949594401998525,
9,0,9,0,,,,,,,,,,,,,,,,,,,,,,,,,,,,,,,,,,,,344.7034078000579,345.71913019998465,342.3757486999966,342.3757486999966,342.3757486999966,342.3757486999966,,new_fruit_44.png,10,3.0,2.326887400005944,,047,11,2025-02-20_14h06.16.432,Surprise recog test,2023.1.3,59.949594401998525,
10,0,10,0,,,,,,,,,,,,,,,,,,,,,,,,,,,,,,,,,,,,349.0734485000139,350.09283730003517,345.71913019998465,345.71913019998465,345.71913019998465,345.71913019998465,,new_fruit_36.png,11,3.0,3.355936300009489,,047,11,2025-02-20_14h06.16.432,Surprise recog test,2023.1.3,59.949594401998525,
11,0,11,0,,,,,,,,,,,,,,,,,,,,,,,,,,,,,,,,,,,,354.1751960000256,355.1931633000495,350.09283730003517,350.09283730003517,350.09283730003517,350.09283730003517,,old_sceneIn_3.png,12,2.0,4.083243199973367,,047,11,2025-02-20_14h06.16.432,Surprise recog test,2023.1.3,59.949594401998525,
12,0,12,0,,,,,,,,,,,,,,,,,,,,,,,,,,,,,,,,,,,,357.6251848000102,358.64841130003333,355.1931633000495,355.1931633000495,355.1931633000495,355.1931633000495,,new_sceneIn_15.png,13,5.0,2.4298050000797957,,047,11,2025-02-20_14h06.16.432,Surprise recog test,2023.1.3,59.949594401998525,
13,0,13,0,,,,,,,,,,,,,,,,,,,,,,,,,,,,,,,,,,,,361.88277330005076,362.9058604000602,358.64841130003333,358.64841130003333,358.64841130003333,358.64841130003333,,new_sceneOut_32.png,14,4.0,3.2351697999984026,,047,11,2025-02-20_14h06.16.432,Surprise recog test,2023.1.3,59.949594401998525,
14,0,14,0,,,,,,,,,,,,,,,,,,,,,,,,,,,,,,,,,,,,364.7729443999706,,362.9058604000602,362.9058604000602,362.9058604000602,362.9058604000602,,new_stationery_4.png,15,5.0,1.8676123999757692,,047,11,2025-02-20_14h06.16.432,Surprise recog test,2023.1.3,59.949594401998525,
15,0,15,0,,,,,,,,,,,,,,,,,,,,,,,,,,,,,,,,,,,,367.33833649998996,368.3587212000275,365.8008584000636,365.8008584000636,365.8008584000636,365.8008584000636,,old_stationery_28.png,16,1.0,1.5398273000027984,,047,11,2025-02-20_14h06.16.432,Surprise recog test,2023.1.3,59.949594401998525,
16,0,16,0,,,,,,,,,,,,,,,,,,,,,,,,,,,,,,,,,,,,369.99427609995473,,368.3587212000275,368.3587212000275,368.3587212000275,368.3587212000275,,old_sceneIn_22.png,17,1.0,1.6354950000531971,,047,11,2025-02-20_14h06.16.432,Surprise recog test,2023.1.3,59.949594401998525,
17,0,17,0,,,,,,,,,,,,,,,,,,,,,,,,,,,,,,,,,,,,372.3138627000153,373.34509780001827,371.0248078999575,371.0248078999575,371.0248078999575,371.0248078999575,,old_fruit_45.png,18,1.0,1.2903965000296012,,047,11,2025-02-20_14h06.16.432,Surprise recog test,2023.1.3,59.949594401998525,
18,0,18,0,,,,,,,,,,,,,,,,,,,,,,,,,,,,,,,,,,,,376.80578619998414,377.8268272000132,373.34509780001827,373.34509780001827,373.34509780001827,373.34509780001827,,old_stationery_25.png,19,4.0,3.461960699991323,,047,11,2025-02-20_14h06.16.432,Surprise recog test,2023.1.3,59.949594401998525,
19,0,19,0,,,,,,,,,,,,,,,,,,,,,,,,,,,,,,,,,,,,380.04964119999204,381.06835199997295,377.8268272000132,377.8268272000132,377.8268272000132,377.8268272000132,,old_fruit_39.png,20,2.0,2.222822100040503,,047,11,2025-02-20_14h06.16.432,Surprise recog test,2023.1.3,59.949594401998525,
20,0,20,0,,,,,,,,,,,,,,,,,,,,,,,,,,,,,,,,,,,,382.36458070005756,383.38650779996533,381.06835199997295,381.06835199997295,381.06835199997295,381.06835199997295,,old_stationery_18.png,21,1.0,1.2980414999183267,,047,11,2025-02-20_14h06.16.432,Surprise recog test,2023.1.3,59.949594401998525,
21,0,21,0,,,,,,,,,,,,,,,,,,,,,,,,,,,,,,,,,,,,384.62529090000317,385.6501976000145,383.38650779996533,383.38650779996533,383.38650779996533,383.38650779996533,,old_sceneIn_47.png,22,1.0,1.2416839998913929,,047,11,2025-02-20_14h06.16.432,Surprise recog test,2023.1.3,59.949594401998525,
22,0,22,0,,,,,,,,,,,,,,,,,,,,,,,,,,,,,,,,,,,,387.6933454000391,388.72783870005514,385.6501976000145,385.6501976000145,385.6501976000145,385.6501976000145,,new_fruit_37.png,23,4.0,2.043750000069849,,047,11,2025-02-20_14h06.16.432,Surprise recog test,2023.1.3,59.949594401998525,
23,0,23,0,,,,,,,,,,,,,,,,,,,,,,,,,,,,,,,,,,,,390.9493980000261,391.9626524000196,388.72783870005514,388.72783870005514,388.72783870005514,388.72783870005514,,old_fruit_38.png,24,5.0,2.222961899940856,,047,11,2025-02-20_14h06.16.432,Surprise recog test,2023.1.3,59.949594401998525,
24,0,24,0,,,,,,,,,,,,,,,,,,,,,,,,,,,,,,,,,,,,393.86594629997853,394.8888698000228,391.9626524000196,391.9626524000196,391.9626524000196,391.9626524000196,,old_fruit_10.png,25,5.0,1.9003972000209615,,047,11,2025-02-20_14h06.16.432,Surprise recog test,2023.1.3,59.949594401998525,
25,0,25,0,,,,,,,,,,,,,,,,,,,,,,,,,,,,,,,,,,,,396.4979688000167,,394.8888698000228,394.8888698000228,394.8888698000228,394.8888698000228,,new_stationery_40.png,26,5.0,1.6072208000114188,,047,11,2025-02-20_14h06.16.432,Surprise recog test,2023.1.3,59.949594401998525,
26,0,26,0,,,,,,,,,,,,,,,,,,,,,,,,,,,,,,,,,,,,399.90018999995664,,397.5204417000059,397.5204417000059,397.5204417000059,397.5204417000059,,new_sceneIn_41.png,27,4.0,2.37739490007516,,047,11,2025-02-20_14h06.16.432,Surprise recog test,2023.1.3,59.949594401998525,
27,0,27,0,,,,,,,,,,,,,,,,,,,,,,,,,,,,,,,,,,,,402.74567209999077,403.7703493000008,400.91907279996667,400.91907279996667,400.91907279996667,400.91907279996667,,new_sceneIn_9.png,28,5.0,1.8220082999905571,,047,11,2025-02-20_14h06.16.432,Surprise recog test,2023.1.3,59.949594401998525,
28,0,28,0,,,,,,,,,,,,,,,,,,,,,,,,,,,,,,,,,,,,405.2550162000116,,403.7703493000008,403.7703493000008,403.7703493000008,403.7703493000008,,new_stationery_43.png,29,5.0,1.4866836000001058,,047,11,2025-02-20_14h06.16.432,Surprise recog test,2023.1.3,59.949594401998525,
29,0,29,0,,,,,,,,,,,,,,,,,,,,,,,,,,,,,,,,,,,,408.9279889999889,409.95611939998344,406.2771359999897,406.2771359999897,406.2771359999897,406.2771359999897,,new_sceneOut_41.png,30,2.0,2.6455923999892548,,047,11,2025-02-20_14h06.16.432,Surprise recog test,2023.1.3,59.949594401998525,
30,0,30,0,,,,,,,,,,,,,,,,,,,,,,,,,,,,,,,,,,,,413.06713750003837,414.0930509000318,409.95611939998344,409.95611939998344,409.95611939998344,409.95611939998344,,old_fruit_30.png,31,1.0,3.111788700101897,,047,11,2025-02-20_14h06.16.432,Surprise recog test,2023.1.3,59.949594401998525,
31,0,31,0,,,,,,,,,,,,,,,,,,,,,,,,,,,,,,,,,,,,417.29532999999356,418.31560950004496,414.0930509000318,414.0930509000318,414.0930509000318,414.0930509000318,,new_sceneIn_12.png,32,5.0,3.202109899953939,,047,11,2025-02-20_14h06.16.432,Surprise recog test,2023.1.3,59.949594401998525,
32,0,32,0,,,,,,,,,,,,,,,,,,,,,,,,,,,,,,,,,,,,421.3076311000623,422.32454080006573,418.31560950004496,418.31560950004496,418.31560950004496,418.31560950004496,,old_sceneOut_12.png,33,3.0,2.9932415999937803,,047,11,2025-02-20_14h06.16.432,Surprise recog test,2023.1.3,59.949594401998525,
33,0,33,0,,,,,,,,,,,,,,,,,,,,,,,,,,,,,,,,,,,,425.0275040999986,426.05826089996845,422.32454080006573,422.32454080006573,422.32454080006573,422.32454080006573,,old_sceneIn_19.png,34,1.0,2.6990592000074685,,047,11,2025-02-20_14h06.16.432,Surprise recog test,2023.1.3,59.949594401998525,
34,0,34,0,,,,,,,,,,,,,,,,,,,,,,,,,,,,,,,,,,,,427.2318118000403,428.2526480000233,426.05826089996845,426.05826089996845,426.05826089996845,426.05826089996845,,old_stationery_31.png,35,1.0,1.174563500098884,,047,11,2025-02-20_14h06.16.432,Surprise recog test,2023.1.3,59.949594401998525,
35,0,35,0,,,,,,,,,,,,,,,,,,,,,,,,,,,,,,,,,,,,429.18853070004843,430.21092109999154,428.2526480000233,428.2526480000233,428.2526480000233,428.2526480000233,,old_stationery_48.png,36,1.0,0.9318212999496609,,047,11,2025-02-20_14h06.16.432,Surprise recog test,2023.1.3,59.949594401998525,
36,0,36,0,,,,,,,,,,,,,,,,,,,,,,,,,,,,,,,,,,,,433.0920903000515,434.1055868000258,430.21092109999154,430.21092109999154,430.21092109999154,430.21092109999154,,old_stationery_33.png,37,2.0,2.883855199906975,,047,11,2025-02-20_14h06.16.432,Surprise recog test,2023.1.3,59.949594401998525,
37,0,37,0,,,,,,,,,,,,,,,,,,,,,,,,,,,,,,,,,,,,436.2714735000627,437.2832158000674,434.1055868000258,434.1055868000258,434.1055868000258,434.1055868000258,,new_stationery_7.png,38,4.0,2.1651960999006405,,047,11,2025-02-20_14h06.16.432,Surprise recog test,2023.1.3,59.949594401998525,
38,0,38,0,,,,,,,,,,,,,,,,,,,,,,,,,,,,,,,,,,,,440.2901594999712,441.31367339997087,437.2832158000674,437.2832158000674,437.2832158000674,437.2832158000674,,old_stationery_32.png,39,3.0,3.0028793000383303,,047,11,2025-02-20_14h06.16.432,Surprise recog test,2023.1.3,59.949594401998525,
39,0,39,0,,,,,,,,,,,,,,,,,,,,,,,,,,,,,,,,,,,,443.610279000015,444.63053660001606,441.31367339997087,441.31367339997087,441.31367339997087,441.31367339997087,,old_fruit_18.png,40,2.0,2.2993802999844775,,047,11,2025-02-20_14h06.16.432,Surprise recog test,2023.1.3,59.949594401998525,
40,0,40,0,,,,,,,,,,,,,,,,,,,,,,,,,,,,,,,,,,,,446.6817834000103,447.69417010003235,444.63053660001606,444.63053660001606,444.63053660001606,444.63053660001606,,new_sceneIn_1.png,41,5.0,2.048942600027658,,047,11,2025-02-20_14h06.16.432,Surprise recog test,2023.1.3,59.949594401998525,
41,0,41,0,,,,,,,,,,,,,,,,,,,,,,,,,,,,,,,,,,,,451.17821990000084,,447.69417010003235,447.69417010003235,447.69417010003235,447.69417010003235,,new_sceneOut_9.png,42,2.0,3.480060299974866,,047,11,2025-02-20_14h06.16.432,Surprise recog test,2023.1.3,59.949594401998525,
42,0,42,0,,,,,,,,,,,,,,,,,,,,,,,,,,,,,,,,,,,,454.5604421000462,455.58359180006664,452.21571630006656,452.21571630006656,452.21571630006656,452.21571630006656,,old_sceneOut_15.png,43,2.0,2.347232900094241,,047,11,2025-02-20_14h06.16.432,Surprise recog test,2023.1.3,59.949594401998525,
43,0,43,0,,,,,,,,,,,,,,,,,,,,,,,,,,,,,,,,,,,,457.8640275000362,458.8817703999812,455.58359180006664,455.58359180006664,455.58359180006664,455.58359180006664,,new_stationery_36.png,44,4.0,2.284025099943392,,047,11,2025-02-20_14h06.16.432,Surprise recog test,2023.1.3,59.949594401998525,
44,0,44,0,,,,,,,,,,,,,,,,,,,,,,,,,,,,,,,,,,,,461.9334744999651,462.9413243000163,458.8817703999812,458.8817703999812,458.8817703999812,458.8817703999812,,new_fruit_50.png,45,2.0,3.0528755000559613,,047,11,2025-02-20_14h06.16.432,Surprise recog test,2023.1.3,59.949594401998525,
45,0,45,0,,,,,,,,,,,,,,,,,,,,,,,,,,,,,,,,,,,,464.35258770000655,465.37466349999886,462.9413243000163,462.9413243000163,462.9413243000163,462.9413243000163,,new_stationery_19.png,46,4.0,1.4045664999866858,,047,11,2025-02-20_14h06.16.432,Surprise recog test,2023.1.3,59.949594401998525,
46,0,46,0,,,,,,,,,,,,,,,,,,,,,,,,,,,,,,,,,,,,467.53738740005065,468.54895690002013,465.37466349999886,465.37466349999886,465.37466349999886,465.37466349999886,,new_stationery_6.png,47,5.0,2.162190900067799,,047,11,2025-02-20_14h06.16.432,Surprise recog test,2023.1.3,59.949594401998525,
47,0,47,0,,,,,,,,,,,,,,,,,,,,,,,,,,,,,,,,,,,,470.19152049999684,,468.54895690002013,468.54895690002013,468.54895690002013,468.54895690002013,,new_sceneIn_20.png,48,1.0,1.6398512000450864,,047,11,2025-02-20_14h06.16.432,Surprise recog test,2023.1.3,59.949594401998525,
48,0,48,0,,,,,,,,,,,,,,,,,,,,,,,,,,,,,,,,,,,,474.36361800006125,,471.2128645000048,471.2128645000048,471.2128645000048,471.2128645000048,,old_sceneOut_29.png,49,2.0,3.14540100004524,,047,11,2025-02-20_14h06.16.432,Surprise recog test,2023.1.3,59.949594401998525,
49,0,49,0,,,,,,,,,,,,,,,,,,,,,,,,,,,,,,,,,,,,480.12718089995906,481.1509269999806,475.39804050000384,475.39804050000384,475.39804050000384,475.39804050000384,,new_sceneOut_34.png,50,2.0,4.73089180001989,,047,11,2025-02-20_14h06.16.432,Surprise recog test,2023.1.3,59.949594401998525,
50,0,50,0,,,,,,,,,,,,,,,,,,,,,,,,,,,,,,,,,,,,486.1404426000081,,481.1509269999806,481.1509269999806,481.1509269999806,481.1509269999806,486.1275225999998,new_sceneIn_5.png,51,None,None,,047,11,2025-02-20_14h06.16.432,Surprise recog test,2023.1.3,59.949594401998525,
51,0,51,0,,,,,,,,,,,,,,,,,,,,,,,,,,,,,,,,,,,,491.1625410000561,492.191290399991,487.16969510004856,487.16969510004856,487.16969510004856,487.16969510004856,,new_fruit_23.png,52,3.0,3.994186000083573,,047,11,2025-02-20_14h06.16.432,Surprise recog test,2023.1.3,59.949594401998525,
52,0,52,0,,,,,,,,,,,,,,,,,,,,,,,,,,,,,,,,,,,,494.88305870001204,495.90920560003724,492.191290399991,492.191290399991,492.191290399991,492.191290399991,,new_fruit_1.png,53,5.0,2.6935423999093473,,047,11,2025-02-20_14h06.16.432,Surprise recog test,2023.1.3,59.949594401998525,
53,0,53,0,,,,,,,,,,,,,,,,,,,,,,,,,,,,,,,,,,,,499.1832785999868,,495.90920560003724,495.90920560003724,495.90920560003724,495.90920560003724,,old_sceneOut_38.png,54,4.0,3.2779314999934286,,047,11,2025-02-20_14h06.16.432,Surprise recog test,2023.1.3,59.949594401998525,
54,0,54,0,,,,,,,,,,,,,,,,,,,,,,,,,,,,,,,,,,,,502.7182325000176,503.74268829997163,500.21745470003225,500.21745470003225,500.21745470003225,500.21745470003225,,new_fruit_34.png,55,5.0,2.501338899950497,,047,11,2025-02-20_14h06.16.432,Surprise recog test,2023.1.3,59.949594401998525,
55,0,55,0,,,,,,,,,,,,,,,,,,,,,,,,,,,,,,,,,,,,505.4515245000366,506.4753002000507,503.74268829997163,503.74268829997163,503.74268829997163,503.74268829997163,,new_sceneOut_26.png,56,5.0,1.7146314000710845,,047,11,2025-02-20_14h06.16.432,Surprise recog test,2023.1.3,59.949594401998525,
56,0,56,0,,,,,,,,,,,,,,,,,,,,,,,,,,,,,,,,,,,,507.926280100015,508.9465417000465,506.4753002000507,506.4753002000507,506.4753002000507,506.4753002000507,,old_stationery_46.png,57,1.0,1.4528092999244109,,047,11,2025-02-20_14h06.16.432,Surprise recog test,2023.1.3,59.949594401998525,
57,0,57,0,,,,,,,,,,,,,,,,,,,,,,,,,,,,,,,,,,,,512.1046638999833,513.124779200065,508.9465417000465,508.9465417000465,508.9465417000465,508.9465417000465,,new_sceneOut_2.png,58,2.0,3.1530452999286354,,047,11,2025-02-20_14h06.16.432,Surprise recog test,2023.1.3,59.949594401998525,
58,0,58,0,,,,,,,,,,,,,,,,,,,,,,,,,,,,,,,,,,,,514.9615227000322,515.965642199968,513.124779200065,513.124779200065,513.124779200065,513.124779200065,,old_sceneIn_8.png,59,5.0,1.8376783999847248,,047,11,2025-02-20_14h06.16.432,Surprise recog test,2023.1.3,59.949594401998525,
59,0,59,0,,,,,,,,,,,,,,,,,,,,,,,,,,,,,,,,,,,,517.2519458000315,518.2801943999948,515.965642199968,515.965642199968,515.965642199968,515.965642199968,,new_sceneIn_46.png,60,5.0,1.2834468999644741,,047,11,2025-02-20_14h06.16.432,Surprise recog test,2023.1.3,59.949594401998525,
60,0,60,0,,,,,,,,,,,,,,,,,,,,,,,,,,,,,,,,,,,,522.1454388999846,523.1665228999918,518.2801943999948,518.2801943999948,518.2801943999948,518.2801943999948,,old_sceneOut_27.png,61,5.0,3.8657010999741033,,047,11,2025-02-20_14h06.16.432,Surprise recog test,2023.1.3,59.949594401998525,
61,0,61,0,,,,,,,,,,,,,,,,,,,,,,,,,,,,,,,,,,,,526.853306200006,527.8597139000194,523.1665228999918,523.1665228999918,523.1665228999918,523.1665228999918,,new_sceneIn_24.png,62,3.0,3.6786986000370234,,047,11,2025-02-20_14h06.16.432,Surprise recog test,2023.1.3,59.949594401998525,
62,0,62,0,,,,,,,,,,,,,,,,,,,,,,,,,,,,,,,,,,,,531.5513970999746,532.5739769999636,527.8597139000194,527.8597139000194,527.8597139000194,527.8597139000194,,new_fruit_24.png,63,5.0,3.688975700060837,,047,11,2025-02-20_14h06.16.432,Surprise recog test,2023.1.3,59.949594401998525,
63,0,63,0,,,,,,,,,,,,,,,,,,,,,,,,,,,,,,,,,,,,535.9512171000242,536.9838430000236,532.5739769999636,532.5739769999636,532.5739769999636,532.5739769999636,,new_stationery_30.png,64,5.0,3.3767471000319347,,047,11,2025-02-20_14h06.16.432,Surprise recog test,2023.1.3,59.949594401998525,
64,0,64,0,,,,,,,,,,,,,,,,,,,,,,,,,,,,,,,,,,,,538.6561461000238,539.6756424000487,536.9838430000236,536.9838430000236,536.9838430000236,536.9838430000236,,old_sceneIn_48.png,65,5.0,1.6746813000645489,,047,11,2025-02-20_14h06.16.432,Surprise recog test,2023.1.3,59.949594401998525,
65,0,65,0,,,,,,,,,,,,,,,,,,,,,,,,,,,,,,,,,,,,542.306295300019,543.3379996999865,539.6756424000487,539.6756424000487,539.6756424000487,539.6756424000487,,new_stationery_23.png,66,3.0,2.6312787000788376,,047,11,2025-02-20_14h06.16.432,Surprise recog test,2023.1.3,59.949594401998525,
66,0,66,0,,,,,,,,,,,,,,,,,,,,,,,,,,,,,,,,,,,,546.5896357999882,,543.3379996999865,543.3379996999865,543.3379996999865,543.3379996999865,,new_stationery_14.png,67,4.0,3.2547726000193506,,047,11,2025-02-20_14h06.16.432,Surprise recog test,2023.1.3,59.949594401998525,
67,0,67,0,,,,,,,,,,,,,,,,,,,,,,,,,,,,,,,,,,,,549.5471998000285,550.5747718999628,547.6119135000044,547.6119135000044,547.6119135000044,547.6119135000044,,new_stationery_11.png,68,4.0,1.9315631000790745,,047,11,2025-02-20_14h06.16.432,Surprise recog test,2023.1.3,59.949594401998525,
68,0,68,0,,,,,,,,,,,,,,,,,,,,,,,,,,,,,,,,,,,,552.4237606000388,553.4451466000173,550.5747718999628,550.5747718999628,550.5747718999628,550.5747718999628,,old_stationery_10.png,69,1.0,1.850418800022453,,047,11,2025-02-20_14h06.16.432,Surprise recog test,2023.1.3,59.949594401998525,
69,0,69,0,,,,,,,,,,,,,,,,,,,,,,,,,,,,,,,,,,,,555.6914132999955,556.7152832000284,553.4451466000173,553.4451466000173,553.4451466000173,553.4451466000173,,old_sceneIn_16.png,70,4.0,2.2473554000025615,,047,11,2025-02-20_14h06.16.432,Surprise recog test,2023.1.3,59.949594401998525,
70,0,70,0,,,,,,,,,,,,,,,,,,,,,,,,,,,,,,,,,,,,559.703797299997,560.7322796999943,556.7152832000284,556.7152832000284,556.7152832000284,556.7152832000284,,new_fruit_40.png,71,4.0,2.9914555000141263,,047,11,2025-02-20_14h06.16.432,Surprise recog test,2023.1.3,59.949594401998525,
71,0,71,0,,,,,,,,,,,,,,,,,,,,,,,,,,,,,,,,,,,,563.025530599989,564.0568485000404,560.7322796999943,560.7322796999943,560.7322796999943,560.7322796999943,,old_fruit_4.png,72,4.0,2.290042100008577,,047,11,2025-02-20_14h06.16.432,Surprise recog test,2023.1.3,59.949594401998525,
72,0,72,0,,,,,,,,,,,,,,,,,,,,,,,,,,,,,,,,,,,,568.2152425000677,569.2453399000224,564.0568485000404,564.0568485000404,564.0568485000404,564.0568485000404,,new_sceneOut_20.png,73,2.0,4.160720199928619,,047,11,2025-02-20_14h06.16.432,Surprise recog test,2023.1.3,59.949594401998525,
73,0,73,0,,,,,,,,,,,,,,,,,,,,,,,,,,,,,,,,,,,,571.9026468000375,572.9287034999579,569.2453399000224,569.2453399000224,569.2453399000224,569.2453399000224,,old_fruit_44.png,74,2.0,2.6619087000144646,,047,11,2025-02-20_14h06.16.432,Surprise recog test,2023.1.3,59.949594401998525,
74,0,74,0,,,,,,,,,,,,,,,,,,,,,,,,,,,,,,,,,,,,574.7564388000173,575.7840921999887,572.9287034999579,572.9287034999579,572.9287034999579,572.9287034999579,,old_fruit_11.png,75,1.0,1.8282900999765843,,047,11,2025-02-20_14h06.16.432,Surprise recog test,2023.1.3,59.949594401998525,
75,0,75,0,,,,,,,,,,,,,,,,,,,,,,,,,,,,,,,,,,,,577.2688210000051,578.2858128000516,575.7840921999887,575.7840921999887,575.7840921999887,575.7840921999887,,new_fruit_27.png,76,1.0,1.4881194999907166,,047,11,2025-02-20_14h06.16.432,Surprise recog test,2023.1.3,59.949594401998525,
76,0,76,0,,,,,,,,,,,,,,,,,,,,,,,,,,,,,,,,,,,,580.6976992000127,581.7145610000007,578.2858128000516,578.2858128000516,578.2858128000516,578.2858128000516,,new_fruit_17.png,77,1.0,2.407838899991475,,047,11,2025-02-20_14h06.16.432,Surprise recog test,2023.1.3,59.949594401998525,
77,0,77,0,,,,,,,,,,,,,,,,,,,,,,,,,,,,,,,,,,,,586.1127806999721,587.1276769000106,581.7145610000007,581.7145610000007,581.7145610000007,581.7145610000007,,new_sceneOut_24.png,78,4.0,4.399286900064908,,047,11,2025-02-20_14h06.16.432,Surprise recog test,2023.1.3,59.949594401998525,
78,0,78,0,,,,,,,,,,,,,,,,,,,,,,,,,,,,,,,,,,,,590.5066899000667,591.5116475999821,587.1276769000106,587.1276769000106,587.1276769000106,587.1276769000106,,new_sceneIn_33.png,79,5.0,3.3743771000299603,,047,11,2025-02-20_14h06.16.432,Surprise recog test,2023.1.3,59.949594401998525,
79,0,79,0,,,,,,,,,,,,,,,,,,,,,,,,,,,,,,,,,,,,595.1471546000103,,591.5116475999821,591.5116475999821,591.5116475999821,591.5116475999821,,old_sceneOut_39.png,80,4.0,3.6323441999265924,,047,11,2025-02-20_14h06.16.432,Surprise recog test,2023.1.3,59.949594401998525,
80,0,80,0,,,,,,,,,,,,,,,,,,,,,,,,,,,,,,,,,,,,599.9438354000449,600.9691955000162,596.1814902999904,596.1814902999904,596.1814902999904,596.1814902999904,,new_stationery_22.png,81,3.0,3.7641880000010133,,047,11,2025-02-20_14h06.16.432,Surprise recog test,2023.1.3,59.949594401998525,
81,0,81,0,,,,,,,,,,,,,,,,,,,,,,,,,,,,,,,,,,,,602.3269471999956,603.3499640000518,600.9691955000162,600.9691955000162,600.9691955000162,600.9691955000162,,new_sceneOut_36.png,82,5.0,1.360197199974209,,047,11,2025-02-20_14h06.16.432,Surprise recog test,2023.1.3,59.949594401998525,
82,0,82,0,,,,,,,,,,,,,,,,,,,,,,,,,,,,,,,,,,,,605.3355201999657,606.3417659000261,603.3499640000518,603.3499640000518,603.3499640000518,603.3499640000518,,old_sceneOut_2.png,83,4.0,1.9859847000334412,,047,11,2025-02-20_14h06.16.432,Surprise recog test,2023.1.3,59.949594401998525,
83,0,83,0,,,,,,,,,,,,,,,,,,,,,,,,,,,,,,,,,,,,608.078098500031,609.1090301000513,606.3417659000261,606.3417659000261,606.3417659000261,606.3417659000261,,old_sceneIn_25.png,84,5.0,1.734089499921538,,047,11,2025-02-20_14h06.16.432,Surprise recog test,2023.1.3,59.949594401998525,
84,0,84,0,,,,,,,,,,,,,,,,,,,,,,,,,,,,,,,,,,,,610.6779458000092,611.7042972999625,609.1090301000513,609.1090301000513,609.1090301000513,609.1090301000513,,new_sceneOut_18.png,85,5.0,1.5702236000215635,,047,11,2025-02-20_14h06.16.432,Surprise recog test,2023.1.3,59.949594401998525,
85,0,85,0,,,,,,,,,,,,,,,,,,,,,,,,,,,,,,,,,,,,613.3994279999752,614.4335730000166,611.7042972999625,611.7042972999625,611.7042972999625,611.7042972999625,,new_stationery_17.png,86,1.0,1.6954836000222713,,047,11,2025-02-20_14h06.16.432,Surprise recog test,2023.1.3,59.949594401998525,
86,0,86,0,,,,,,,,,,,,,,,,,,,,,,,,,,,,,,,,,,,,616.5821183000226,,614.4335730000166,614.4335730000166,614.4335730000166,614.4335730000166,,old_sceneIn_38.png,87,5.0,2.152971100062132,,047,11,2025-02-20_14h06.16.432,Surprise recog test,2023.1.3,59.949594401998525,
87,0,87,0,,,,,,,,,,,,,,,,,,,,,,,,,,,,,,,,,,,,619.6412455000682,620.6730965999886,617.6138296000427,617.6138296000427,617.6138296000427,617.6138296000427,,new_sceneIn_31.png,88,5.0,2.0251427999464795,,047,11,2025-02-20_14h06.16.432,Surprise recog test,2023.1.3,59.949594401998525,
88,0,88,0,,,,,,,,,,,,,,,,,,,,,,,,,,,,,,,,,,,,623.9443652000045,624.9659177999711,620.6730965999886,620.6730965999886,620.6730965999886,620.6730965999886,,old_sceneOut_21.png,89,2.0,3.2760901999427006,,047,11,2025-02-20_14h06.16.432,Surprise recog test,2023.1.3,59.949594401998525,
89,0,89,0,,,,,,,,,,,,,,,,,,,,,,,,,,,,,,,,,,,,628.7373947000597,629.7570752999745,624.9659177999711,624.9659177999711,624.9659177999711,624.9659177999711,,new_fruit_22.png,90,4.0,3.7720753999892622,,047,11,2025-02-20_14h06.16.432,Surprise recog test,2023.1.3,59.949594401998525,
90,0,90,0,,,,,,,,,,,,,,,,,,,,,,,,,,,,,,,,,,,,631.8344805999659,632.8491151999915,629.7570752999745,629.7570752999745,629.7570752999745,629.7570752999745,,new_stationery_44.png,91,2.0,2.0755988000892103,,047,11,2025-02-20_14h06.16.432,Surprise recog test,2023.1.3,59.949594401998525,
91,0,91,0,,,,,,,,,,,,,,,,,,,,,,,,,,,,,,,,,,,,634.9496203999734,635.9685980000068,632.8491151999915,632.8491151999915,632.8491151999915,632.8491151999915,,new_fruit_4.png,92,4.0,2.0947596000041813,,047,11,2025-02-20_14h06.16.432,Surprise recog test,2023.1.3,59.949594401998525,
92,0,92,0,,,,,,,,,,,,,,,,,,,,,,,,,,,,,,,,,,,,639.0015404999722,640.0177737000631,635.9685980000068,635.9685980000068,635.9685980000068,635.9685980000068,,new_sceneIn_42.png,93,5.0,3.0283857999602333,,047,11,2025-02-20_14h06.16.432,Surprise recog test,2023.1.3,59.949594401998525,
93,0,93,0,,,,,,,,,,,,,,,,,,,,,,,,,,,,,,,,,,,,641.5155548000475,642.5225829000119,640.0177737000631,640.0177737000631,640.0177737000631,640.0177737000631,,new_stationery_46.png,94,5.0,1.4940798999741673,,047,11,2025-02-20_14h06.16.432,Surprise recog test,2023.1.3,59.949594401998525,
94,0,94,0,,,,,,,,,,,,,,,,,,,,,,,,,,,,,,,,,,,,646.3258413999574,647.3481889000395,642.5225829000119,642.5225829000119,642.5225829000119,642.5225829000119,,old_sceneOut_6.png,95,3.0,3.797287299996242,,047,11,2025-02-20_14h06.16.432,Surprise recog test,2023.1.3,59.949594401998525,
95,0,95,0,,,,,,,,,,,,,,,,,,,,,,,,,,,,,,,,,,,,649.6142244000221,650.6429791999981,647.3481889000395,647.3481889000395,647.3481889000395,647.3481889000395,,new_sceneIn_4.png,96,4.0,2.259259599959478,,047,11,2025-02-20_14h06.16.432,Surprise recog test,2023.1.3,59.949594401998525,
96,0,96,0,,,,,,,,,,,,,,,,,,,,,,,,,,,,,,,,,,,,652.7816302999854,653.7996412999928,650.6429791999981,650.6429791999981,650.6429791999981,650.6429791999981,,old_stationery_24.png,97,2.0,2.140893500065431,,047,11,2025-02-20_14h06.16.432,Surprise recog test,2023.1.3,59.949594401998525,
97,0,97,0,,,,,,,,,,,,,,,,,,,,,,,,,,,,,,,,,,,,655.1865634999704,656.2152060000226,653.7996412999928,653.7996412999928,653.7996412999928,653.7996412999928,,old_stationery_3.png,98,1.0,1.3825123000424355,,047,11,2025-02-20_14h06.16.432,Surprise recog test,2023.1.3,59.949594401998525,
98,0,98,0,,,,,,,,,,,,,,,,,,,,,,,,,,,,,,,,,,,,660.1784267000621,661.203819300048,656.2152060000226,656.2152060000226,656.2152060000226,656.2152060000226,,new_sceneIn_17.png,99,5.0,3.96560330002103,,047,11,2025-02-20_14h06.16.432,Surprise recog test,2023.1.3,59.949594401998525,
99,0,99,0,,,,,,,,,,,,,,,,,,,,,,,,,,,,,,,,,,,,662.4142607999966,663.4243567000376,661.203819300048,661.203819300048,661.203819300048,661.203819300048,,new_stationery_37.png,100,5.0,1.2137909999582916,,047,11,2025-02-20_14h06.16.432,Surprise recog test,2023.1.3,59.949594401998525,
100,0,100,0,,,,,,,,,,,,,,,,,,,,,,,,,,,,,,,,,,,,665.7485994000454,666.7733348000329,663.4243567000376,663.4243567000376,663.4243567000376,663.4243567000376,,new_fruit_49.png,101,2.0,2.3164772000163794,,047,11,2025-02-20_14h06.16.432,Surprise recog test,2023.1.3,59.949594401998525,
101,0,101,0,,,,,,,,,,,,,,,,,,,,,,,,,,,,,,,,,,,,671.7607534000417,,666.7733348000329,666.7733348000329,666.7733348000329,666.7733348000329,671.7471346000675,new_sceneIn_27.png,102,None,None,,047,11,2025-02-20_14h06.16.432,Surprise recog test,2023.1.3,59.949594401998525,
102,0,102,0,,,,,,,,,,,,,,,,,,,,,,,,,,,,,,,,,,,,674.1998021999607,675.2300598999718,672.795323700062,672.795323700062,672.795323700062,672.795323700062,,new_sceneOut_4.png,103,5.0,1.4073131999466568,,047,11,2025-02-20_14h06.16.432,Surprise recog test,2023.1.3,59.949594401998525,
103,0,103,0,,,,,,,,,,,,,,,,,,,,,,,,,,,,,,,,,,,,677.4182472999673,678.4474152000621,675.2300598999718,675.2300598999718,675.2300598999718,675.2300598999718,,new_fruit_35.png,104,3.0,2.1883506999583915,,047,11,2025-02-20_14h06.16.432,Surprise recog test,2023.1.3,59.949594401998525,
104,0,104,0,,,,,,,,,,,,,,,,,,,,,,,,,,,,,,,,,,,,680.440340799978,681.4537757000653,678.4474152000621,678.4474152000621,678.4474152000621,678.4474152000621,,new_fruit_32.png,105,4.0,1.9953871999168769,,047,11,2025-02-20_14h06.16.432,Surprise recog test,2023.1.3,59.949594401998525,
105,0,105,0,,,,,,,,,,,,,,,,,,,,,,,,,,,,,,,,,,,,683.3485581000568,684.3692356999964,681.4537757000653,681.4537757000653,681.4537757000653,681.4537757000653,,new_sceneIn_18.png,106,4.0,1.8906195999588817,,047,11,2025-02-20_14h06.16.432,Surprise recog test,2023.1.3,59.949594401998525,
106,0,106,0,,,,,,,,,,,,,,,,,,,,,,,,,,,,,,,,,,,,686.76447309996,687.7931471000193,684.3692356999964,684.3692356999964,684.3692356999964,684.3692356999964,,new_stationery_2.png,107,2.0,2.394940000027418,,047,11,2025-02-20_14h06.16.432,Surprise recog test,2023.1.3,59.949594401998525,
107,0,107,0,,,,,,,,,,,,,,,,,,,,,,,,,,,,,,,,,,,,689.2086979000596,,687.7931471000193,687.7931471000193,687.7931471000193,687.7931471000193,,new_stationery_45.png,108,5.0,1.420183700043708,,047,11,2025-02-20_14h06.16.432,Surprise recog test,2023.1.3,59.949594401998525,
108,0,108,0,,,,,,,,,,,,,,,,,,,,,,,,,,,,,,,,,,,,692.0420997999609,693.0592581999954,690.2295357000548,690.2295357000548,690.2295357000548,690.2295357000548,,new_stationery_3.png,109,5.0,1.8084446000866592,,047,11,2025-02-20_14h06.16.432,Surprise recog test,2023.1.3,59.949594401998525,
109,0,109,0,,,,,,,,,,,,,,,,,,,,,,,,,,,,,,,,,,,,695.5976584999589,696.6142560000299,693.0592581999954,693.0592581999954,693.0592581999954,693.0592581999954,,old_sceneOut_40.png,110,5.0,2.540121900034137,,047,11,2025-02-20_14h06.16.432,Surprise recog test,2023.1.3,59.949594401998525,
110,0,110,0,,,,,,,,,,,,,,,,,,,,,,,,,,,,,,,,,,,,698.1574307000265,699.183151400066,696.6142560000299,696.6142560000299,696.6142560000299,696.6142560000299,,old_stationery_19.png,111,1.0,1.5312183999922127,,047,11,2025-02-20_14h06.16.432,Surprise recog test,2023.1.3,59.949594401998525,
111,0,111,0,,,,,,,,,,,,,,,,,,,,,,,,,,,,,,,,,,,,700.2829126999713,,699.183151400066,699.183151400066,699.183151400066,699.183151400066,,old_stationery_15.png,112,1.0,1.1007022999692708,,047,11,2025-02-20_14h06.16.432,Surprise recog test,2023.1.3,59.949594401998525,
112,0,112,0,,,,,,,,,,,,,,,,,,,,,,,,,,,,,,,,,,,,704.1199316000566,,701.3155688999686,701.3155688999686,701.3155688999686,701.3155688999686,,new_fruit_20.png,113,4.0,2.8062232999363914,,047,11,2025-02-20_14h06.16.432,Surprise recog test,2023.1.3,59.949594401998525,
113,0,113,0,,,,,,,,,,,,,,,,,,,,,,,,,,,,,,,,,,,,707.996797400061,709.0175688000163,705.1417115000077,705.1417115000077,705.1417115000077,705.1417115000077,,old_sceneOut_46.png,114,3.0,2.8508718999801204,,047,11,2025-02-20_14h06.16.432,Surprise recog test,2023.1.3,59.949594401998525,
114,0,114,0,,,,,,,,,,,,,,,,,,,,,,,,,,,,,,,,,,,,712.0738052000524,713.0825351000531,709.0175688000163,709.0175688000163,709.0175688000163,709.0175688000163,,old_fruit_43.png,115,3.0,3.054378899978474,,047,11,2025-02-20_14h06.16.432,Surprise recog test,2023.1.3,59.949594401998525,
115,0,115,0,,,,,,,,,,,,,,,,,,,,,,,,,,,,,,,,,,,,714.92818789999,715.9472878000233,713.0825351000531,713.0825351000531,713.0825351000531,713.0825351000531,,old_stationery_41.png,116,1.0,1.8410079000750557,,047,11,2025-02-20_14h06.16.432,Surprise recog test,2023.1.3,59.949594401998525,
116,0,116,0,,,,,,,,,,,,,,,,,,,,,,,,,,,,,,,,,,,,718.0759601000464,719.0876783999847,715.9472878000233,715.9472878000233,715.9472878000233,715.9472878000233,,old_sceneIn_6.png,117,4.0,2.1312957999762148,,047,11,2025-02-20_14h06.16.432,Surprise recog test,2023.1.3,59.949594401998525,
117,0,117,0,,,,,,,,,,,,,,,,,,,,,,,,,,,,,,,,,,,,722.0532537000254,723.0867291999748,719.0876783999847,719.0876783999847,719.0876783999847,719.0876783999847,,new_stationery_1.png,118,3.0,2.9617054000264034,,047,11,2025-02-20_14h06.16.432,Surprise recog test,2023.1.3,59.949594401998525,
118,0,118,0,,,,,,,,,,,,,,,,,,,,,,,,,,,,,,,,,,,,727.6008068000665,728.625141400029,723.0867291999748,723.0867291999748,723.0867291999748,723.0867291999748,,new_fruit_33.png,119,4.0,4.516055100015365,,047,11,2025-02-20_14h06.16.432,Surprise recog test,2023.1.3,59.949594401998525,
119,0,119,0,,,,,,,,,,,,,,,,,,,,,,,,,,,,,,,,,,,,730.3057262999937,731.3191060000099,728.625141400029,728.625141400029,728.625141400029,728.625141400029,,new_fruit_15.png,120,3.0,1.68347230006475,,047,11,2025-02-20_14h06.16.432,Surprise recog test,2023.1.3,59.949594401998525,
120,0,120,0,,,,,,,,,,,,,,,,,,,,,,,,,,,,,,,,,,,,734.1496837000595,735.1675087000476,731.3191060000099,731.3191060000099,731.3191060000099,731.3191060000099,,new_fruit_2.png,121,2.0,2.8285986999981105,,047,11,2025-02-20_14h06.16.432,Surprise recog test,2023.1.3,59.949594401998525,
121,0,121,0,,,,,,,,,,,,,,,,,,,,,,,,,,,,,,,,,,,,736.4938001000555,737.5020423000678,735.1675087000476,735.1675087000476,735.1675087000476,735.1675087000476,,old_fruit_24.png,122,1.0,1.3225228000665084,,047,11,2025-02-20_14h06.16.432,Surprise recog test,2023.1.3,59.949594401998525,
122,0,122,0,,,,,,,,,,,,,,,,,,,,,,,,,,,,,,,,,,,,740.8391076000407,741.8648092000512,737.5020423000678,737.5020423000678,737.5020423000678,737.5020423000678,,new_sceneOut_49.png,123,4.0,3.3323590999934822,,047,11,2025-02-20_14h06.16.432,Surprise recog test,2023.1.3,59.949594401998525,
123,0,123,0,,,,,,,,,,,,,,,,,,,,,,,,,,,,,,,,,,,,743.3566312000621,744.3751720000291,741.8648092000512,741.8648092000512,741.8648092000512,741.8648092000512,,old_stationery_35.png,124,1.0,1.4942046999931335,,047,11,2025-02-20_14h06.16.432,Surprise recog test,2023.1.3,59.949594401998525,
124,0,124,0,,,,,,,,,,,,,,,,,,,,,,,,,,,,,,,,,,,,748.2035421000328,749.2157784999581,744.3751720000291,744.3751720000291,744.3751720000291,744.3751720000291,,new_sceneIn_45.png,125,4.0,3.821625499986112,,047,11,2025-02-20_14h06.16.432,Surprise recog test,2023.1.3,59.949594401998525,
125,0,125,0,,,,,,,,,,,,,,,,,,,,,,,,,,,,,,,,,,,,752.4087754000211,753.4163298000349,749.2157784999581,749.2157784999581,749.2157784999581,749.2157784999581,,old_sceneIn_28.png,126,5.0,3.192684799898416,,047,11,2025-02-20_14h06.16.432,Surprise recog test,2023.1.3,59.949594401998525,
126,0,126,0,,,,,,,,,,,,,,,,,,,,,,,,,,,,,,,,,,,,757.4197781999828,758.4378283000551,753.4163298000349,753.4163298000349,753.4163298000349,753.4163298000349,,old_sceneIn_17.png,127,4.0,3.9998136000940576,,047,11,2025-02-20_14h06.16.432,Surprise recog test,2023.1.3,59.949594401998525,
127,0,127,0,,,,,,,,,,,,,,,,,,,,,,,,,,,,,,,,,,,,763.4348659999669,,758.4378283000551,758.4378283000551,758.4378283000551,758.4378283000551,763.4203529000515,old_fruit_31.png,128,None,None,,047,11,2025-02-20_14h06.16.432,Surprise recog test,2023.1.3,59.949594401998525,
128,0,128,0,,,,,,,,,,,,,,,,,,,,,,,,,,,,,,,,,,,,768.3012708000606,769.3251245999709,764.4566727000056,764.4566727000056,764.4566727000056,764.4566727000056,,new_fruit_18.png,129,5.0,3.8487211000174284,,047,11,2025-02-20_14h06.16.432,Surprise recog test,2023.1.3,59.949594401998525,
129,0,129,0,,,,,,,,,,,,,,,,,,,,,,,,,,,,,,,,,,,,771.3241529000225,772.3465321999975,769.3251245999709,769.3251245999709,769.3251245999709,769.3251245999709,,new_stationery_13.png,130,5.0,2.001219999976456,,047,11,2025-02-20_14h06.16.432,Surprise recog test,2023.1.3,59.949594401998525,
130,0,130,0,,,,,,,,,,,,,,,,,,,,,,,,,,,,,,,,,,,,774.5998048000038,775.6235600999789,772.3465321999975,772.3465321999975,772.3465321999975,772.3465321999975,,new_sceneOut_37.png,131,5.0,2.254348700051196,,047,11,2025-02-20_14h06.16.432,Surprise recog test,2023.1.3,59.949594401998525,
131,0,131,0,,,,,,,,,,,,,,,,,,,,,,,,,,,,,,,,,,,,779.9906842999626,781.0057478999952,775.6235600999789,775.6235600999789,775.6235600999789,775.6235600999789,,old_fruit_50.png,132,4.0,4.367646700004116,,047,11,2025-02-20_14h06.16.432,Surprise recog test,2023.1.3,59.949594401998525,
132,0,132,0,,,,,,,,,,,,,,,,,,,,,,,,,,,,,,,,,,,,783.015352300019,784.0252608000301,781.0057478999952,781.0057478999952,781.0057478999952,781.0057478999952,,old_sceneOut_24.png,133,3.0,2.0042651999974623,,047,11,2025-02-20_14h06.16.432,Surprise recog test,2023.1.3,59.949594401998525,
133,0,133,0,,,,,,,,,,,,,,,,,,,,,,,,,,,,,,,,,,,,787.8496407000348,788.8742530000163,784.0252608000301,784.0252608000301,784.0252608000301,784.0252608000301,,new_sceneIn_34.png,134,4.0,3.820486299926415,,047,11,2025-02-20_14h06.16.432,Surprise recog test,2023.1.3,59.949594401998525,
134,0,134,0,,,,,,,,,,,,,,,,,,,,,,,,,,,,,,,,,,,,792.2223181000445,793.2322794999927,788.8742530000163,788.8742530000163,788.8742530000163,788.8742530000163,,old_fruit_27.png,135,4.0,3.3492588999215513,,047,11,2025-02-20_14h06.16.432,Surprise recog test,2023.1.3,59.949594401998525,
135,0,135,0,,,,,,,,,,,,,,,,,,,,,,,,,,,,,,,,,,,,796.819820499979,797.8330844000448,793.2322794999927,793.2322794999927,793.2322794999927,793.2322794999927,,new_sceneOut_50.png,136,1.0,3.583713800064288,,047,11,2025-02-20_14h06.16.432,Surprise recog test,2023.1.3,59.949594401998525,
136,0,136,0,,,,,,,,,,,,,,,,,,,,,,,,,,,,,,,,,,,,800.0164279000601,,797.8330844000448,797.8330844000448,797.8330844000448,797.8330844000448,,old_sceneOut_31.png,137,4.0,2.178044700063765,,047,11,2025-02-20_14h06.16.432,Surprise recog test,2023.1.3,59.949594401998525,
137,0,137,0,,,,,,,,,,,,,,,,,,,,,,,,,,,,,,,,,,,,802.8072612000396,803.8205255999928,801.0495015999768,801.0495015999768,801.0495015999768,801.0495015999768,,old_sceneOut_35.png,138,3.0,1.7573755000485107,,047,11,2025-02-20_14h06.16.432,Surprise recog test,2023.1.3,59.949594401998525,
138,0,138,0,,,,,,,,,,,,,,,,,,,,,,,,,,,,,,,,,,,,805.934835699969,806.9412858999567,803.8205255999928,803.8205255999928,803.8205255999928,803.8205255999928,,old_sceneIn_40.png,139,1.0,2.104274799930863,,047,11,2025-02-20_14h06.16.432,Surprise recog test,2023.1.3,59.949594401998525,
139,0,139,0,,,,,,,,,,,,,,,,,,,,,,,,,,,,,,,,,,,,811.8063170000678,812.8128192999866,806.9412858999567,806.9412858999567,806.9412858999567,806.9412858999567,,old_sceneIn_13.png,140,4.0,4.857015899964608,,047,11,2025-02-20_14h06.16.432,Surprise recog test,2023.1.3,59.949594401998525,
140,0,140,0,,,,,,,,,,,,,,,,,,,,,,,,,,,,,,,,,,,,814.8921532999957,815.8971421000315,812.8128192999866,812.8128192999866,812.8128192999866,812.8128192999866,,new_sceneIn_2.png,141,5.0,2.070972300018184,,047,11,2025-02-20_14h06.16.432,Surprise recog test,2023.1.3,59.949594401998525,
141,0,141,0,,,,,,,,,,,,,,,,,,,,,,,,,,,,,,,,,,,,820.6803152000066,821.686346600065,815.8971421000315,815.8971421000315,815.8971421000315,815.8971421000315,,new_sceneOut_40.png,142,4.0,4.773637100006454,,047,11,2025-02-20_14h06.16.432,Surprise recog test,2023.1.3,59.949594401998525,
142,0,142,0,,,,,,,,,,,,,,,,,,,,,,,,,,,,,,,,,,,,823.3158867000602,824.3210806000279,821.686346600065,821.686346600065,821.686346600065,821.686346600065,,old_sceneIn_20.png,143,1.0,1.621757599990815,,047,11,2025-02-20_14h06.16.432,Surprise recog test,2023.1.3,59.949594401998525,
143,0,143,0,,,,,,,,,,,,,,,,,,,,,,,,,,,,,,,,,,,,825.9847075999714,826.9905806999886,824.3210806000279,824.3210806000279,824.3210806000279,824.3210806000279,,new_sceneIn_6.png,144,5.0,1.6537961999420077,,047,11,2025-02-20_14h06.16.432,Surprise recog test,2023.1.3,59.949594401998525,
144,0,144,0,,,,,,,,,,,,,,,,,,,,,,,,,,,,,,,,,,,,831.122289699968,832.127201700001,826.9905806999886,826.9905806999886,826.9905806999886,826.9905806999886,,old_sceneOut_34.png,145,3.0,4.123120600008406,,047,11,2025-02-20_14h06.16.432,Surprise recog test,2023.1.3,59.949594401998525,
145,0,145,0,,,,,,,,,,,,,,,,,,,,,,,,,,,,,,,,,,,,836.8270261000143,837.8323552999645,832.127201700001,832.127201700001,832.127201700001,832.127201700001,,old_sceneIn_42.png,146,3.0,4.689842300023884,,047,11,2025-02-20_14h06.16.432,Surprise recog test,2023.1.3,59.949594401998525,
146,0,146,0,,,,,,,,,,,,,,,,,,,,,,,,,,,,,,,,,,,,839.2456731999991,840.2504262999864,837.8323552999645,837.8323552999645,837.8323552999645,837.8323552999645,,old_sceneIn_46.png,147,5.0,1.4038634999888018,,047,11,2025-02-20_14h06.16.432,Surprise recog test,2023.1.3,59.949594401998525,
147,0,147,0,,,,,,,,,,,,,,,,,,,,,,,,,,,,,,,,,,,,841.7144929000642,842.7195337000303,840.2504262999864,840.2504262999864,840.2504262999864,840.2504262999864,,new_stationery_31.png,148,5.0,1.453549800091423,,047,11,2025-02-20_14h06.16.432,Surprise recog test,2023.1.3,59.949594401998525,
148,0,148,0,,,,,,,,,,,,,,,,,,,,,,,,,,,,,,,,,,,,844.5001054999884,845.505174000049,842.7195337000303,842.7195337000303,842.7195337000303,842.7195337000303,,old_stationery_26.png,149,1.0,1.7721564999083057,,047,11,2025-02-20_14h06.16.432,Surprise recog test,2023.1.3,59.949594401998525,
149,0,149,0,,,,,,,,,,,,,,,,,,,,,,,,,,,,,,,,,,,,846.8019629999762,847.8088848000625,845.505174000049,845.505174000049,845.505174000049,845.505174000049,,old_stationery_29.png,150,1.0,1.2865054999710992,,047,11,2025-02-20_14h06.16.432,Surprise recog test,2023.1.3,59.949594401998525,
150,0,150,0,,,,,,,,,,,,,,,,,,,,,,,,,,,,,,,,,,,,850.238205300062,851.2584752000403,847.8088848000625,847.8088848000625,847.8088848000625,847.8088848000625,,old_sceneOut_42.png,151,4.0,2.4210005999775603,,047,11,2025-02-20_14h06.16.432,Surprise recog test,2023.1.3,59.949594401998525,
151,0,151,0,,,,,,,,,,,,,,,,,,,,,,,,,,,,,,,,,,,,852.605036700028,853.6190443000523,851.2584752000403,851.2584752000403,851.2584752000403,851.2584752000403,,old_stationery_27.png,152,1.0,1.348325700033456,,047,11,2025-02-20_14h06.16.432,Surprise recog test,2023.1.3,59.949594401998525,
152,0,152,0,,,,,,,,,,,,,,,,,,,,,,,,,,,,,,,,,,,,854.6432635000674,855.664720700006,853.6190443000523,853.6190443000523,853.6190443000523,853.6190443000523,,old_sceneIn_33.png,153,1.0,1.022254600073211,,047,11,2025-02-20_14h06.16.432,Surprise recog test,2023.1.3,59.949594401998525,
153,0,153,0,,,,,,,,,,,,,,,,,,,,,,,,,,,,,,,,,,,,858.3272767000599,859.3442447000416,855.664720700006,855.664720700006,855.664720700006,855.664720700006,,old_sceneOut_23.png,154,4.0,2.662183499895036,,047,11,2025-02-20_14h06.16.432,Surprise recog test,2023.1.3,59.949594401998525,
154,0,154,0,,,,,,,,,,,,,,,,,,,,,,,,,,,,,,,,,,,,861.8861581999809,862.9174212999642,859.3442447000416,859.3442447000416,859.3442447000416,859.3442447000416,,new_fruit_38.png,155,5.0,2.5387001000344753,,047,11,2025-02-20_14h06.16.432,Surprise recog test,2023.1.3,59.949594401998525,
155,0,155,0,,,,,,,,,,,,,,,,,,,,,,,,,,,,,,,,,,,,865.9119396000169,866.9381796000525,862.9174212999642,862.9174212999642,862.9174212999642,862.9174212999642,,old_sceneOut_50.png,156,4.0,2.996717300033197,,047,11,2025-02-20_14h06.16.432,Surprise recog test,2023.1.3,59.949594401998525,
156,0,156,0,,,,,,,,,,,,,,,,,,,,,,,,,,,,,,,,,,,,869.7542041999986,870.7727378000272,866.9381796000525,866.9381796000525,866.9381796000525,866.9381796000525,,new_fruit_45.png,157,3.0,2.816901099984534,,047,11,2025-02-20_14h06.16.432,Surprise recog test,2023.1.3,59.949594401998525,
157,0,157,0,,,,,,,,,,,,,,,,,,,,,,,,,,,,,,,,,,,,874.5374356999528,875.5664137999993,870.7727378000272,870.7727378000272,870.7727378000272,870.7727378000272,,new_fruit_13.png,158,3.0,3.7648413999704644,,047,11,2025-02-20_14h06.16.432,Surprise recog test,2023.1.3,59.949594401998525,
158,0,158,0,,,,,,,,,,,,,,,,,,,,,,,,,,,,,,,,,,,,879.0473499000072,880.0556409000419,875.5664137999993,875.5664137999993,875.5664137999993,875.5664137999993,,new_sceneIn_44.png,159,2.0,3.482960099936463,,047,11,2025-02-20_14h06.16.432,Surprise recog test,2023.1.3,59.949594401998525,
159,0,159,0,,,,,,,,,,,,,,,,,,,,,,,,,,,,,,,,,,,,883.2220805999823,884.2566850000294,880.0556409000419,880.0556409000419,880.0556409000419,880.0556409000419,,new_sceneOut_10.png,160,1.0,3.1617093000095338,,047,11,2025-02-20_14h06.16.432,Surprise recog test,2023.1.3,59.949594401998525,
160,0,160,0,,,,,,,,,,,,,,,,,,,,,,,,,,,,,,,,,,,,885.476085799979,886.5040110000409,884.2566850000294,884.2566850000294,884.2566850000294,884.2566850000294,,old_sceneIn_10.png,161,1.0,1.2220604000613093,,047,11,2025-02-20_14h06.16.432,Surprise recog test,2023.1.3,59.949594401998525,
161,0,161,0,,,,,,,,,,,,,,,,,,,,,,,,,,,,,,,,,,,,889.7822888999945,890.8075135999825,886.5040110000409,886.5040110000409,886.5040110000409,886.5040110000409,,new_sceneIn_37.png,162,3.0,3.2800618999172,,047,11,2025-02-20_14h06.16.432,Surprise recog test,2023.1.3,59.949594401998525,
162,0,162,0,,,,,,,,,,,,,,,,,,,,,,,,,,,,,,,,,,,,892.6963370000012,893.7274717000546,890.8075135999825,890.8075135999825,890.8075135999825,890.8075135999825,,new_sceneOut_19.png,163,3.0,1.8905859000515193,,047,11,2025-02-20_14h06.16.432,Surprise recog test,2023.1.3,59.949594401998525,
163,0,163,0,,,,,,,,,,,,,,,,,,,,,,,,,,,,,,,,,,,,896.4552187999943,897.47789129999,893.7274717000546,893.7274717000546,893.7274717000546,893.7274717000546,,new_sceneOut_8.png,164,4.0,2.7296947999857366,,047,11,2025-02-20_14h06.16.432,Surprise recog test,2023.1.3,59.949594401998525,
164,0,164,0,,,,,,,,,,,,,,,,,,,,,,,,,,,,,,,,,,,,899.957078400068,900.9840904000448,897.47789129999,897.47789129999,897.47789129999,897.47789129999,,new_fruit_6.png,165,3.0,2.480611300095916,,047,11,2025-02-20_14h06.16.432,Surprise recog test,2023.1.3,59.949594401998525,
165,0,165,0,,,,,,,,,,,,,,,,,,,,,,,,,,,,,,,,,,,,903.4330689000199,904.4470635000616,900.9840904000448,900.9840904000448,900.9840904000448,900.9840904000448,,new_fruit_10.png,166,4.0,2.4523123999824747,,047,11,2025-02-20_14h06.16.432,Surprise recog test,2023.1.3,59.949594401998525,
166,0,166,0,,,,,,,,,,,,,,,,,,,,,,,,,,,,,,,,,,,,907.7538002000656,908.7723184999777,904.4470635000616,904.4470635000616,904.4470635000616,904.4470635000616,,old_sceneIn_30.png,167,2.0,3.3053215000545606,,047,11,2025-02-20_14h06.16.432,Surprise recog test,2023.1.3,59.949594401998525,
167,0,167,0,,,,,,,,,,,,,,,,,,,,,,,,,,,,,,,,,,,,912.2834449000657,913.3105403999798,908.7723184999777,908.7723184999777,908.7723184999777,908.7723184999777,,new_sceneOut_22.png,168,4.0,3.512175800045952,,047,11,2025-02-20_14h06.16.432,Surprise recog test,2023.1.3,59.949594401998525,
168,0,168,0,,,,,,,,,,,,,,,,,,,,,,,,,,,,,,,,,,,,915.4760449000169,916.4982629000442,913.3105403999798,913.3105403999798,913.3105403999798,913.3105403999798,,old_sceneIn_32.png,169,1.0,2.1677971999160945,,047,11,2025-02-20_14h06.16.432,Surprise recog test,2023.1.3,59.949594401998525,
169,0,169,0,,,,,,,,,,,,,,,,,,,,,,,,,,,,,,,,,,,,917.6962785000214,,916.4982629000442,916.4982629000442,916.4982629000442,916.4982629000442,,old_sceneIn_39.png,170,1.0,1.2010012000100687,,047,11,2025-02-20_14h06.16.432,Surprise recog test,2023.1.3,59.949594401998525,
170,0,170,0,,,,,,,,,,,,,,,,,,,,,,,,,,,,,,,,,,,,921.8205398999853,922.853043399984,918.7304128999822,918.7304128999822,918.7304128999822,918.7304128999822,,new_stationery_16.png,171,4.0,3.092790700029582,,047,11,2025-02-20_14h06.16.432,Surprise recog test,2023.1.3,59.949594401998525,
171,0,171,0,,,,,,,,,,,,,,,,,,,,,,,,,,,,,,,,,,,,925.0499442999717,926.0681329000508,922.853043399984,922.853043399984,922.853043399984,922.853043399984,,old_sceneIn_23.png,172,1.0,2.197686000028625,,047,11,2025-02-20_14h06.16.432,Surprise recog test,2023.1.3,59.949594401998525,
172,0,172,0,,,,,,,,,,,,,,,,,,,,,,,,,,,,,,,,,,,,928.9555257000029,929.9760049000615,926.0681329000508,926.0681329000508,926.0681329000508,926.0681329000508,,new_fruit_12.png,173,4.0,2.886670899926685,,047,11,2025-02-20_14h06.16.432,Surprise recog test,2023.1.3,59.949594401998525,
173,0,173,0,,,,,,,,,,,,,,,,,,,,,,,,,,,,,,,,,,,,933.3490278000245,934.3661668000277,929.9760049000615,929.9760049000615,929.9760049000615,929.9760049000615,,old_fruit_41.png,174,4.0,3.3736882999073714,,047,11,2025-02-20_14h06.16.432,Surprise recog test,2023.1.3,59.949594401998525,
174,0,174,0,,,,,,,,,,,,,,,,,,,,,,,,,,,,,,,,,,,,936.9772325999802,937.9943937000353,934.3661668000277,934.3661668000277,934.3661668000277,934.3661668000277,,old_fruit_19.png,175,3.0,2.607472399948165,,047,11,2025-02-20_14h06.16.432,Surprise recog test,2023.1.3,59.949594401998525,
175,0,175,0,,,,,,,,,,,,,,,,,,,,,,,,,,,,,,,,,,,,939.4411758000497,940.4659801999805,937.9943937000353,937.9943937000353,937.9943937000353,937.9943937000353,,new_stationery_32.png,176,5.0,1.4489073000149801,,047,11,2025-02-20_14h06.16.432,Surprise recog test,2023.1.3,59.949594401998525,
176,0,176,0,,,,,,,,,,,,,,,,,,,,,,,,,,,,,,,,,,,,942.6577530000359,943.6853116999846,940.4659801999805,940.4659801999805,940.4659801999805,940.4659801999805,,new_stationery_41.png,177,5.0,2.1926285999361426,,047,11,2025-02-20_14h06.16.432,Surprise recog test,2023.1.3,59.949594401998525,
177,0,177,0,,,,,,,,,,,,,,,,,,,,,,,,,,,,,,,,,,,,946.4792002000613,947.50679819996,943.6853116999846,943.6853116999846,943.6853116999846,943.6853116999846,,new_stationery_26.png,178,4.0,2.795404399977997,,047,11,2025-02-20_14h06.16.432,Surprise recog test,2023.1.3,59.949594401998525,
178,0,178,0,,,,,,,,,,,,,,,,,,,,,,,,,,,,,,,,,,,,950.3206309999805,951.3432483000215,947.50679819996,947.50679819996,947.50679819996,947.50679819996,,new_fruit_5.png,179,4.0,2.817443099920638,,047,11,2025-02-20_14h06.16.432,Surprise recog test,2023.1.3,59.949594401998525,
179,0,179,0,,,,,,,,,,,,,,,,,,,,,,,,,,,,,,,,,,,,953.7327981999842,954.7496467999881,951.3432483000215,951.3432483000215,951.3432483000215,951.3432483000215,,new_stationery_33.png,180,5.0,2.3900985999498516,,047,11,2025-02-20_14h06.16.432,Surprise recog test,2023.1.3,59.949594401998525,
180,0,180,0,,,,,,,,,,,,,,,,,,,,,,,,,,,,,,,,,,,,956.4003006999847,957.428488500067,954.7496467999881,954.7496467999881,954.7496467999881,954.7496467999881,,old_fruit_13.png,181,1.0,1.6452755000209436,,047,11,2025-02-20_14h06.16.432,Surprise recog test,2023.1.3,59.949594401998525,
181,0,181,0,,,,,,,,,,,,,,,,,,,,,,,,,,,,,,,,,,,,958.8102013999596,959.830797499977,957.428488500067,957.428488500067,957.428488500067,957.428488500067,,old_stationery_11.png,182,1.0,1.3828445000108331,,047,11,2025-02-20_14h06.16.432,Surprise recog test,2023.1.3,59.949594401998525,
182,0,182,0,,,,,,,,,,,,,,,,,,,,,,,,,,,,,,,,,,,,961.6973378000548,962.7190327000571,959.830797499977,959.830797499977,959.830797499977,959.830797499977,,new_stationery_24.png,183,4.0,1.866618899977766,,047,11,2025-02-20_14h06.16.432,Surprise recog test,2023.1.3,59.949594401998525,
183,0,183,0,,,,,,,,,,,,,,,,,,,,,,,,,,,,,,,,,,,,964.4871864999877,,962.7190327000571,962.7190327000571,962.7190327000571,962.7190327000571,,old_stationery_50.png,184,1.0,1.7707014000043273,,047,11,2025-02-20_14h06.16.432,Surprise recog test,2023.1.3,59.949594401998525,
184,0,184,0,,,,,,,,,,,,,,,,,,,,,,,,,,,,,,,,,,,,968.1678943999577,969.1924739000387,965.5196556999581,965.5196556999581,965.5196556999581,965.5196556999581,,new_sceneOut_14.png,185,4.0,2.6481013000011444,,047,11,2025-02-20_14h06.16.432,Surprise recog test,2023.1.3,59.949594401998525,
185,0,185,0,,,,,,,,,,,,,,,,,,,,,,,,,,,,,,,,,,,,972.546148100053,973.5782907999819,969.1924739000387,969.1924739000387,969.1924739000387,969.1924739000387,,new_sceneIn_30.png,186,3.0,3.3536107999971136,,047,11,2025-02-20_14h06.16.432,Surprise recog test,2023.1.3,59.949594401998525,
186,0,186,0,,,,,,,,,,,,,,,,,,,,,,,,,,,,,,,,,,,,977.0607104999945,978.0830802000128,973.5782907999819,973.5782907999819,973.5782907999819,973.5782907999819,,old_sceneIn_37.png,187,3.0,3.4825551999965683,,047,11,2025-02-20_14h06.16.432,Surprise recog test,2023.1.3,59.949594401998525,
187,0,187,0,,,,,,,,,,,,,,,,,,,,,,,,,,,,,,,,,,,,980.8225097999675,981.8507328999694,978.0830802000128,978.0830802000128,978.0830802000128,978.0830802000128,,new_sceneOut_33.png,188,2.0,2.741386800073087,,047,11,2025-02-20_14h06.16.432,Surprise recog test,2023.1.3,59.949594401998525,
188,0,188,0,,,,,,,,,,,,,,,,,,,,,,,,,,,,,,,,,,,,984.3228263000492,985.3562368999701,981.8507328999694,981.8507328999694,981.8507328999694,981.8507328999694,,new_fruit_25.png,189,3.0,2.472143999999389,,047,11,2025-02-20_14h06.16.432,Surprise recog test,2023.1.3,59.949594401998525,
189,0,189,0,,,,,,,,,,,,,,,,,,,,,,,,,,,,,,,,,,,,987.3505879000295,988.3696628999896,985.3562368999701,985.3562368999701,985.3562368999701,985.3562368999701,,old_sceneOut_41.png,190,4.0,1.9949093000032008,,047,11,2025-02-20_14h06.16.432,Surprise recog test,2023.1.3,59.949594401998525,
190,0,190,0,,,,,,,,,,,,,,,,,,,,,,,,,,,,,,,,,,,,990.4326041999739,991.4462369000539,988.3696628999896,988.3696628999896,988.3696628999896,988.3696628999896,,old_fruit_2.png,191,3.0,2.0641866999212652,,047,11,2025-02-20_14h06.16.432,Surprise recog test,2023.1.3,59.949594401998525,
191,0,191,0,,,,,,,,,,,,,,,,,,,,,,,,,,,,,,,,,,,,993.7514563000295,994.7762068000156,991.4462369000539,991.4462369000539,991.4462369000539,991.4462369000539,,old_fruit_48.png,192,2.0,2.3008404000429437,,047,11,2025-02-20_14h06.16.432,Surprise recog test,2023.1.3,59.949594401998525,
192,0,192,0,,,,,,,,,,,,,,,,,,,,,,,,,,,,,,,,,,,,997.0353083000518,998.0488003999926,994.7762068000156,994.7762068000156,994.7762068000156,994.7762068000156,,old_stationery_14.png,193,1.0,2.260380499996245,,047,11,2025-02-20_14h06.16.432,Surprise recog test,2023.1.3,59.949594401998525,
193,0,193,0,,,,,,,,,,,,,,,,,,,,,,,,,,,,,,,,,,,,1000.5398389999755,1001.5662951000268,998.0488003999926,998.0488003999926,998.0488003999926,998.0488003999926,,old_stationery_34.png,194,2.0,2.4875675999792293,,047,11,2025-02-20_14h06.16.432,Surprise recog test,2023.1.3,59.949594401998525,
194,0,194,0,,,,,,,,,,,,,,,,,,,,,,,,,,,,,,,,,,,,1003.1332059999695,1004.1421884000301,1001.5662951000268,1001.5662951000268,1001.5662951000268,1001.5662951000268,,new_stationery_12.png,195,1.0,1.568888399982825,,047,11,2025-02-20_14h06.16.432,Surprise recog test,2023.1.3,59.949594401998525,
195,0,195,0,,,,,,,,,,,,,,,,,,,,,,,,,,,,,,,,,,,,1007.1189587999834,1008.1397299000528,1004.1421884000301,1004.1421884000301,1004.1421884000301,1004.1421884000301,,new_sceneIn_39.png,196,3.0,2.973856700002216,,047,11,2025-02-20_14h06.16.432,Surprise recog test,2023.1.3,59.949594401998525,
196,0,196,0,,,,,,,,,,,,,,,,,,,,,,,,,,,,,,,,,,,,1011.1590438999701,,1008.1397299000528,1008.1397299000528,1008.1397299000528,1008.1397299000528,,old_sceneIn_43.png,197,2.0,3.0209470000118017,,047,11,2025-02-20_14h06.16.432,Surprise recog test,2023.1.3,59.949594401998525,
197,0,197,0,,,,,,,,,,,,,,,,,,,,,,,,,,,,,,,,,,,,1014.392801500042,1015.4123331999872,1012.1937623999547,1012.1937623999547,1012.1937623999547,1012.1937623999547,,new_sceneOut_25.png,198,4.0,2.2020497999619693,,047,11,2025-02-20_14h06.16.432,Surprise recog test,2023.1.3,59.949594401998525,
198,0,198,0,,,,,,,,,,,,,,,,,,,,,,,,,,,,,,,,,,,,1018.6213038000278,1019.649089399958,1015.4123331999872,1015.4123331999872,1015.4123331999872,1015.4123331999872,,new_sceneIn_13.png,199,4.0,3.2115415999433026,,047,11,2025-02-20_14h06.16.432,Surprise recog test,2023.1.3,59.949594401998525,
199,0,199,0,,,,,,,,,,,,,,,,,,,,,,,,,,,,,,,,,,,,1021.7675913999556,,1019.649089399958,1019.649089399958,1019.649089399958,1019.649089399958,,old_sceneIn_11.png,200,2.0,2.120094500016421,,047,11,2025-02-20_14h06.16.432,Surprise recog test,2023.1.3,59.949594401998525,
200,0,200,0,,,,,,,,,,,,,,,,,,,,,,,,,,,,,,,,,,,,1026.8200159999542,,1022.7990007000044,1022.7990007000044,1022.7990007000044,1022.7990007000044,,old_sceneOut_25.png,201,4.0,4.019054800039157,,047,11,2025-02-20_14h06.16.432,Surprise recog test,2023.1.3,59.949594401998525,
201,0,201,0,,,,,,,,,,,,,,,,,,,,,,,,,,,,,,,,,,,,1030.8297762000002,1031.8440675999736,1027.8552963000257,1027.8552963000257,1027.8552963000257,1027.8552963000257,,new_fruit_7.png,202,5.0,2.9772971000056714,,047,11,2025-02-20_14h06.16.432,Surprise recog test,2023.1.3,59.949594401998525,
202,0,202,0,,,,,,,,,,,,,,,,,,,,,,,,,,,,,,,,,,,,1033.1490179999964,1034.164569400018,1031.8440675999736,1031.8440675999736,1031.8440675999736,1031.8440675999736,,old_stationery_16.png,203,1.0,1.3026765000540763,,047,11,2025-02-20_14h06.16.432,Surprise recog test,2023.1.3,59.949594401998525,
203,0,203,0,,,,,,,,,,,,,,,,,,,,,,,,,,,,,,,,,,,,1037.0606226000236,1038.069045000011,1034.164569400018,1034.164569400018,1034.164569400018,1034.164569400018,,new_sceneOut_39.png,204,4.0,2.8920581999700516,,047,11,2025-02-20_14h06.16.432,Surprise recog test,2023.1.3,59.949594401998525,
204,0,204,0,,,,,,,,,,,,,,,,,,,,,,,,,,,,,,,,,,,,1040.3696292999666,1041.391404599999,1038.069045000011,1038.069045000011,1038.069045000011,1038.069045000011,,new_stationery_42.png,205,5.0,2.2943515999941155,,047,11,2025-02-20_14h06.16.432,Surprise recog test,2023.1.3,59.949594401998525,
205,0,205,0,,,,,,,,,,,,,,,,,,,,,,,,,,,,,,,,,,,,1043.2635100999614,1044.2871348999906,1041.391404599999,1041.391404599999,1041.391404599999,1041.391404599999,,new_sceneOut_5.png,206,4.0,1.8682135000126436,,047,11,2025-02-20_14h06.16.432,Surprise recog test,2023.1.3,59.949594401998525,
206,0,206,0,,,,,,,,,,,,,,,,,,,,,,,,,,,,,,,,,,,,1047.3311931999633,1048.3484325000318,1044.2871348999906,1044.2871348999906,1044.2871348999906,1044.2871348999906,,old_stationery_39.png,207,4.0,3.0470338999293745,,047,11,2025-02-20_14h06.16.432,Surprise recog test,2023.1.3,59.949594401998525,
207,0,207,0,,,,,,,,,,,,,,,,,,,,,,,,,,,,,,,,,,,,1051.5293327999534,1052.561659900006,1048.3484325000318,1048.3484325000318,1048.3484325000318,1048.3484325000318,,new_stationery_47.png,208,5.0,3.176887399982661,,047,11,2025-02-20_14h06.16.432,Surprise recog test,2023.1.3,59.949594401998525,
208,0,208,0,,,,,,,,,,,,,,,,,,,,,,,,,,,,,,,,,,,,1055.468962999992,1056.4973563000094,1052.561659900006,1052.561659900006,1052.561659900006,1052.561659900006,,new_fruit_30.png,209,5.0,2.909001399995759,,047,11,2025-02-20_14h06.16.432,Surprise recog test,2023.1.3,59.949594401998525,
209,0,209,0,,,,,,,,,,,,,,,,,,,,,,,,,,,,,,,,,,,,1059.229749500053,1060.2496524000308,1056.4973563000094,1056.4973563000094,1056.4973563000094,1056.4973563000094,,new_sceneOut_45.png,210,4.0,2.733844800037332,,047,11,2025-02-20_14h06.16.432,Surprise recog test,2023.1.3,59.949594401998525,
210,0,210,0,,,,,,,,,,,,,,,,,,,,,,,,,,,,,,,,,,,,1064.033033399959,1065.0405567999696,1060.2496524000308,1060.2496524000308,1060.2496524000308,1060.2496524000308,,old_fruit_14.png,211,3.0,3.7859334000386298,,047,11,2025-02-20_14h06.16.432,Surprise recog test,2023.1.3,59.949594401998525,
211,0,211,0,,,,,,,,,,,,,,,,,,,,,,,,,,,,,,,,,,,,1069.1550963000627,1070.1776268000249,1065.0405567999696,1065.0405567999696,1065.0405567999696,1065.0405567999696,,new_stationery_15.png,212,4.0,4.107591500040144,,047,11,2025-02-20_14h06.16.432,Surprise recog test,2023.1.3,59.949594401998525,
212,0,212,0,,,,,,,,,,,,,,,,,,,,,,,,,,,,,,,,,,,,1072.5667301999638,1073.5938519999618,1070.1776268000249,1070.1776268000249,1070.1776268000249,1070.1776268000249,,new_fruit_19.png,213,4.0,2.390830200049095,,047,11,2025-02-20_14h06.16.432,Surprise recog test,2023.1.3,59.949594401998525,
213,0,213,0,,,,,,,,,,,,,,,,,,,,,,,,,,,,,,,,,,,,1074.9030807999661,1075.928870899952,1073.5938519999618,1073.5938519999618,1073.5938519999618,1073.5938519999618,,old_stationery_4.png,214,1.0,1.3112072000512853,,047,11,2025-02-20_14h06.16.432,Surprise recog test,2023.1.3,59.949594401998525,
214,0,214,0,,,,,,,,,,,,,,,,,,,,,,,,,,,,,,,,,,,,1077.8255575000076,1078.836941699963,1075.928870899952,1075.928870899952,1075.928870899952,1075.928870899952,,old_sceneOut_10.png,215,1.0,1.8963272999972105,,047,11,2025-02-20_14h06.16.432,Surprise recog test,2023.1.3,59.949594401998525,
215,0,215,0,,,,,,,,,,,,,,,,,,,,,,,,,,,,,,,,,,,,1080.1295979999704,1081.1431174000027,1078.836941699963,1078.836941699963,1078.836941699963,1078.836941699963,,old_stationery_1.png,216,5.0,1.288292699959129,,047,11,2025-02-20_14h06.16.432,Surprise recog test,2023.1.3,59.949594401998525,
216,0,216,0,,,,,,,,,,,,,,,,,,,,,,,,,,,,,,,,,,,,1083.7852213999722,,1081.1431174000027,1081.1431174000027,1081.1431174000027,1081.1431174000027,,old_sceneOut_9.png,217,4.0,2.6428932999260724,,047,11,2025-02-20_14h06.16.432,Surprise recog test,2023.1.3,59.949594401998525,
217,0,217,0,,,,,,,,,,,,,,,,,,,,,,,,,,,,,,,,,,,,1088.5658368000295,1089.588255999959,1084.804216300021,1084.804216300021,1084.804216300021,1084.804216300021,,new_stationery_35.png,218,2.0,3.758299499982968,,047,11,2025-02-20_14h06.16.432,Surprise recog test,2023.1.3,59.949594401998525,
218,0,218,0,,,,,,,,,,,,,,,,,,,,,,,,,,,,,,,,,,,,1092.0723094999557,1093.0947277999949,1089.588255999959,1089.588255999959,1089.588255999959,1089.588255999959,,old_fruit_15.png,219,5.0,2.479164299904369,,047,11,2025-02-20_14h06.16.432,Surprise recog test,2023.1.3,59.949594401998525,
219,0,219,0,,,,,,,,,,,,,,,,,,,,,,,,,,,,,,,,,,,,1094.9733827000018,1095.9936503999634,1093.0947277999949,1093.0947277999949,1093.0947277999949,1093.0947277999949,,new_sceneOut_12.png,220,5.0,1.880757899954915,,047,11,2025-02-20_14h06.16.432,Surprise recog test,2023.1.3,59.949594401998525,
220,0,220,0,,,,,,,,,,,,,,,,,,,,,,,,,,,,,,,,,,,,1098.2092298000352,1099.2193412999623,1095.9936503999634,1095.9936503999634,1095.9936503999634,1095.9936503999634,,old_fruit_28.png,221,4.0,2.217110999976285,,047,11,2025-02-20_14h06.16.432,Surprise recog test,2023.1.3,59.949594401998525,
221,0,221,0,,,,,,,,,,,,,,,,,,,,,,,,,,,,,,,,,,,,1102.7917657999787,1103.8064175000181,1099.2193412999623,1099.2193412999623,1099.2193412999623,1099.2193412999623,,old_stationery_5.png,222,3.0,3.5683997999876738,,047,11,2025-02-20_14h06.16.432,Surprise recog test,2023.1.3,59.949594401998525,
222,0,222,0,,,,,,,,,,,,,,,,,,,,,,,,,,,,,,,,,,,,1106.4872292999644,,1103.8064175000181,1103.8064175000181,1103.8064175000181,1103.8064175000181,,old_sceneOut_28.png,223,3.0,2.6752250000135973,,047,11,2025-02-20_14h06.16.432,Surprise recog test,2023.1.3,59.949594401998525,
223,0,223,0,,,,,,,,,,,,,,,,,,,,,,,,,,,,,,,,,,,,1111.6963610000676,1112.725948199979,1107.5216361000203,1107.5216361000203,1107.5216361000203,1107.5216361000203,,old_sceneOut_45.png,224,4.0,4.176748199970461,,047,11,2025-02-20_14h06.16.432,Surprise recog test,2023.1.3,59.949594401998525,
224,0,224,0,,,,,,,,,,,,,,,,,,,,,,,,,,,,,,,,,,,,1114.4869889999973,1115.4994411000516,1112.725948199979,1112.725948199979,1112.725948199979,1112.725948199979,,old_sceneOut_1.png,225,3.0,1.7608911999268457,,047,11,2025-02-20_14h06.16.432,Surprise recog test,2023.1.3,59.949594401998525,
225,0,225,0,,,,,,,,,,,,,,,,,,,,,,,,,,,,,,,,,,,,1117.673474799958,1118.7001229999587,1115.4994411000516,1115.4994411000516,1115.4994411000516,1115.4994411000516,,new_fruit_31.png,226,5.0,2.169601000030525,,047,11,2025-02-20_14h06.16.432,Surprise recog test,2023.1.3,59.949594401998525,
226,0,226,0,,,,,,,,,,,,,,,,,,,,,,,,,,,,,,,,,,,,1121.7942133999895,1122.805870500044,1118.7001229999587,1118.7001229999587,1118.7001229999587,1118.7001229999587,,new_sceneIn_10.png,227,4.0,3.0975389999803156,,047,11,2025-02-20_14h06.16.432,Surprise recog test,2023.1.3,59.949594401998525,
227,0,227,0,,,,,,,,,,,,,,,,,,,,,,,,,,,,,,,,,,,,1125.1225257000187,1126.1467106000055,1122.805870500044,1122.805870500044,1122.805870500044,1122.805870500044,,new_sceneIn_36.png,228,5.0,2.31159309996292,,047,11,2025-02-20_14h06.16.432,Surprise recog test,2023.1.3,59.949594401998525,
228,0,228,0,,,,,,,,,,,,,,,,,,,,,,,,,,,,,,,,,,,,1127.6919746999629,1128.7253511999734,1126.1467106000055,1126.1467106000055,1126.1467106000055,1126.1467106000055,,new_sceneIn_8.png,229,5.0,1.5402203000849113,,047,11,2025-02-20_14h06.16.432,Surprise recog test,2023.1.3,59.949594401998525,
229,0,229,0,,,,,,,,,,,,,,,,,,,,,,,,,,,,,,,,,,,,1131.4882785000373,1132.5081668000203,1128.7253511999734,1128.7253511999734,1128.7253511999734,1128.7253511999734,,old_sceneIn_9.png,230,2.0,2.7592678000219166,,047,11,2025-02-20_14h06.16.432,Surprise recog test,2023.1.3,59.949594401998525,
230,0,230,0,,,,,,,,,,,,,,,,,,,,,,,,,,,,,,,,,,,,1134.114837500034,1135.1410947999684,1132.5081668000203,1132.5081668000203,1132.5081668000203,1132.5081668000203,,old_stationery_2.png,231,1.0,1.6085596000775695,,047,11,2025-02-20_14h06.16.432,Surprise recog test,2023.1.3,59.949594401998525,
231,0,231,0,,,,,,,,,,,,,,,,,,,,,,,,,,,,,,,,,,,,1136.5691289000679,1137.5956893999828,1135.1410947999684,1135.1410947999684,1135.1410947999684,1135.1410947999684,,old_stationery_45.png,232,1.0,1.4309616000391543,,047,11,2025-02-20_14h06.16.432,Surprise recog test,2023.1.3,59.949594401998525,
232,0,232,0,,,,,,,,,,,,,,,,,,,,,,,,,,,,,,,,,,,,1139.267421900062,1140.2948099999921,1137.5956893999828,1137.5956893999828,1137.5956893999828,1137.5956893999828,,old_sceneOut_4.png,233,5.0,1.6707766000181437,,047,11,2025-02-20_14h06.16.432,Surprise recog test,2023.1.3,59.949594401998525,
233,0,233,0,,,,,,,,,,,,,,,,,,,,,,,,,,,,,,,,,,,,1144.8846986000426,1145.90338839998,1140.2948099999921,1140.2948099999921,1140.2948099999921,1140.2948099999921,,new_stationery_39.png,234,3.0,4.589235900086351,,047,11,2025-02-20_14h06.16.432,Surprise recog test,2023.1.3,59.949594401998525,
234,0,234,0,,,,,,,,,,,,,,,,,,,,,,,,,,,,,,,,,,,,1148.168788800016,1149.1896343999542,1145.90338839998,1145.90338839998,1145.90338839998,1145.90338839998,,old_fruit_36.png,235,2.0,2.261551000061445,,047,11,2025-02-20_14h06.16.432,Surprise recog test,2023.1.3,59.949594401998525,
235,0,235,0,,,,,,,,,,,,,,,,,,,,,,,,,,,,,,,,,,,,1151.7218356999801,1152.7305977999931,1149.1896343999542,1149.1896343999542,1149.1896343999542,1149.1896343999542,,old_fruit_16.png,236,2.0,2.53220560005866,,047,11,2025-02-20_14h06.16.432,Surprise recog test,2023.1.3,59.949594401998525,
236,0,236,0,,,,,,,,,,,,,,,,,,,,,,,,,,,,,,,,,,,,1154.43187640002,1155.4480862000491,1152.7305977999931,1152.7305977999931,1152.7305977999931,1152.7305977999931,,old_sceneIn_26.png,237,4.0,1.6962374999420717,,047,11,2025-02-20_14h06.16.432,Surprise recog test,2023.1.3,59.949594401998525,
237,0,237,0,,,,,,,,,,,,,,,,,,,,,,,,,,,,,,,,,,,,1157.997338599991,,1155.4480862000491,1155.4480862000491,1155.4480862000491,1155.4480862000491,,old_sceneOut_18.png,238,3.0,2.5454460999462754,,047,11,2025-02-20_14h06.16.432,Surprise recog test,2023.1.3,59.949594401998525,
238,0,238,0,,,,,,,,,,,,,,,,,,,,,,,,,,,,,,,,,,,,1161.5725271999836,1162.598145200056,1159.033060500049,1159.033060500049,1159.033060500049,1159.033060500049,,new_sceneIn_21.png,239,2.0,2.5410559000447392,,047,11,2025-02-20_14h06.16.432,Surprise recog test,2023.1.3,59.949594401998525,
239,0,239,0,,,,,,,,,,,,,,,,,,,,,,,,,,,,,,,,,,,,1164.740380299976,1165.7730030000675,1162.598145200056,1162.598145200056,1162.598145200056,1162.598145200056,,new_fruit_48.png,240,3.0,2.143819299992174,,047,11,2025-02-20_14h06.16.432,Surprise recog test,2023.1.3,59.949594401998525,
240,0,240,0,,,,,,,,,,,,,,,,,,,,,,,,,,,,,,,,,,,,1169.3676754999906,1170.392453999957,1165.7730030000675,1165.7730030000675,1165.7730030000675,1165.7730030000675,,new_sceneOut_38.png,241,3.0,3.59654119994957,,047,11,2025-02-20_14h06.16.432,Surprise recog test,2023.1.3,59.949594401998525,
241,0,241,0,,,,,,,,,,,,,,,,,,,,,,,,,,,,,,,,,,,,1172.5266525000334,,1170.392453999957,1170.392453999957,1170.392453999957,1170.392453999957,,old_sceneOut_14.png,242,4.0,2.135600300040096,,047,11,2025-02-20_14h06.16.432,Surprise recog test,2023.1.3,59.949594401998525,
242,0,242,0,,,,,,,,,,,,,,,,,,,,,,,,,,,,,,,,,,,,1175.1103793999646,,1173.5596038000658,1173.5596038000658,1173.5596038000658,1173.5596038000658,,new_stationery_29.png,243,5.0,1.5517086000181735,,047,11,2025-02-20_14h06.16.432,Surprise recog test,2023.1.3,59.949594401998525,
243,0,243,0,,,,,,,,,,,,,,,,,,,,,,,,,,,,,,,,,,,,1179.2902295000385,1180.3113753000507,1176.1456983999815,1176.1456983999815,1176.1456983999815,1176.1456983999815,,new_sceneOut_28.png,244,3.0,3.1475369000108913,,047,11,2025-02-20_14h06.16.432,Surprise recog test,2023.1.3,59.949594401998525,
244,0,244,0,,,,,,,,,,,,,,,,,,,,,,,,,,,,,,,,,,,,1183.2201963999541,1184.2510941000655,1180.3113753000507,1180.3113753000507,1180.3113753000507,1180.3113753000507,,new_sceneOut_1.png,245,3.0,2.9090012999949977,,047,11,2025-02-20_14h06.16.432,Surprise recog test,2023.1.3,59.949594401998525,
245,0,245,0,,,,,,,,,,,,,,,,,,,,,,,,,,,,,,,,,,,,1186.3410334000364,1187.3709793000016,1184.2510941000655,1184.2510941000655,1184.2510941000655,1184.2510941000655,,old_sceneIn_35.png,246,5.0,2.0898231000173837,,047,11,2025-02-20_14h06.16.432,Surprise recog test,2023.1.3,59.949594401998525,
246,0,246,0,,,,,,,,,,,,,,,,,,,,,,,,,,,,,,,,,,,,1189.9442028000485,1190.9627859999891,1187.3709793000016,1187.3709793000016,1187.3709793000016,1187.3709793000016,,new_sceneOut_46.png,247,3.0,2.5754857999272645,,047,11,2025-02-20_14h06.16.432,Surprise recog test,2023.1.3,59.949594401998525,
247,0,247,0,,,,,,,,,,,,,,,,,,,,,,,,,,,,,,,,,,,,1193.2567197000608,1194.2777060000226,1190.9627859999891,1190.9627859999891,1190.9627859999891,1190.9627859999891,,new_fruit_47.png,248,5.0,2.2856257000239566,,047,11,2025-02-20_14h06.16.432,Surprise recog test,2023.1.3,59.949594401998525,
248,0,248,0,,,,,,,,,,,,,,,,,,,,,,,,,,,,,,,,,,,,1197.6503595999675,1198.6770649000537,1194.2777060000226,1194.2777060000226,1194.2777060000226,1194.2777060000226,,old_sceneOut_33.png,249,4.0,3.37512229999993,,047,11,2025-02-20_14h06.16.432,Surprise recog test,2023.1.3,59.949594401998525,
249,0,249,0,,,,,,,,,,,,,,,,,,,,,,,,,,,,,,,,,,,,1200.8406666000374,1201.8688254000153,1198.6770649000537,1198.6770649000537,1198.6770649000537,1198.6770649000537,,old_fruit_22.png,250,2.0,2.161319400067441,,047,11,2025-02-20_14h06.16.432,Surprise recog test,2023.1.3,59.949594401998525,
250,0,250,0,,,,,,,,,,,,,,,,,,,,,,,,,,,,,,,,,,,,1204.7814477999927,1205.8032216000138,1201.8688254000153,1201.8688254000153,1201.8688254000153,1201.8688254000153,,old_sceneOut_26.png,251,4.0,2.910508200060576,,047,11,2025-02-20_14h06.16.432,Surprise recog test,2023.1.3,59.949594401998525,
251,0,251,0,,,,,,,,,,,,,,,,,,,,,,,,,,,,,,,,,,,,1209.28801020002,1210.294571400038,1205.8032216000138,1205.8032216000138,1205.8032216000138,1205.8032216000138,,old_sceneIn_29.png,252,2.0,3.484137100051157,,047,11,2025-02-20_14h06.16.432,Surprise recog test,2023.1.3,59.949594401998525,
252,0,252,0,,,,,,,,,,,,,,,,,,,,,,,,,,,,,,,,,,,,1212.2062506000511,1213.2227081999881,1210.294571400038,1210.294571400038,1210.294571400038,1210.294571400038,,new_sceneOut_6.png,253,3.0,1.9078170999418944,,047,11,2025-02-20_14h06.16.432,Surprise recog test,2023.1.3,59.949594401998525,
253,0,253,0,,,,,,,,,,,,,,,,,,,,,,,,,,,,,,,,,,,,1217.3434322000248,1218.366497799987,1213.2227081999881,1213.2227081999881,1213.2227081999881,1213.2227081999881,,old_fruit_6.png,254,3.0,4.123174100066535,,047,11,2025-02-20_14h06.16.432,Surprise recog test,2023.1.3,59.949594401998525,
254,0,254,0,,,,,,,,,,,,,,,,,,,,,,,,,,,,,,,,,,,,1221.1114370999858,1222.121281299973,1218.366497799987,1218.366497799987,1218.366497799987,1218.366497799987,,new_fruit_29.png,255,4.0,2.748823699890636,,047,11,2025-02-20_14h06.16.432,Surprise recog test,2023.1.3,59.949594401998525,
255,0,255,0,,,,,,,,,,,,,,,,,,,,,,,,,,,,,,,,,,,,1226.0227233000332,1227.0567553000292,1222.121281299973,1222.121281299973,1222.121281299973,1222.121281299973,,new_sceneOut_17.png,256,3.0,3.8943330999463797,,047,11,2025-02-20_14h06.16.432,Surprise recog test,2023.1.3,59.949594401998525,
256,0,256,0,,,,,,,,,,,,,,,,,,,,,,,,,,,,,,,,,,,,1228.8068885999965,1229.840246399981,1227.0567553000292,1227.0567553000292,1227.0567553000292,1227.0567553000292,,new_stationery_25.png,257,5.0,1.7523250000085682,,047,11,2025-02-20_14h06.16.432,Surprise recog test,2023.1.3,59.949594401998525,
257,0,257,0,,,,,,,,,,,,,,,,,,,,,,,,,,,,,,,,,,,,1234.1735579000087,1235.1826009000652,1229.840246399981,1229.840246399981,1229.840246399981,1229.840246399981,,new_fruit_9.png,258,3.0,4.328315799939446,,047,11,2025-02-20_14h06.16.432,Surprise recog test,2023.1.3,59.949594401998525,
258,0,258,0,,,,,,,,,,,,,,,,,,,,,,,,,,,,,,,,,,,,1237.7942907999968,1238.8152984000044,1235.1826009000652,1235.1826009000652,1235.1826009000652,1235.1826009000652,,old_sceneIn_2.png,259,4.0,2.6074602000880986,,047,11,2025-02-20_14h06.16.432,Surprise recog test,2023.1.3,59.949594401998525,
259,0,259,0,,,,,,,,,,,,,,,,,,,,,,,,,,,,,,,,,,,,1241.6078041000292,1242.6213124999776,1238.8152984000044,1238.8152984000044,1238.8152984000044,1238.8152984000044,,old_stationery_44.png,260,1.0,2.79426070000045,,047,11,2025-02-20_14h06.16.432,Surprise recog test,2023.1.3,59.949594401998525,
260,0,260,0,,,,,,,,,,,,,,,,,,,,,,,,,,,,,,,,,,,,1244.2201756000286,1245.258984599961,1242.6213124999776,1242.6213124999776,1242.6213124999776,1242.6213124999776,,new_sceneOut_11.png,261,5.0,1.5913824000163004,,047,11,2025-02-20_14h06.16.432,Surprise recog test,2023.1.3,59.949594401998525,
261,0,261,0,,,,,,,,,,,,,,,,,,,,,,,,,,,,,,,,,,,,1247.4230330999708,1248.4560229000635,1245.258984599961,1245.258984599961,1245.258984599961,1245.258984599961,,old_sceneOut_17.png,262,4.0,2.1673343000002205,,047,11,2025-02-20_14h06.16.432,Surprise recog test,2023.1.3,59.949594401998525,
262,0,262,0,,,,,,,,,,,,,,,,,,,,,,,,,,,,,,,,,,,,1249.9180317999562,1250.925918700057,1248.4560229000635,1248.4560229000635,1248.4560229000635,1248.4560229000635,,old_fruit_12.png,263,4.0,1.4639998000347987,,047,11,2025-02-20_14h06.16.432,Surprise recog test,2023.1.3,59.949594401998525,
263,0,263,0,,,,,,,,,,,,,,,,,,,,,,,,,,,,,,,,,,,,1251.927487000008,1252.958619400044,1250.925918700057,1250.925918700057,1250.925918700057,1250.925918700057,,new_fruit_43.png,264,4.0,0.9976782000157982,,047,11,2025-02-20_14h06.16.432,Surprise recog test,2023.1.3,59.949594401998525,
264,0,264,0,,,,,,,,,,,,,,,,,,,,,,,,,,,,,,,,,,,,1255.1156554999761,1256.1331067000283,1252.958619400044,1252.958619400044,1252.958619400044,1252.958619400044,,new_sceneOut_23.png,265,5.0,2.1568877999670804,,047,11,2025-02-20_14h06.16.432,Surprise recog test,2023.1.3,59.949594401998525,
265,0,265,0,,,,,,,,,,,,,,,,,,,,,,,,,,,,,,,,,,,,1258.4291448000586,1259.4354758999543,1256.1331067000283,1256.1331067000283,1256.1331067000283,1256.1331067000283,,new_fruit_16.png,266,5.0,2.29052599996794,,047,11,2025-02-20_14h06.16.432,Surprise recog test,2023.1.3,59.949594401998525,
266,0,266,0,,,,,,,,,,,,,,,,,,,,,,,,,,,,,,,,,,,,1260.8052676999941,1261.8386042000493,1259.4354758999543,1259.4354758999543,1259.4354758999543,1259.4354758999543,,new_stationery_34.png,267,5.0,1.365681599942036,,047,11,2025-02-20_14h06.16.432,Surprise recog test,2023.1.3,59.949594401998525,
267,0,267,0,,,,,,,,,,,,,,,,,,,,,,,,,,,,,,,,,,,,1263.2504104999825,,1261.8386042000493,1261.8386042000493,1261.8386042000493,1261.8386042000493,,new_stationery_5.png,268,5.0,1.41546379995998,,047,11,2025-02-20_14h06.16.432,Surprise recog test,2023.1.3,59.949594401998525,
268,0,268,0,,,,,,,,,,,,,,,,,,,,,,,,,,,,,,,,,,,,1267.6968462000368,1268.7235877000494,1264.2721826999914,1264.2721826999914,1264.2721826999914,1264.2721826999914,,new_stationery_28.png,269,4.0,3.4182946999790147,,047,11,2025-02-20_14h06.16.432,Surprise recog test,2023.1.3,59.949594401998525,
269,0,269,0,,,,,,,,,,,,,,,,,,,,,,,,,,,,,,,,,,,,1269.990660200012,,1268.7235877000494,1268.7235877000494,1268.7235877000494,1268.7235877000494,,old_sceneIn_21.png,270,5.0,1.2688156999647617,,047,11,2025-02-20_14h06.16.432,Surprise recog test,2023.1.3,59.949594401998525,
270,0,270,0,,,,,,,,,,,,,,,,,,,,,,,,,,,,,,,,,,,,1272.5474473000504,1273.5716077999678,1271.0105965000112,1271.0105965000112,1271.0105965000112,1271.0105965000112,,old_fruit_32.png,271,1.0,1.5321432000491768,,047,11,2025-02-20_14h06.16.432,Surprise recog test,2023.1.3,59.949594401998525,
271,0,271,0,,,,,,,,,,,,,,,,,,,,,,,,,,,,,,,,,,,,1277.6685305000283,1278.685845399974,1273.5716077999678,1273.5716077999678,1273.5716077999678,1273.5716077999678,,new_sceneIn_22.png,272,5.0,4.095804900047369,,047,11,2025-02-20_14h06.16.432,Surprise recog test,2023.1.3,59.949594401998525,
272,0,272,0,,,,,,,,,,,,,,,,,,,,,,,,,,,,,,,,,,,,1279.8241298999637,1280.8484138000058,1278.685845399974,1278.685845399974,1278.685845399974,1278.685845399974,,new_sceneIn_43.png,273,5.0,1.1331240999279544,,047,11,2025-02-20_14h06.16.432,Surprise recog test,2023.1.3,59.949594401998525,
273,0,273,0,,,,,,,,,,,,,,,,,,,,,,,,,,,,,,,,,,,,1282.3333194999723,,1280.8484138000058,1280.8484138000058,1280.8484138000058,1280.8484138000058,,new_sceneIn_14.png,274,5.0,1.486652999999933,,047,11,2025-02-20_14h06.16.432,Surprise recog test,2023.1.3,59.949594401998525,
274,0,274,0,,,,,,,,,,,,,,,,,,,,,,,,,,,,,,,,,,,,1285.399533299962,1286.4177042000229,1283.3549802000634,1283.3549802000634,1283.3549802000634,1283.3549802000634,,old_fruit_37.png,275,5.0,2.0400861999951303,,047,11,2025-02-20_14h06.16.432,Surprise recog test,2023.1.3,59.949594401998525,
275,0,275,0,,,,,,,,,,,,,,,,,,,,,,,,,,,,,,,,,,,,1289.0109281999758,1290.0275024999864,1286.4177042000229,1286.4177042000229,1286.4177042000229,1286.4177042000229,,new_sceneIn_19.png,276,2.0,2.592771099996753,,047,11,2025-02-20_14h06.16.432,Surprise recog test,2023.1.3,59.949594401998525,
276,0,276,0,,,,,,,,,,,,,,,,,,,,,,,,,,,,,,,,,,,,1292.1281268000603,1293.1458917000564,1290.0275024999864,1290.0275024999864,1290.0275024999864,1290.0275024999864,,old_sceneIn_14.png,277,4.0,2.096448300057091,,047,11,2025-02-20_14h06.16.432,Surprise recog test,2023.1.3,59.949594401998525,
277,0,277,0,,,,,,,,,,,,,,,,,,,,,,,,,,,,,,,,,,,,1295.8203979000682,1296.8412203000626,1293.1458917000564,1293.1458917000564,1293.1458917000564,1293.1458917000564,,new_fruit_14.png,278,3.0,2.6699665000196546,,047,11,2025-02-20_14h06.16.432,Surprise recog test,2023.1.3,59.949594401998525,
278,0,278,0,,,,,,,,,,,,,,,,,,,,,,,,,,,,,,,,,,,,1299.5943011000054,1300.614711400005,1296.8412203000626,1296.8412203000626,1296.8412203000626,1296.8412203000626,,new_fruit_3.png,279,3.0,2.7544317999854684,,047,11,2025-02-20_14h06.16.432,Surprise recog test,2023.1.3,59.949594401998525,
279,0,279,0,,,,,,,,,,,,,,,,,,,,,,,,,,,,,,,,,,,,1303.8099256999558,1304.8234441999812,1300.614711400005,1300.614711400005,1300.614711400005,1300.614711400005,,old_sceneIn_45.png,280,4.0,3.197719900053926,,047,11,2025-02-20_14h06.16.432,Surprise recog test,2023.1.3,59.949594401998525,
280,0,280,0,,,,,,,,,,,,,,,,,,,,,,,,,,,,,,,,,,,,1307.8695785000455,1308.887278500013,1304.8234441999812,1304.8234441999812,1304.8234441999812,1304.8234441999812,,new_sceneOut_27.png,281,4.0,3.037962600006722,,047,11,2025-02-20_14h06.16.432,Surprise recog test,2023.1.3,59.949594401998525,
281,0,281,0,,,,,,,,,,,,,,,,,,,,,,,,,,,,,,,,,,,,1310.5125017999671,1311.5283339000307,1308.887278500013,1308.887278500013,1308.887278500013,1308.887278500013,,old_fruit_9.png,282,4.0,1.624332599923946,,047,11,2025-02-20_14h06.16.432,Surprise recog test,2023.1.3,59.949594401998525,
282,0,282,0,,,,,,,,,,,,,,,,,,,,,,,,,,,,,,,,,,,,1313.316873200005,1314.341742599965,1311.5283339000307,1311.5283339000307,1311.5283339000307,1311.5283339000307,,old_stationery_36.png,283,1.0,1.7865925000514835,,047,11,2025-02-20_14h06.16.432,Surprise recog test,2023.1.3,59.949594401998525,
283,0,283,0,,,,,,,,,,,,,,,,,,,,,,,,,,,,,,,,,,,,1316.1582265000325,1317.1832787999883,1314.341742599965,1314.341742599965,1314.341742599965,1314.341742599965,,new_sceneOut_3.png,284,3.0,1.8115520999999717,,047,11,2025-02-20_14h06.16.432,Surprise recog test,2023.1.3,59.949594401998525,
284,0,284,0,,,,,,,,,,,,,,,,,,,,,,,,,,,,,,,,,,,,1318.9213791000657,1319.9472282000352,1317.1832787999883,1317.1832787999883,1317.1832787999883,1317.1832787999883,,old_sceneOut_32.png,285,4.0,1.7418066000100225,,047,11,2025-02-20_14h06.16.432,Surprise recog test,2023.1.3,59.949594401998525,
285,0,285,0,,,,,,,,,,,,,,,,,,,,,,,,,,,,,,,,,,,,1322.7843407000182,,1319.9472282000352,1319.9472282000352,1319.9472282000352,1319.9472282000352,,old_sceneIn_41.png,286,4.0,2.837735899956897,,047,11,2025-02-20_14h06.16.432,Surprise recog test,2023.1.3,59.949594401998525,
286,0,286,0,,,,,,,,,,,,,,,,,,,,,,,,,,,,,,,,,,,,1325.8445720999734,1326.8730577999959,1323.8053943000268,1323.8053943000268,1323.8053943000268,1323.8053943000268,,old_sceneIn_34.png,287,4.0,2.035379800014198,,047,11,2025-02-20_14h06.16.432,Surprise recog test,2023.1.3,59.949594401998525,
287,0,287,0,,,,,,,,,,,,,,,,,,,,,,,,,,,,,,,,,,,,1330.0349757999647,1331.0593498999951,1326.8730577999959,1326.8730577999959,1326.8730577999959,1326.8730577999959,,old_fruit_42.png,288,4.0,3.1628779000602663,,047,11,2025-02-20_14h06.16.432,Surprise recog test,2023.1.3,59.949594401998525,
288,0,288,0,,,,,,,,,,,,,,,,,,,,,,,,,,,,,,,,,,,,1332.695497800014,1333.7140448000282,1331.0593498999951,1331.0593498999951,1331.0593498999951,1331.0593498999951,,new_stationery_18.png,289,1.0,1.6383039999054745,,047,11,2025-02-20_14h06.16.432,Surprise recog test,2023.1.3,59.949594401998525,
289,0,289,0,,,,,,,,,,,,,,,,,,,,,,,,,,,,,,,,,,,,1335.9067115000216,1336.932676800061,1333.7140448000282,1333.7140448000282,1333.7140448000282,1333.7140448000282,,old_sceneIn_49.png,290,4.0,2.186028200085275,,047,11,2025-02-20_14h06.16.432,Surprise recog test,2023.1.3,59.949594401998525,
290,0,290,0,,,,,,,,,,,,,,,,,,,,,,,,,,,,,,,,,,,,1338.4283383999718,1339.445416499977,1336.932676800061,1336.932676800061,1336.932676800061,1336.932676800061,,old_sceneOut_22.png,291,4.0,1.4987638000166044,,047,11,2025-02-20_14h06.16.432,Surprise recog test,2023.1.3,59.949594401998525,
291,0,291,0,,,,,,,,,,,,,,,,,,,,,,,,,,,,,,,,,,,,1340.2950978999725,1341.30884339998,1339.445416499977,1339.445416499977,1339.445416499977,1339.445416499977,,new_fruit_46.png,292,4.0,0.8461819000076503,,047,11,2025-02-20_14h06.16.432,Surprise recog test,2023.1.3,59.949594401998525,
292,0,292,0,,,,,,,,,,,,,,,,,,,,,,,,,,,,,,,,,,,,1342.6766261999728,1343.7009156000568,1341.30884339998,1341.30884339998,1341.30884339998,1341.30884339998,,old_fruit_29.png,293,4.0,1.3691842999542132,,047,11,2025-02-20_14h06.16.432,Surprise recog test,2023.1.3,59.949594401998525,
293,0,293,0,,,,,,,,,,,,,,,,,,,,,,,,,,,,,,,,,,,,1344.723887500004,1345.7528289000038,1343.7009156000568,1343.7009156000568,1343.7009156000568,1343.7009156000568,,old_sceneIn_7.png,294,4.0,1.0221864999039099,,047,11,2025-02-20_14h06.16.432,Surprise recog test,2023.1.3,59.949594401998525,
294,0,294,0,,,,,,,,,,,,,,,,,,,,,,,,,,,,,,,,,,,,1347.3393078000518,1348.3661610999843,1345.7528289000038,1345.7528289000038,1345.7528289000038,1345.7528289000038,,old_sceneOut_16.png,295,4.0,1.5858217000495642,,047,11,2025-02-20_14h06.16.432,Surprise recog test,2023.1.3,59.949594401998525,
295,0,295,0,,,,,,,,,,,,,,,,,,,,,,,,,,,,,,,,,,,,1351.69795479998,1352.7134030000307,1348.3661610999843,1348.3661610999843,1348.3661610999843,1348.3661610999843,,old_sceneOut_20.png,296,3.0,3.3336396999657154,,047,11,2025-02-20_14h06.16.432,Surprise recog test,2023.1.3,59.949594401998525,
296,0,296,0,,,,,,,,,,,,,,,,,,,,,,,,,,,,,,,,,,,,1354.7994342000457,1355.8295387000544,1352.7134030000307,1352.7134030000307,1352.7134030000307,1352.7134030000307,,new_sceneIn_28.png,297,2.0,2.079812900046818,,047,11,2025-02-20_14h06.16.432,Surprise recog test,2023.1.3,59.949594401998525,
297,0,297,0,,,,,,,,,,,,,,,,,,,,,,,,,,,,,,,,,,,,1357.831651699962,1358.8561884000665,1355.8295387000544,1355.8295387000544,1355.8295387000544,1355.8295387000544,,old_fruit_40.png,298,2.0,2.0053693000227213,,047,11,2025-02-20_14h06.16.432,Surprise recog test,2023.1.3,59.949594401998525,
298,0,298,0,,,,,,,,,,,,,,,,,,,,,,,,,,,,,,,,,,,,1361.0191342000617,1362.050140599953,1358.8561884000665,1358.8561884000665,1358.8561884000665,1358.8561884000665,,old_stationery_20.png,299,4.0,2.1619008999550715,,047,11,2025-02-20_14h06.16.432,Surprise recog test,2023.1.3,59.949594401998525,
299,0,299,0,,,,,,,,,,,,,,,,,,,,,,,,,,,,,,,,,,,,1364.1289918000111,1365.152678900049,1362.050140599953,1362.050140599953,1362.050140599953,1362.050140599953,,old_stationery_43.png,300,3.0,2.0707269000122324,,047,11,2025-02-20_14h06.16.432,Surprise recog test,2023.1.3,59.949594401998525,
300,0,300,0,,,,,,,,,,,,,,,,,,,,,,,,,,,,,,,,,,,,1368.3324046999915,1369.3573605000274,1365.152678900049,1365.152678900049,1365.152678900049,1365.152678900049,,new_sceneIn_47.png,301,3.0,3.181502899969928,,047,11,2025-02-20_14h06.16.432,Surprise recog test,2023.1.3,59.949594401998525,
301,0,301,0,,,,,,,,,,,,,,,,,,,,,,,,,,,,,,,,,,,,1370.994719899958,1372.0265717000002,1369.3573605000274,1369.3573605000274,1369.3573605000274,1369.3573605000274,,old_fruit_7.png,302,4.0,1.6400883999885991,,047,11,2025-02-20_14h06.16.432,Surprise recog test,2023.1.3,59.949594401998525,
302,0,302,0,,,,,,,,,,,,,,,,,,,,,,,,,,,,,,,,,,,,1374.2652674999554,1375.2963312000502,1372.0265717000002,1372.0265717000002,1372.0265717000002,1372.0265717000002,,old_sceneIn_50.png,303,3.0,2.242374899913557,,047,11,2025-02-20_14h06.16.432,Surprise recog test,2023.1.3,59.949594401998525,
303,0,303,0,,,,,,,,,,,,,,,,,,,,,,,,,,,,,,,,,,,,1379.0286197999958,1380.04619490006,1375.2963312000502,1375.2963312000502,1375.2963312000502,1375.2963312000502,,new_fruit_39.png,304,2.0,3.732333799940534,,047,11,2025-02-20_14h06.16.432,Surprise recog test,2023.1.3,59.949594401998525,
304,0,304,0,,,,,,,,,,,,,,,,,,,,,,,,,,,,,,,,,,,,1382.9033013000153,1383.9221679000184,1380.04619490006,1380.04619490006,1380.04619490006,1380.04619490006,,old_fruit_25.png,305,3.0,2.85700459999498,,047,11,2025-02-20_14h06.16.432,Surprise recog test,2023.1.3,59.949594401998525,
305,0,305,0,,,,,,,,,,,,,,,,,,,,,,,,,,,,,,,,,,,,1386.8299804000417,1387.851663599955,1383.9221679000184,1383.9221679000184,1383.9221679000184,1383.9221679000184,,old_sceneOut_8.png,306,1.0,2.9030374999856576,,047,11,2025-02-20_14h06.16.432,Surprise recog test,2023.1.3,59.949594401998525,
306,0,306,0,,,,,,,,,,,,,,,,,,,,,,,,,,,,,,,,,,,,1390.3079475000268,1391.337051999988,1387.851663599955,1387.851663599955,1387.851663599955,1387.851663599955,,old_fruit_3.png,307,4.0,2.4583157000597566,,047,11,2025-02-20_14h06.16.432,Surprise recog test,2023.1.3,59.949594401998525,
307,0,307,0,,,,,,,,,,,,,,,,,,,,,,,,,,,,,,,,,,,,1392.7631524000317,1393.7862865000498,1391.337051999988,1391.337051999988,1391.337051999988,1391.337051999988,,old_sceneOut_11.png,308,3.0,1.4270744000095874,,047,11,2025-02-20_14h06.16.432,Surprise recog test,2023.1.3,59.949594401998525,
308,0,308,0,,,,,,,,,,,,,,,,,,,,,,,,,,,,,,,,,,,,1396.251023299992,1397.2780991999898,1393.7862865000498,1393.7862865000498,1393.7862865000498,1393.7862865000498,,new_sceneOut_48.png,309,4.0,2.4647199000464752,,047,11,2025-02-20_14h06.16.432,Surprise recog test,2023.1.3,59.949594401998525,
309,0,309,0,,,,,,,,,,,,,,,,,,,,,,,,,,,,,,,,,,,,1400.0450449000346,1401.0528712000232,1397.2780991999898,1397.2780991999898,1397.2780991999898,1397.2780991999898,,new_sceneOut_29.png,310,4.0,2.767907000030391,,047,11,2025-02-20_14h06.16.432,Surprise recog test,2023.1.3,59.949594401998525,
310,0,310,0,,,,,,,,,,,,,,,,,,,,,,,,,,,,,,,,,,,,1403.5807637999533,1404.5883894000435,1401.0528712000232,1401.0528712000232,1401.0528712000232,1401.0528712000232,,old_stationery_21.png,311,2.0,2.523619699990377,,047,11,2025-02-20_14h06.16.432,Surprise recog test,2023.1.3,59.949594401998525,
311,0,311,0,,,,,,,,,,,,,,,,,,,,,,,,,,,,,,,,,,,,1408.942617499968,1409.9734949000413,1404.5883894000435,1404.5883894000435,1404.5883894000435,1404.5883894000435,,old_stationery_30.png,312,3.0,4.350310700014234,,047,11,2025-02-20_14h06.16.432,Surprise recog test,2023.1.3,59.949594401998525,
312,0,312,0,,,,,,,,,,,,,,,,,,,,,,,,,,,,,,,,,,,,1414.103461300023,1415.1231918999692,1409.9734949000413,1409.9734949000413,1409.9734949000413,1409.9734949000413,,old_fruit_23.png,313,3.0,4.131349799921736,,047,11,2025-02-20_14h06.16.432,Surprise recog test,2023.1.3,59.949594401998525,
313,0,313,0,,,,,,,,,,,,,,,,,,,,,,,,,,,,,,,,,,,,1417.9602139999624,1418.9678862000583,1415.1231918999692,1415.1231918999692,1415.1231918999692,1415.1231918999692,,old_stationery_8.png,314,2.0,2.839222199982032,,047,11,2025-02-20_14h06.16.432,Surprise recog test,2023.1.3,59.949594401998525,
314,0,314,0,,,,,,,,,,,,,,,,,,,,,,,,,,,,,,,,,,,,1423.1307361000217,1424.1509643000318,1418.9678862000583,1418.9678862000583,1418.9678862000583,1418.9678862000583,,new_sceneIn_40.png,315,3.0,4.157771100057289,,047,11,2025-02-20_14h06.16.432,Surprise recog test,2023.1.3,59.949594401998525,
315,0,315,0,,,,,,,,,,,,,,,,,,,,,,,,,,,,,,,,,,,,1426.070506399963,,1424.1509643000318,1424.1509643000318,1424.1509643000318,1424.1509643000318,,new_sceneOut_43.png,316,2.0,1.921847500023432,,047,11,2025-02-20_14h06.16.432,Surprise recog test,2023.1.3,59.949594401998525,
316,0,316,0,,,,,,,,,,,,,,,,,,,,,,,,,,,,,,,,,,,,1428.5445989000145,1429.5749677000567,1427.0912017000373,1427.0912017000373,1427.0912017000373,1427.0912017000373,,old_sceneIn_15.png,317,1.0,1.448678799904883,,047,11,2025-02-20_14h06.16.432,Surprise recog test,2023.1.3,59.949594401998525,
317,0,317,0,,,,,,,,,,,,,,,,,,,,,,,,,,,,,,,,,,,,1431.6597569000442,1432.683134400053,1429.5749677000567,1429.5749677000567,1429.5749677000567,1429.5749677000567,,new_stationery_10.png,318,4.0,2.0859959999797866,,047,11,2025-02-20_14h06.16.432,Surprise recog test,2023.1.3,59.949594401998525,
318,0,318,0,,,,,,,,,,,,,,,,,,,,,,,,,,,,,,,,,,,,1435.5323279000586,1436.5619873000542,1432.683134400053,1432.683134400053,1432.683134400053,1432.683134400053,,old_stationery_6.png,319,4.0,2.848857400007546,,047,11,2025-02-20_14h06.16.432,Surprise recog test,2023.1.3,59.949594401998525,
319,0,319,0,,,,,,,,,,,,,,,,,,,,,,,,,,,,,,,,,,,,1438.830680700019,,1436.5619873000542,1436.5619873000542,1436.5619873000542,1436.5619873000542,,old_fruit_35.png,320,3.0,2.2706466999370605,,047,11,2025-02-20_14h06.16.432,Surprise recog test,2023.1.3,59.949594401998525,
320,0,320,0,,,,,,,,,,,,,,,,,,,,,,,,,,,,,,,,,,,,1442.5894862000132,1443.6175019000657,1439.8625146000413,1439.8625146000413,1439.8625146000413,1439.8625146000413,,new_stationery_49.png,321,5.0,2.7262782999314368,,047,11,2025-02-20_14h06.16.432,Surprise recog test,2023.1.3,59.949594401998525,
321,0,321,0,,,,,,,,,,,,,,,,,,,,,,,,,,,,,,,,,,,,1445.8116349000484,1446.824479800067,1443.6175019000657,1443.6175019000657,1443.6175019000657,1443.6175019000657,,old_fruit_21.png,322,4.0,2.1965199999976903,,047,11,2025-02-20_14h06.16.432,Surprise recog test,2023.1.3,59.949594401998525,
322,0,322,0,,,,,,,,,,,,,,,,,,,,,,,,,,,,,,,,,,,,1448.9028188000666,1449.9214453999884,1446.824479800067,1446.824479800067,1446.824479800067,1446.824479800067,,old_sceneIn_31.png,323,2.0,2.0736835999414325,,047,11,2025-02-20_14h06.16.432,Surprise recog test,2023.1.3,59.949594401998525,
323,0,323,0,,,,,,,,,,,,,,,,,,,,,,,,,,,,,,,,,,,,1452.24886599998,1453.273835800006,1449.9214453999884,1449.9214453999884,1449.9214453999884,1449.9214453999884,,old_sceneIn_36.png,324,4.0,2.328025099937804,,047,11,2025-02-20_14h06.16.432,Surprise recog test,2023.1.3,59.949594401998525,
324,0,324,0,,,,,,,,,,,,,,,,,,,,,,,,,,,,,,,,,,,,1455.646964399959,1456.664973899955,1453.273835800006,1453.273835800006,1453.273835800006,1453.273835800006,,old_fruit_46.png,325,3.0,2.3738157000625506,,047,11,2025-02-20_14h06.16.432,Surprise recog test,2023.1.3,59.949594401998525,
325,0,325,0,,,,,,,,,,,,,,,,,,,,,,,,,,,,,,,,,,,,1458.4760518999537,1459.4851991999894,1456.664973899955,1456.664973899955,1456.664973899955,1456.664973899955,,old_stationery_17.png,326,1.0,1.8069797999924049,,047,11,2025-02-20_14h06.16.432,Surprise recog test,2023.1.3,59.949594401998525,
326,0,326,0,,,,,,,,,,,,,,,,,,,,,,,,,,,,,,,,,,,,1461.2953679000493,1462.3144919000333,1459.4851991999894,1459.4851991999894,1459.4851991999894,1459.4851991999894,,old_fruit_26.png,327,3.0,1.8004181999713182,,047,11,2025-02-20_14h06.16.432,Surprise recog test,2023.1.3,59.949594401998525,
327,0,327,0,,,,,,,,,,,,,,,,,,,,,,,,,,,,,,,,,,,,1463.6642863999587,1464.6722472000401,1462.3144919000333,1462.3144919000333,1462.3144919000333,1462.3144919000333,,old_stationery_13.png,328,1.0,1.3495317999040708,,047,11,2025-02-20_14h06.16.432,Surprise recog test,2023.1.3,59.949594401998525,
328,0,328,0,,,,,,,,,,,,,,,,,,,,,,,,,,,,,,,,,,,,1465.870861100033,1466.9112220000243,1464.6722472000401,1464.6722472000401,1464.6722472000401,1464.6722472000401,,old_sceneOut_36.png,329,3.0,1.1947372000431642,,047,11,2025-02-20_14h06.16.432,Surprise recog test,2023.1.3,59.949594401998525,
329,0,329,0,,,,,,,,,,,,,,,,,,,,,,,,,,,,,,,,,,,,1470.115041699959,1471.141669500037,1466.9112220000243,1466.9112220000243,1466.9112220000243,1466.9112220000243,,new_sceneIn_38.png,330,2.0,3.2077207999536768,,047,11,2025-02-20_14h06.16.432,Surprise recog test,2023.1.3,59.949594401998525,
330,0,330,0,,,,,,,,,,,,,,,,,,,,,,,,,,,,,,,,,,,,1473.2956307999557,1474.3313136000652,1471.141669500037,1471.141669500037,1471.141669500037,1471.141669500037,,new_sceneOut_31.png,331,4.0,2.156782799982466,,047,11,2025-02-20_14h06.16.432,Surprise recog test,2023.1.3,59.949594401998525,
331,0,331,0,,,,,,,,,,,,,,,,,,,,,,,,,,,,,,,,,,,,1478.0535785000538,1479.0786206000485,1474.3313136000652,1474.3313136000652,1474.3313136000652,1474.3313136000652,,old_sceneOut_44.png,332,4.0,3.7265785000054166,,047,11,2025-02-20_14h06.16.432,Surprise recog test,2023.1.3,59.949594401998525,
332,0,332,0,,,,,,,,,,,,,,,,,,,,,,,,,,,,,,,,,,,,1480.506685600034,1481.5193601000356,1479.0786206000485,1479.0786206000485,1479.0786206000485,1479.0786206000485,,old_sceneIn_4.png,333,1.0,1.4292102999752387,,047,11,2025-02-20_14h06.16.432,Surprise recog test,2023.1.3,59.949594401998525,
333,0,333,0,,,,,,,,,,,,,,,,,,,,,,,,,,,,,,,,,,,,1485.8646432999521,1486.8742864000378,1481.5193601000356,1481.5193601000356,1481.5193601000356,1481.5193601000356,,old_fruit_34.png,334,3.0,4.341237199958414,,047,11,2025-02-20_14h06.16.432,Surprise recog test,2023.1.3,59.949594401998525,
334,0,334,0,,,,,,,,,,,,,,,,,,,,,,,,,,,,,,,,,,,,1488.1842712999787,1489.2067122999579,1486.8742864000378,1486.8742864000378,1486.8742864000378,1486.8742864000378,,old_stationery_40.png,335,1.0,1.303576200036332,,047,11,2025-02-20_14h06.16.432,Surprise recog test,2023.1.3,59.949594401998525,
335,0,335,0,,,,,,,,,,,,,,,,,,,,,,,,,,,,,,,,,,,,1491.4971374999732,1492.524461699999,1489.2067122999579,1489.2067122999579,1489.2067122999579,1489.2067122999579,,new_sceneOut_35.png,336,3.0,2.293091700063087,,047,11,2025-02-20_14h06.16.432,Surprise recog test,2023.1.3,59.949594401998525,
336,0,336,0,,,,,,,,,,,,,,,,,,,,,,,,,,,,,,,,,,,,1496.4253775000107,1497.4470807999605,1492.524461699999,1492.524461699999,1492.524461699999,1492.524461699999,,old_sceneOut_13.png,337,2.0,3.9005912999855354,,047,11,2025-02-20_14h06.16.432,Surprise recog test,2023.1.3,59.949594401998525,
337,0,337,0,,,,,,,,,,,,,,,,,,,,,,,,,,,,,,,,,,,,1500.574095100048,1501.6003050999716,1497.4470807999605,1497.4470807999605,1497.4470807999605,1497.4470807999605,,new_stationery_20.png,338,5.0,3.1289984999457374,,047,11,2025-02-20_14h06.16.432,Surprise recog test,2023.1.3,59.949594401998525,
338,0,338,0,,,,,,,,,,,,,,,,,,,,,,,,,,,,,,,,,,,,1505.4661044999957,1506.4859440999571,1501.6003050999716,1501.6003050999716,1501.6003050999716,1501.6003050999716,,new_fruit_8.png,339,5.0,3.869276999961585,,047,11,2025-02-20_14h06.16.432,Surprise recog test,2023.1.3,59.949594401998525,
339,0,339,0,,,,,,,,,,,,,,,,,,,,,,,,,,,,,,,,,,,,1508.6679604999954,1509.6918938000454,1506.4859440999571,1506.4859440999571,1506.4859440999571,1506.4859440999571,,old_sceneOut_48.png,340,4.0,2.177221499965526,,047,11,2025-02-20_14h06.16.432,Surprise recog test,2023.1.3,59.949594401998525,
340,0,340,0,,,,,,,,,,,,,,,,,,,,,,,,,,,,,,,,,,,,1511.6318150999723,1512.6603893999709,1509.6918938000454,1509.6918938000454,1509.6918938000454,1509.6918938000454,,new_sceneOut_15.png,341,4.0,1.9443831999087706,,047,11,2025-02-20_14h06.16.432,Surprise recog test,2023.1.3,59.949594401998525,
341,0,341,0,,,,,,,,,,,,,,,,,,,,,,,,,,,,,,,,,,,,1515.0393404000206,1516.0552395000122,1512.6603893999709,1512.6603893999709,1512.6603893999709,1512.6603893999709,,old_fruit_8.png,342,1.0,2.3811733999755234,,047,11,2025-02-20_14h06.16.432,Surprise recog test,2023.1.3,59.949594401998525,
342,0,342,0,,,,,,,,,,,,,,,,,,,,,,,,,,,,,,,,,,,,1518.603014799999,1519.629857199965,1516.0552395000122,1516.0552395000122,1516.0552395000122,1516.0552395000122,,new_sceneIn_35.png,343,4.0,2.54805620003026,,047,11,2025-02-20_14h06.16.432,Surprise recog test,2023.1.3,59.949594401998525,
343,0,343,0,,,,,,,,,,,,,,,,,,,,,,,,,,,,,,,,,,,,1522.8588932000566,1523.8843804000644,1519.629857199965,1519.629857199965,1519.629857199965,1519.629857199965,,old_stationery_37.png,344,4.0,3.2311698999255896,,047,11,2025-02-20_14h06.16.432,Surprise recog test,2023.1.3,59.949594401998525,
344,0,344,0,,,,,,,,,,,,,,,,,,,,,,,,,,,,,,,,,,,,1526.0158982999856,1527.03521370003,1523.8843804000644,1523.8843804000644,1523.8843804000644,1523.8843804000644,,new_sceneIn_26.png,345,4.0,2.1307883000699803,,047,11,2025-02-20_14h06.16.432,Surprise recog test,2023.1.3,59.949594401998525,
345,0,345,0,,,,,,,,,,,,,,,,,,,,,,,,,,,,,,,,,,,,1528.3585402000463,1529.3855622999836,1527.03521370003,1527.03521370003,1527.03521370003,1527.03521370003,,old_stationery_47.png,346,1.0,1.3244104000041261,,047,11,2025-02-20_14h06.16.432,Surprise recog test,2023.1.3,59.949594401998525,
346,0,346,0,,,,,,,,,,,,,,,,,,,,,,,,,,,,,,,,,,,,1533.1962315000128,1534.22583999997,1529.3855622999836,1529.3855622999836,1529.3855622999836,1529.3855622999836,,old_sceneOut_30.png,347,3.0,3.812516300007701,,047,11,2025-02-20_14h06.16.432,Surprise recog test,2023.1.3,59.949594401998525,
347,0,347,0,,,,,,,,,,,,,,,,,,,,,,,,,,,,,,,,,,,,1537.3305610000389,1538.366372999968,1534.22583999997,1534.22583999997,1534.22583999997,1534.22583999997,,new_sceneIn_23.png,348,4.0,3.1059741999488324,,047,11,2025-02-20_14h06.16.432,Surprise recog test,2023.1.3,59.949594401998525,
