trial_loop.thisRepN,trial_loop.thisTrialN,trial_loop.thisN,trial_loop.thisIndex,VAS_slider.started,VAS_text.started,VAS_notstressed_text.started,VAS_stressed_text.started,continue_input.started,continue_text.started,label0.started,label10.started,label20.started,label30.started,label40.started,label50.started,label60.started,label70.started,label80.started,label90.started,label100.started,VAS_slider.response,VAS_slider.rt,VAS_slider.history,Answer_VAS,continue_input.keys,instruction_text.started,continue_text_2.started,continue_input_2.started,continue_input_2.keys,continue_input_2.rt,continue_input_2.duration,example_text.started,example_slider_2.started,example_image.started,example_slider_2.response,example_slider_2.rt,fixcross.started,fixcross.stopped,front_square.started,stim_images.started,trial_inst_images.started,slider_images.started,thisImg,trial_count,slider_images.response,slider_images.rt,outro.started,participant,condition,date,expName,psychopyVersion,frameRate,
,,,,214.69297709997045,214.69297709997045,214.69297709997045,214.69297709997045,214.69297709997045,214.69297709997045,214.69297709997045,214.69297709997045,214.69297709997045,214.69297709997045,214.69297709997045,214.69297709997045,214.69297709997045,214.69297709997045,214.69297709997045,214.69297709997045,214.69297709997045,0,12.094725899980403,"[(0, 12.094725899980403)]",0,None,,,,,,,,,,,,,,,,,,,,,,,048,01,2025-01-31_12h29.20.992,Surprise recog test,2023.1.3,60.05537104025697,
,,,,,,,,,,,,,,,,,,,,,,,,,,226.87209439999424,226.87209439999424,226.87209439999424,space,18.19782479997957,None,,,,,,,,,,,,,,,,,048,01,2025-01-31_12h29.20.992,Surprise recog test,2023.1.3,60.05537104025697,
0,0,0,0,,,,,,,,,,,,,,,,,,,,,,,,,,,,,245.21936879999703,245.21936879999703,245.21936879999703,1.0,1.9605824999744073,250.3189952999819,251.3404685999849,248.13803450000705,248.13803450000705,248.13803450000705,248.13803450000705,old_fruit_23.png,1,2.0,2.185002500016708,,048,01,2025-01-31_12h29.20.992,Surprise recog test,2023.1.3,60.05537104025697,
1,0,1,0,,,,,,,,,,,,,,,,,,,,,,,,,,,,,,,,,,254.0991888999706,255.1256587000098,251.3404685999849,251.3404685999849,251.3404685999849,251.3404685999849,new_fruit_14.png,2,4.0,2.7615632000379264,,048,01,2025-01-31_12h29.20.992,Surprise recog test,2023.1.3,60.05537104025697,
2,0,2,0,,,,,,,,,,,,,,,,,,,,,,,,,,,,,,,,,,257.4173114000005,258.44790610001655,255.1256587000098,255.1256587000098,255.1256587000098,255.1256587000098,old_sceneIn_27.png,3,4.0,2.2939846999943256,,048,01,2025-01-31_12h29.20.992,Surprise recog test,2023.1.3,60.05537104025697,
3,0,3,0,,,,,,,,,,,,,,,,,,,,,,,,,,,,,,,,,,260.2389399000094,261.264760399994,258.44790610001655,258.44790610001655,258.44790610001655,258.44790610001655,old_sceneIn_5.png,4,2.0,1.7942437999881804,,048,01,2025-01-31_12h29.20.992,Surprise recog test,2023.1.3,60.05537104025697,
4,0,4,0,,,,,,,,,,,,,,,,,,,,,,,,,,,,,,,,,,263.85158869996667,264.8722056999686,261.264760399994,261.264760399994,261.264760399994,261.264760399994,new_stationery_28.png,5,2.0,2.589154299988877,,048,01,2025-01-31_12h29.20.992,Surprise recog test,2023.1.3,60.05537104025697,
5,0,5,0,,,,,,,,,,,,,,,,,,,,,,,,,,,,,,,,,,266.4239744999795,267.45298150001327,264.8722056999686,264.8722056999686,264.8722056999686,264.8722056999686,old_sceneOut_20.png,6,1.0,1.5426990000414662,,048,01,2025-01-31_12h29.20.992,Surprise recog test,2023.1.3,60.05537104025697,
6,0,6,0,,,,,,,,,,,,,,,,,,,,,,,,,,,,,,,,,,269.05115909996675,270.05676780000795,267.45298150001327,267.45298150001327,267.45298150001327,267.45298150001327,new_sceneOut_29.png,7,1.0,1.5936505000572652,,048,01,2025-01-31_12h29.20.992,Surprise recog test,2023.1.3,60.05537104025697,
7,0,7,0,,,,,,,,,,,,,,,,,,,,,,,,,,,,,,,,,,272.3706165999756,273.37554599996656,270.05676780000795,270.05676780000795,270.05676780000795,270.05676780000795,new_fruit_49.png,8,2.0,2.304880600015167,,048,01,2025-01-31_12h29.20.992,Surprise recog test,2023.1.3,60.05537104025697,
8,0,8,0,,,,,,,,,,,,,,,,,,,,,,,,,,,,,,,,,,276.6944729000097,,273.37554599996656,273.37554599996656,273.37554599996656,273.37554599996656,old_sceneOut_44.png,9,1.0,3.313554299995303,,048,01,2025-01-31_12h29.20.992,Surprise recog test,2023.1.3,60.05537104025697,
9,0,9,0,,,,,,,,,,,,,,,,,,,,,,,,,,,,,,,,,,279.80829999997513,280.82744109997293,277.71737009997014,277.71737009997014,277.71737009997014,277.71737009997014,old_fruit_48.png,10,4.0,2.0897704000235535,,048,01,2025-01-31_12h29.20.992,Surprise recog test,2023.1.3,60.05537104025697,
10,0,10,0,,,,,,,,,,,,,,,,,,,,,,,,,,,,,,,,,,283.01589629997034,,280.82744109997293,280.82744109997293,280.82744109997293,280.82744109997293,old_stationery_11.png,11,4.0,2.189742899965495,,048,01,2025-01-31_12h29.20.992,Surprise recog test,2023.1.3,60.05537104025697,
11,0,11,0,,,,,,,,,,,,,,,,,,,,,,,,,,,,,,,,,,285.9320682999678,286.94816169998376,284.043273999996,284.043273999996,284.043273999996,284.043273999996,old_sceneIn_30.png,12,4.0,1.8829316000337712,,048,01,2025-01-31_12h29.20.992,Surprise recog test,2023.1.3,60.05537104025697,
12,0,12,0,,,,,,,,,,,,,,,,,,,,,,,,,,,,,,,,,,288.68421430001035,289.7035843000049,286.94816169998376,286.94816169998376,286.94816169998376,286.94816169998376,old_sceneOut_42.png,13,5.0,1.732581400021445,,048,01,2025-01-31_12h29.20.992,Surprise recog test,2023.1.3,60.05537104025697,
13,0,13,0,,,,,,,,,,,,,,,,,,,,,,,,,,,,,,,,,,291.5328778999974,292.55582339997636,289.7035843000049,289.7035843000049,289.7035843000049,289.7035843000049,new_stationery_25.png,14,4.0,1.8334787000203505,,048,01,2025-01-31_12h29.20.992,Surprise recog test,2023.1.3,60.05537104025697,
14,0,14,0,,,,,,,,,,,,,,,,,,,,,,,,,,,,,,,,,,294.10765249998076,,292.55582339997636,292.55582339997636,292.55582339997636,292.55582339997636,new_fruit_24.png,15,4.0,1.5536590000265278,,048,01,2025-01-31_12h29.20.992,Surprise recog test,2023.1.3,60.05537104025697,
15,0,15,0,,,,,,,,,,,,,,,,,,,,,,,,,,,,,,,,,,296.74099959997693,297.7609973999788,295.12969649996376,295.12969649996376,295.12969649996376,295.12969649996376,new_stationery_27.png,16,4.0,1.6058342999895103,,048,01,2025-01-31_12h29.20.992,Surprise recog test,2023.1.3,60.05537104025697,
16,0,16,0,,,,,,,,,,,,,,,,,,,,,,,,,,,,,,,,,,299.29308450000826,300.30156069999794,297.7609973999788,297.7609973999788,297.7609973999788,297.7609973999788,new_sceneIn_12.png,17,5.0,1.5316253999480978,,048,01,2025-01-31_12h29.20.992,Surprise recog test,2023.1.3,60.05537104025697,
17,0,17,0,,,,,,,,,,,,,,,,,,,,,,,,,,,,,,,,,,301.8982294999878,,300.30156069999794,300.30156069999794,300.30156069999794,300.30156069999794,old_sceneOut_1.png,18,4.0,1.5907396999537013,,048,01,2025-01-31_12h29.20.992,Surprise recog test,2023.1.3,60.05537104025697,
18,0,18,0,,,,,,,,,,,,,,,,,,,,,,,,,,,,,,,,,,304.5316305999877,305.5522490000003,302.9309917999781,302.9309917999781,302.9309917999781,302.9309917999781,new_stationery_15.png,19,1.0,1.6028296999866143,,048,01,2025-01-31_12h29.20.992,Surprise recog test,2023.1.3,60.05537104025697,
19,0,19,0,,,,,,,,,,,,,,,,,,,,,,,,,,,,,,,,,,307.24975299998187,308.2552537000156,305.5522490000003,305.5522490000003,305.5522490000003,305.5522490000003,old_sceneOut_30.png,20,3.0,1.6927951000398025,,048,01,2025-01-31_12h29.20.992,Surprise recog test,2023.1.3,60.05537104025697,
20,0,20,0,,,,,,,,,,,,,,,,,,,,,,,,,,,,,,,,,,310.3286631999654,311.3486447999603,308.2552537000156,308.2552537000156,308.2552537000156,308.2552537000156,old_sceneIn_42.png,21,4.0,2.069925299962051,,048,01,2025-01-31_12h29.20.992,Surprise recog test,2023.1.3,60.05537104025697,
21,0,21,0,,,,,,,,,,,,,,,,,,,,,,,,,,,,,,,,,,313.21219559997553,314.2383001999697,311.3486447999603,311.3486447999603,311.3486447999603,311.3486447999603,old_sceneIn_12.png,22,3.0,1.8610470999847166,,048,01,2025-01-31_12h29.20.992,Surprise recog test,2023.1.3,60.05537104025697,
22,0,22,0,,,,,,,,,,,,,,,,,,,,,,,,,,,,,,,,,,315.7207832999993,316.74264219996985,314.2383001999697,314.2383001999697,314.2383001999697,314.2383001999697,new_fruit_22.png,23,4.0,1.4820219000102952,,048,01,2025-01-31_12h29.20.992,Surprise recog test,2023.1.3,60.05537104025697,
23,0,23,0,,,,,,,,,,,,,,,,,,,,,,,,,,,,,,,,,,318.59205109998584,319.6051444999757,316.74264219996985,316.74264219996985,316.74264219996985,316.74264219996985,new_stationery_44.png,24,4.0,1.850690699997358,,048,01,2025-01-31_12h29.20.992,Surprise recog test,2023.1.3,60.05537104025697,
24,0,24,0,,,,,,,,,,,,,,,,,,,,,,,,,,,,,,,,,,322.15251489996444,323.1832461999729,319.6051444999757,319.6051444999757,319.6051444999757,319.6051444999757,new_sceneOut_27.png,25,4.0,2.54820409999229,,048,01,2025-01-31_12h29.20.992,Surprise recog test,2023.1.3,60.05537104025697,
25,0,25,0,,,,,,,,,,,,,,,,,,,,,,,,,,,,,,,,,,324.5974398999824,325.6251632999629,323.1832461999729,323.1832461999729,323.1832461999729,323.1832461999729,new_fruit_31.png,26,2.0,1.4111973000108264,,048,01,2025-01-31_12h29.20.992,Surprise recog test,2023.1.3,60.05537104025697,
26,0,26,0,,,,,,,,,,,,,,,,,,,,,,,,,,,,,,,,,,327.02606189996004,328.0403648999636,325.6251632999629,325.6251632999629,325.6251632999629,325.6251632999629,new_sceneOut_1.png,27,3.0,1.4031036999658681,,048,01,2025-01-31_12h29.20.992,Surprise recog test,2023.1.3,60.05537104025697,
27,0,27,0,,,,,,,,,,,,,,,,,,,,,,,,,,,,,,,,,,329.8589364999789,330.89221889997134,328.0403648999636,328.0403648999636,328.0403648999636,328.0403648999636,new_sceneOut_20.png,28,4.0,1.8143376000225544,,048,01,2025-01-31_12h29.20.992,Surprise recog test,2023.1.3,60.05537104025697,
28,0,28,0,,,,,,,,,,,,,,,,,,,,,,,,,,,,,,,,,,333.03315999999177,334.04811440000776,330.89221889997134,330.89221889997134,330.89221889997134,330.89221889997134,new_stationery_42.png,29,4.0,2.1459212999907322,,048,01,2025-01-31_12h29.20.992,Surprise recog test,2023.1.3,60.05537104025697,
29,0,29,0,,,,,,,,,,,,,,,,,,,,,,,,,,,,,,,,,,335.7514289999963,336.77673430001596,334.04811440000776,334.04811440000776,334.04811440000776,334.04811440000776,new_sceneOut_15.png,30,3.0,1.6999780000187457,,048,01,2025-01-31_12h29.20.992,Surprise recog test,2023.1.3,60.05537104025697,
30,0,30,0,,,,,,,,,,,,,,,,,,,,,,,,,,,,,,,,,,338.05594059999567,339.07979599997634,336.77673430001596,336.77673430001596,336.77673430001596,336.77673430001596,old_sceneIn_38.png,31,5.0,1.2812964000040665,,048,01,2025-01-31_12h29.20.992,Surprise recog test,2023.1.3,60.05537104025697,
31,0,31,0,,,,,,,,,,,,,,,,,,,,,,,,,,,,,,,,,,340.51004389999434,341.5187555999728,339.07979599997634,339.07979599997634,339.07979599997634,339.07979599997634,new_stationery_8.png,32,5.0,1.432475199981127,,048,01,2025-01-31_12h29.20.992,Surprise recog test,2023.1.3,60.05537104025697,
32,0,32,0,,,,,,,,,,,,,,,,,,,,,,,,,,,,,,,,,,342.96921770001063,344.0002252999693,341.5187555999728,341.5187555999728,341.5187555999728,341.5187555999728,new_stationery_3.png,33,4.0,1.445600800041575,,048,01,2025-01-31_12h29.20.992,Surprise recog test,2023.1.3,60.05537104025697,
33,0,33,0,,,,,,,,,,,,,,,,,,,,,,,,,,,,,,,,,,345.76178170001367,346.78934720001416,344.0002252999693,344.0002252999693,344.0002252999693,344.0002252999693,old_sceneOut_34.png,34,3.0,1.7606654999544844,,048,01,2025-01-31_12h29.20.992,Surprise recog test,2023.1.3,60.05537104025697,
34,0,34,0,,,,,,,,,,,,,,,,,,,,,,,,,,,,,,,,,,348.3678912000032,349.3757699999842,346.78934720001416,346.78934720001416,346.78934720001416,346.78934720001416,old_stationery_8.png,35,1.0,1.5836630999692716,,048,01,2025-01-31_12h29.20.992,Surprise recog test,2023.1.3,60.05537104025697,
35,0,35,0,,,,,,,,,,,,,,,,,,,,,,,,,,,,,,,,,,351.61994569998933,352.63981660001446,349.3757699999842,349.3757699999842,349.3757699999842,349.3757699999842,new_fruit_11.png,36,3.0,2.2329183000256307,,048,01,2025-01-31_12h29.20.992,Surprise recog test,2023.1.3,60.05537104025697,
36,0,36,0,,,,,,,,,,,,,,,,,,,,,,,,,,,,,,,,,,354.03245970001444,355.06329909997294,352.63981660001446,352.63981660001446,352.63981660001446,352.63981660001446,old_sceneOut_19.png,37,4.0,1.3935956999775954,,048,01,2025-01-31_12h29.20.992,Surprise recog test,2023.1.3,60.05537104025697,
37,0,37,0,,,,,,,,,,,,,,,,,,,,,,,,,,,,,,,,,,356.17917869996745,357.19842789997347,355.06329909997294,355.06329909997294,355.06329909997294,355.06329909997294,new_fruit_48.png,38,4.0,1.1183307000319473,,048,01,2025-01-31_12h29.20.992,Surprise recog test,2023.1.3,60.05537104025697,
38,0,38,0,,,,,,,,,,,,,,,,,,,,,,,,,,,,,,,,,,358.8330735999625,359.8512788999942,357.19842789997347,357.19842789997347,357.19842789997347,357.19842789997347,new_sceneOut_39.png,39,4.0,1.6311105000204407,,048,01,2025-01-31_12h29.20.992,Surprise recog test,2023.1.3,60.05537104025697,
39,0,39,0,,,,,,,,,,,,,,,,,,,,,,,,,,,,,,,,,,361.3613534999895,362.37514059996465,359.8512788999942,359.8512788999942,359.8512788999942,359.8512788999942,new_stationery_6.png,40,3.0,1.5028858000296168,,048,01,2025-01-31_12h29.20.992,Surprise recog test,2023.1.3,60.05537104025697,
40,0,40,0,,,,,,,,,,,,,,,,,,,,,,,,,,,,,,,,,,363.81876749999356,364.8490957999602,362.37514059996465,362.37514059996465,362.37514059996465,362.37514059996465,new_fruit_27.png,41,3.0,1.4441348999971524,,048,01,2025-01-31_12h29.20.992,Surprise recog test,2023.1.3,60.05537104025697,
41,0,41,0,,,,,,,,,,,,,,,,,,,,,,,,,,,,,,,,,,366.07496950001223,367.10197610000614,364.8490957999602,364.8490957999602,364.8490957999602,364.8490957999602,new_fruit_6.png,42,4.0,1.227684199984651,,048,01,2025-01-31_12h29.20.992,Surprise recog test,2023.1.3,60.05537104025697,
42,0,42,0,,,,,,,,,,,,,,,,,,,,,,,,,,,,,,,,,,368.52648619998945,369.5410603999626,367.10197610000614,367.10197610000614,367.10197610000614,367.10197610000614,old_fruit_25.png,43,4.0,1.4266768000088632,,048,01,2025-01-31_12h29.20.992,Surprise recog test,2023.1.3,60.05537104025697,
43,0,43,0,,,,,,,,,,,,,,,,,,,,,,,,,,,,,,,,,,371.3359977999935,372.34459379996406,369.5410603999626,369.5410603999626,369.5410603999626,369.5410603999626,new_stationery_47.png,44,4.0,1.788715399976354,,048,01,2025-01-31_12h29.20.992,Surprise recog test,2023.1.3,60.05537104025697,
44,0,44,0,,,,,,,,,,,,,,,,,,,,,,,,,,,,,,,,,,374.30654789996333,375.3139227000065,372.34459379996406,372.34459379996406,372.34459379996406,372.34459379996406,new_fruit_36.png,45,4.0,1.9577552999835461,,048,01,2025-01-31_12h29.20.992,Surprise recog test,2023.1.3,60.05537104025697,
45,0,45,0,,,,,,,,,,,,,,,,,,,,,,,,,,,,,,,,,,376.87206510000397,377.90001459995983,375.3139227000065,375.3139227000065,375.3139227000065,375.3139227000065,old_sceneIn_43.png,46,4.0,1.5528982999967411,,048,01,2025-01-31_12h29.20.992,Surprise recog test,2023.1.3,60.05537104025697,
46,0,46,0,,,,,,,,,,,,,,,,,,,,,,,,,,,,,,,,,,379.7268178999657,380.73593450000044,377.90001459995983,377.90001459995983,377.90001459995983,377.90001459995983,old_sceneOut_13.png,47,4.0,1.831140799971763,,048,01,2025-01-31_12h29.20.992,Surprise recog test,2023.1.3,60.05537104025697,
47,0,47,0,,,,,,,,,,,,,,,,,,,,,,,,,,,,,,,,,,382.0222597999964,383.04837189998943,380.73593450000044,380.73593450000044,380.73593450000044,380.73593450000044,old_sceneOut_21.png,48,4.0,1.2821789999725297,,048,01,2025-01-31_12h29.20.992,Surprise recog test,2023.1.3,60.05537104025697,
48,0,48,0,,,,,,,,,,,,,,,,,,,,,,,,,,,,,,,,,,384.80394640000304,385.83774589997483,383.04837189998943,383.04837189998943,383.04837189998943,383.04837189998943,new_fruit_8.png,49,3.0,1.7572798000182956,,048,01,2025-01-31_12h29.20.992,Surprise recog test,2023.1.3,60.05537104025697,
49,0,49,0,,,,,,,,,,,,,,,,,,,,,,,,,,,,,,,,,,387.16821649996564,,385.83774589997483,385.83774589997483,385.83774589997483,385.83774589997483,old_stationery_12.png,50,1.0,1.3326056000078097,,048,01,2025-01-31_12h29.20.992,Surprise recog test,2023.1.3,60.05537104025697,
50,0,50,0,,,,,,,,,,,,,,,,,,,,,,,,,,,,,,,,,,390.84724909998477,391.86042400001315,388.1958263000124,388.1958263000124,388.1958263000124,388.1958263000124,new_stationery_21.png,51,4.0,2.6519579000305384,,048,01,2025-01-31_12h29.20.992,Surprise recog test,2023.1.3,60.05537104025697,
51,0,51,0,,,,,,,,,,,,,,,,,,,,,,,,,,,,,,,,,,393.1022858999786,394.12463139998727,391.86042400001315,391.86042400001315,391.86042400001315,391.86042400001315,old_fruit_7.png,52,3.0,1.236439700005576,,048,01,2025-01-31_12h29.20.992,Surprise recog test,2023.1.3,60.05537104025697,
52,0,52,0,,,,,,,,,,,,,,,,,,,,,,,,,,,,,,,,,,395.28949210001156,396.3102543000132,394.12463139998727,394.12463139998727,394.12463139998727,394.12463139998727,old_stationery_36.png,53,1.0,1.1597009999677539,,048,01,2025-01-31_12h29.20.992,Surprise recog test,2023.1.3,60.05537104025697,
53,0,53,0,,,,,,,,,,,,,,,,,,,,,,,,,,,,,,,,,,397.268540799967,398.2850090999855,396.3102543000132,396.3102543000132,396.3102543000132,396.3102543000132,old_stationery_29.png,54,1.0,0.9586679000058211,,048,01,2025-01-31_12h29.20.992,Surprise recog test,2023.1.3,60.05537104025697,
54,0,54,0,,,,,,,,,,,,,,,,,,,,,,,,,,,,,,,,,,399.41076980001526,400.4290379000013,398.2850090999855,398.2850090999855,398.2850090999855,398.2850090999855,old_stationery_46.png,55,1.0,1.1230924000265077,,048,01,2025-01-31_12h29.20.992,Surprise recog test,2023.1.3,60.05537104025697,
55,0,55,0,,,,,,,,,,,,,,,,,,,,,,,,,,,,,,,,,,402.36393099999987,403.38257459999295,400.4290379000013,400.4290379000013,400.4290379000013,400.4290379000013,old_sceneIn_28.png,56,2.0,1.9343109999899752,,048,01,2025-01-31_12h29.20.992,Surprise recog test,2023.1.3,60.05537104025697,
56,0,56,0,,,,,,,,,,,,,,,,,,,,,,,,,,,,,,,,,,404.90809149999404,405.92997930001,403.38257459999295,403.38257459999295,403.38257459999295,403.38257459999295,new_fruit_47.png,57,4.0,1.526395599998068,,048,01,2025-01-31_12h29.20.992,Surprise recog test,2023.1.3,60.05537104025697,
57,0,57,0,,,,,,,,,,,,,,,,,,,,,,,,,,,,,,,,,,407.1929774999735,408.224119099963,405.92997930001,405.92997930001,405.92997930001,405.92997930001,old_sceneOut_2.png,58,3.0,1.2647082000039518,,048,01,2025-01-31_12h29.20.992,Surprise recog test,2023.1.3,60.05537104025697,
58,0,58,0,,,,,,,,,,,,,,,,,,,,,,,,,,,,,,,,,,410.27574239997193,411.3065306000062,408.224119099963,408.224119099963,408.224119099963,408.224119099963,new_sceneIn_19.png,59,4.0,2.0570391999790445,,048,01,2025-01-31_12h29.20.992,Surprise recog test,2023.1.3,60.05537104025697,
59,0,59,0,,,,,,,,,,,,,,,,,,,,,,,,,,,,,,,,,,413.03435229999013,414.0600543000037,411.3065306000062,411.3065306000062,411.3065306000062,411.3065306000062,new_sceneIn_43.png,60,4.0,1.7277019000030123,,048,01,2025-01-31_12h29.20.992,Surprise recog test,2023.1.3,60.05537104025697,
60,0,60,0,,,,,,,,,,,,,,,,,,,,,,,,,,,,,,,,,,415.594318199961,,414.0600543000037,414.0600543000037,414.0600543000037,414.0600543000037,new_sceneOut_11.png,61,4.0,1.5337926000356674,,048,01,2025-01-31_12h29.20.992,Surprise recog test,2023.1.3,60.05537104025697,
61,0,61,0,,,,,,,,,,,,,,,,,,,,,,,,,,,,,,,,,,418.4255348999868,419.4409648000146,416.630700299982,416.630700299982,416.630700299982,416.630700299982,old_sceneOut_39.png,62,3.0,1.7918771000113338,,048,01,2025-01-31_12h29.20.992,Surprise recog test,2023.1.3,60.05537104025697,
62,0,62,0,,,,,,,,,,,,,,,,,,,,,,,,,,,,,,,,,,421.97690750000766,423.00061300001107,419.4409648000146,419.4409648000146,419.4409648000146,419.4409648000146,new_sceneIn_48.png,63,4.0,2.536060800019186,,048,01,2025-01-31_12h29.20.992,Surprise recog test,2023.1.3,60.05537104025697,
63,0,63,0,,,,,,,,,,,,,,,,,,,,,,,,,,,,,,,,,,424.8311355999904,425.8467016000068,423.00061300001107,423.00061300001107,423.00061300001107,423.00061300001107,old_stationery_45.png,64,1.0,1.833101700001862,,048,01,2025-01-31_12h29.20.992,Surprise recog test,2023.1.3,60.05537104025697,
64,0,64,0,,,,,,,,,,,,,,,,,,,,,,,,,,,,,,,,,,427.96106729999883,428.97569870000007,425.8467016000068,425.8467016000068,425.8467016000068,425.8467016000068,old_sceneOut_4.png,65,4.0,2.116985599976033,,048,01,2025-01-31_12h29.20.992,Surprise recog test,2023.1.3,60.05537104025697,
65,0,65,0,,,,,,,,,,,,,,,,,,,,,,,,,,,,,,,,,,430.25503309996566,,428.97569870000007,428.97569870000007,428.97569870000007,428.97569870000007,new_sceneIn_2.png,66,4.0,1.2732946000178345,,048,01,2025-01-31_12h29.20.992,Surprise recog test,2023.1.3,60.05537104025697,
66,0,66,0,,,,,,,,,,,,,,,,,,,,,,,,,,,,,,,,,,432.98754090000875,434.0083322999999,431.2729443999706,431.2729443999706,431.2729443999706,431.2729443999706,old_stationery_33.png,67,1.0,1.7037153000128455,,048,01,2025-01-31_12h29.20.992,Surprise recog test,2023.1.3,60.05537104025697,
67,0,67,0,,,,,,,,,,,,,,,,,,,,,,,,,,,,,,,,,,435.57578989997273,,434.0083322999999,434.0083322999999,434.0083322999999,434.0083322999999,new_sceneIn_10.png,68,4.0,1.5676412000320852,,048,01,2025-01-31_12h29.20.992,Surprise recog test,2023.1.3,60.05537104025697,
68,0,68,0,,,,,,,,,,,,,,,,,,,,,,,,,,,,,,,,,,438.21589099999983,439.23371180001413,436.60938749997877,436.60938749997877,436.60938749997877,436.60938749997877,old_stationery_6.png,69,3.0,1.6099010999896564,,048,01,2025-01-31_12h29.20.992,Surprise recog test,2023.1.3,60.05537104025697,
69,0,69,0,,,,,,,,,,,,,,,,,,,,,,,,,,,,,,,,,,441.5860634999699,442.602678700001,439.23371180001413,439.23371180001413,439.23371180001413,439.23371180001413,new_sceneOut_16.png,70,3.0,2.348447100026533,,048,01,2025-01-31_12h29.20.992,Surprise recog test,2023.1.3,60.05537104025697,
70,0,70,0,,,,,,,,,,,,,,,,,,,,,,,,,,,,,,,,,,444.2635627000127,445.2851431000163,442.602678700001,442.602678700001,442.602678700001,442.602678700001,new_fruit_26.png,71,3.0,1.652810600004159,,048,01,2025-01-31_12h29.20.992,Surprise recog test,2023.1.3,60.05537104025697,
71,0,71,0,,,,,,,,,,,,,,,,,,,,,,,,,,,,,,,,,,447.28323579998687,448.30418179999106,445.2851431000163,445.2851431000163,445.2851431000163,445.2851431000163,old_fruit_45.png,72,3.0,2.0000689000007696,,048,01,2025-01-31_12h29.20.992,Surprise recog test,2023.1.3,60.05537104025697,
72,0,72,0,,,,,,,,,,,,,,,,,,,,,,,,,,,,,,,,,,449.1843807999976,450.2103379999753,448.30418179999106,448.30418179999106,448.30418179999106,448.30418179999106,old_fruit_21.png,73,3.0,0.8798241000040434,,048,01,2025-01-31_12h29.20.992,Surprise recog test,2023.1.3,60.05537104025697,
73,0,73,0,,,,,,,,,,,,,,,,,,,,,,,,,,,,,,,,,,451.85667939996347,,450.2103379999753,450.2103379999753,450.2103379999753,450.2103379999753,old_stationery_18.png,74,1.0,1.649383400043007,,048,01,2025-01-31_12h29.20.992,Surprise recog test,2023.1.3,60.05537104025697,
74,0,74,0,,,,,,,,,,,,,,,,,,,,,,,,,,,,,,,,,,454.7132408999605,455.73844699998153,452.88837190001504,452.88837190001504,452.88837190001504,452.88837190001504,old_sceneOut_47.png,75,4.0,1.8269211999722756,,048,01,2025-01-31_12h29.20.992,Surprise recog test,2023.1.3,60.05537104025697,
75,0,75,0,,,,,,,,,,,,,,,,,,,,,,,,,,,,,,,,,,457.28696050000144,458.3079812999931,455.73844699998153,455.73844699998153,455.73844699998153,455.73844699998153,old_sceneIn_26.png,76,5.0,1.5488795000128448,,048,01,2025-01-31_12h29.20.992,Surprise recog test,2023.1.3,60.05537104025697,
76,0,76,0,,,,,,,,,,,,,,,,,,,,,,,,,,,,,,,,,,460.620453200012,461.6365589000052,458.3079812999931,458.3079812999931,458.3079812999931,458.3079812999931,new_sceneOut_17.png,77,3.0,2.3136891999747604,,048,01,2025-01-31_12h29.20.992,Surprise recog test,2023.1.3,60.05537104025697,
77,0,77,0,,,,,,,,,,,,,,,,,,,,,,,,,,,,,,,,,,464.1468014999991,465.16948789998423,461.6365589000052,461.6365589000052,461.6365589000052,461.6365589000052,new_stationery_35.png,78,1.0,2.504492499982007,,048,01,2025-01-31_12h29.20.992,Surprise recog test,2023.1.3,60.05537104025697,
78,0,78,0,,,,,,,,,,,,,,,,,,,,,,,,,,,,,,,,,,467.0830954000121,468.10400990000926,465.16948789998423,465.16948789998423,465.16948789998423,465.16948789998423,new_stationery_19.png,79,4.0,1.9148482999880798,,048,01,2025-01-31_12h29.20.992,Surprise recog test,2023.1.3,60.05537104025697,
79,0,79,0,,,,,,,,,,,,,,,,,,,,,,,,,,,,,,,,,,469.77095199999167,,468.10400990000926,468.10400990000926,468.10400990000926,468.10400990000926,old_sceneIn_21.png,80,4.0,1.6672925999737345,,048,01,2025-01-31_12h29.20.992,Surprise recog test,2023.1.3,60.05537104025697,
80,0,80,0,,,,,,,,,,,,,,,,,,,,,,,,,,,,,,,,,,472.4233491999912,,470.79282579995925,470.79282579995925,470.79282579995925,470.79282579995925,new_fruit_20.png,81,4.0,1.6270909000304528,,048,01,2025-01-31_12h29.20.992,Surprise recog test,2023.1.3,60.05537104025697,
81,0,81,0,,,,,,,,,,,,,,,,,,,,,,,,,,,,,,,,,,476.32124249998014,477.34426320000784,473.4571180999628,473.4571180999628,473.4571180999628,473.4571180999628,old_stationery_10.png,82,3.0,2.864114800002426,,048,01,2025-01-31_12h29.20.992,Surprise recog test,2023.1.3,60.05537104025697,
82,0,82,0,,,,,,,,,,,,,,,,,,,,,,,,,,,,,,,,,,479.1477123000077,480.16780639998615,477.34426320000784,477.34426320000784,477.34426320000784,477.34426320000784,old_sceneIn_48.png,83,4.0,1.8059921999811195,,048,01,2025-01-31_12h29.20.992,Surprise recog test,2023.1.3,60.05537104025697,
83,0,83,0,,,,,,,,,,,,,,,,,,,,,,,,,,,,,,,,,,482.1547195999883,483.1815746999928,480.16780639998615,480.16780639998615,480.16780639998615,480.16780639998615,new_stationery_48.png,84,4.0,1.982837899995502,,048,01,2025-01-31_12h29.20.992,Surprise recog test,2023.1.3,60.05537104025697,
84,0,84,0,,,,,,,,,,,,,,,,,,,,,,,,,,,,,,,,,,484.97786949999863,486.00253800000064,483.1815746999928,483.1815746999928,483.1815746999928,483.1815746999928,old_sceneOut_8.png,85,2.0,1.7981868000351824,,048,01,2025-01-31_12h29.20.992,Surprise recog test,2023.1.3,60.05537104025697,
85,0,85,0,,,,,,,,,,,,,,,,,,,,,,,,,,,,,,,,,,487.8893201999599,488.91301560000284,486.00253800000064,486.00253800000064,486.00253800000064,486.00253800000064,new_sceneOut_48.png,86,4.0,1.8901089999708347,,048,01,2025-01-31_12h29.20.992,Surprise recog test,2023.1.3,60.05537104025697,
86,0,86,0,,,,,,,,,,,,,,,,,,,,,,,,,,,,,,,,,,490.4250507999677,491.4540568999946,488.91301560000284,488.91301560000284,488.91301560000284,488.91301560000284,new_sceneOut_30.png,87,2.0,1.51241750002373,,048,01,2025-01-31_12h29.20.992,Surprise recog test,2023.1.3,60.05537104025697,
87,0,87,0,,,,,,,,,,,,,,,,,,,,,,,,,,,,,,,,,,493.61145189998206,494.6418324999977,491.4540568999946,491.4540568999946,491.4540568999946,491.4540568999946,old_sceneIn_37.png,88,4.0,2.1591780000017025,,048,01,2025-01-31_12h29.20.992,Surprise recog test,2023.1.3,60.05537104025697,
88,0,88,0,,,,,,,,,,,,,,,,,,,,,,,,,,,,,,,,,,496.1579608999891,497.1780553999706,494.6418324999977,494.6418324999977,494.6418324999977,494.6418324999977,old_fruit_44.png,89,3.0,1.5159017000114545,,048,01,2025-01-31_12h29.20.992,Surprise recog test,2023.1.3,60.05537104025697,
89,0,89,0,,,,,,,,,,,,,,,,,,,,,,,,,,,,,,,,,,499.3917294999701,500.4110731999972,497.1780553999706,497.1780553999706,497.1780553999706,497.1780553999706,old_sceneIn_13.png,90,3.0,2.2157006000052206,,048,01,2025-01-31_12h29.20.992,Surprise recog test,2023.1.3,60.05537104025697,
90,0,90,0,,,,,,,,,,,,,,,,,,,,,,,,,,,,,,,,,,502.1239973999909,503.1491383999819,500.4110731999972,500.4110731999972,500.4110731999972,500.4110731999972,old_sceneIn_2.png,91,3.0,1.7151101999916136,,048,01,2025-01-31_12h29.20.992,Surprise recog test,2023.1.3,60.05537104025697,
91,0,91,0,,,,,,,,,,,,,,,,,,,,,,,,,,,,,,,,,,505.8231660000165,506.83652959996834,503.1491383999819,503.1491383999819,503.1491383999819,503.1491383999819,old_sceneOut_49.png,92,3.0,2.6759746000170708,,048,01,2025-01-31_12h29.20.992,Surprise recog test,2023.1.3,60.05537104025697,
92,0,92,0,,,,,,,,,,,,,,,,,,,,,,,,,,,,,,,,,,508.1385404999601,509.1691606999957,506.83652959996834,506.83652959996834,506.83652959996834,506.83652959996834,old_fruit_33.png,93,2.0,1.2979451999999583,,048,01,2025-01-31_12h29.20.992,Surprise recog test,2023.1.3,60.05537104025697,
93,0,93,0,,,,,,,,,,,,,,,,,,,,,,,,,,,,,,,,,,510.7479910000111,511.76076059998013,509.1691606999957,509.1691606999957,509.1691606999957,509.1691606999957,old_sceneIn_25.png,94,4.0,1.5811250999686308,,048,01,2025-01-31_12h29.20.992,Surprise recog test,2023.1.3,60.05537104025697,
94,0,94,0,,,,,,,,,,,,,,,,,,,,,,,,,,,,,,,,,,513.2123979000025,514.2417046999908,511.76076059998013,511.76076059998013,511.76076059998013,511.76076059998013,new_sceneOut_13.png,95,4.0,1.446063800016418,,048,01,2025-01-31_12h29.20.992,Surprise recog test,2023.1.3,60.05537104025697,
95,0,95,0,,,,,,,,,,,,,,,,,,,,,,,,,,,,,,,,,,515.7370696999715,516.7469403999858,514.2417046999908,514.2417046999908,514.2417046999908,514.2417046999908,old_stationery_28.png,96,2.0,1.4976622000103816,,048,01,2025-01-31_12h29.20.992,Surprise recog test,2023.1.3,60.05537104025697,
96,0,96,0,,,,,,,,,,,,,,,,,,,,,,,,,,,,,,,,,,517.9635264999815,518.988915599999,516.7469403999858,516.7469403999858,516.7469403999858,516.7469403999858,new_fruit_25.png,97,2.0,1.2125341999926604,,048,01,2025-01-31_12h29.20.992,Surprise recog test,2023.1.3,60.05537104025697,
97,0,97,0,,,,,,,,,,,,,,,,,,,,,,,,,,,,,,,,,,520.6138572999625,,518.988915599999,518.988915599999,518.988915599999,518.988915599999,old_fruit_14.png,98,2.0,1.6213245000108145,,048,01,2025-01-31_12h29.20.992,Surprise recog test,2023.1.3,60.05537104025697,
98,0,98,0,,,,,,,,,,,,,,,,,,,,,,,,,,,,,,,,,,522.9034850999597,523.9206778999651,521.6473859999678,521.6473859999678,521.6473859999678,521.6473859999678,old_fruit_47.png,99,1.0,1.257591900008265,,048,01,2025-01-31_12h29.20.992,Surprise recog test,2023.1.3,60.05537104025697,
99,0,99,0,,,,,,,,,,,,,,,,,,,,,,,,,,,,,,,,,,525.9779858000111,527.0035613999935,523.9206778999651,523.9206778999651,523.9206778999651,523.9206778999651,new_stationery_50.png,100,4.0,2.0519307000213303,,048,01,2025-01-31_12h29.20.992,Surprise recog test,2023.1.3,60.05537104025697,
100,0,100,0,,,,,,,,,,,,,,,,,,,,,,,,,,,,,,,,,,528.3883993999916,529.417832200008,527.0035613999935,527.0035613999935,527.0035613999935,527.0035613999935,old_sceneIn_4.png,101,4.0,1.38718429999426,,048,01,2025-01-31_12h29.20.992,Surprise recog test,2023.1.3,60.05537104025697,
101,0,101,0,,,,,,,,,,,,,,,,,,,,,,,,,,,,,,,,,,530.4451448000036,531.4735431000008,529.417832200008,529.417832200008,529.417832200008,529.417832200008,old_sceneOut_18.png,102,4.0,1.0284278000472113,,048,01,2025-01-31_12h29.20.992,Surprise recog test,2023.1.3,60.05537104025697,
102,0,102,0,,,,,,,,,,,,,,,,,,,,,,,,,,,,,,,,,,533.8249224000028,,531.4735431000008,531.4735431000008,531.4735431000008,531.4735431000008,new_stationery_49.png,103,3.0,2.3513609999790788,,048,01,2025-01-31_12h29.20.992,Surprise recog test,2023.1.3,60.05537104025697,
103,0,103,0,,,,,,,,,,,,,,,,,,,,,,,,,,,,,,,,,,536.7098761000088,,534.8589088000008,534.8589088000008,534.8589088000008,534.8589088000008,old_sceneIn_8.png,104,4.0,1.853547399980016,,048,01,2025-01-31_12h29.20.992,Surprise recog test,2023.1.3,60.05537104025697,
104,0,104,0,,,,,,,,,,,,,,,,,,,,,,,,,,,,,,,,,,540.0386968000093,541.051096500014,537.7453703999636,537.7453703999636,537.7453703999636,537.7453703999636,new_sceneOut_42.png,105,2.0,2.2965077999979258,,048,01,2025-01-31_12h29.20.992,Surprise recog test,2023.1.3,60.05537104025697,
105,0,105,0,,,,,,,,,,,,,,,,,,,,,,,,,,,,,,,,,,543.2871245999704,544.3047306999797,541.051096500014,541.051096500014,541.051096500014,541.051096500014,new_stationery_16.png,106,3.0,2.231568699993659,,048,01,2025-01-31_12h29.20.992,Surprise recog test,2023.1.3,60.05537104025697,
106,0,106,0,,,,,,,,,,,,,,,,,,,,,,,,,,,,,,,,,,546.5369970999891,547.5562784000067,544.3047306999797,544.3047306999797,544.3047306999797,544.3047306999797,new_fruit_34.png,107,4.0,2.2278118999674916,,048,01,2025-01-31_12h29.20.992,Surprise recog test,2023.1.3,60.05537104025697,
107,0,107,0,,,,,,,,,,,,,,,,,,,,,,,,,,,,,,,,,,549.2346696999739,550.2514240000164,547.5562784000067,547.5562784000067,547.5562784000067,547.5562784000067,new_stationery_33.png,108,4.0,1.6742423999821767,,048,01,2025-01-31_12h29.20.992,Surprise recog test,2023.1.3,60.05537104025697,
108,0,108,0,,,,,,,,,,,,,,,,,,,,,,,,,,,,,,,,,,552.7993283999967,553.8257531999843,550.2514240000164,550.2514240000164,550.2514240000164,550.2514240000164,old_fruit_50.png,109,4.0,2.550479199970141,,048,01,2025-01-31_12h29.20.992,Surprise recog test,2023.1.3,60.05537104025697,
109,0,109,0,,,,,,,,,,,,,,,,,,,,,,,,,,,,,,,,,,555.5719314999878,556.5926394999842,553.8257531999843,553.8257531999843,553.8257531999843,553.8257531999843,new_sceneIn_39.png,110,4.0,1.7488290999899618,,048,01,2025-01-31_12h29.20.992,Surprise recog test,2023.1.3,60.05537104025697,
110,0,110,0,,,,,,,,,,,,,,,,,,,,,,,,,,,,,,,,,,557.94210320001,558.9458897999721,556.5926394999842,556.5926394999842,556.5926394999842,556.5926394999842,old_stationery_41.png,111,3.0,1.3476563000003807,,048,01,2025-01-31_12h29.20.992,Surprise recog test,2023.1.3,60.05537104025697,
111,0,111,0,,,,,,,,,,,,,,,,,,,,,,,,,,,,,,,,,,560.3224475999596,561.3454091000021,558.9458897999721,558.9458897999721,558.9458897999721,558.9458897999721,new_stationery_7.png,112,4.0,1.3720486999955028,,048,01,2025-01-31_12h29.20.992,Surprise recog test,2023.1.3,60.05537104025697,
112,0,112,0,,,,,,,,,,,,,,,,,,,,,,,,,,,,,,,,,,562.9852759999922,564.0027535000117,561.3454091000021,561.3454091000021,561.3454091000021,561.3454091000021,old_stationery_21.png,113,1.0,1.6406251000007614,,048,01,2025-01-31_12h29.20.992,Surprise recog test,2023.1.3,60.05537104025697,
113,0,113,0,,,,,,,,,,,,,,,,,,,,,,,,,,,,,,,,,,566.5554178999737,567.582113499986,564.0027535000117,564.0027535000117,564.0027535000117,564.0027535000117,old_sceneOut_46.png,114,3.0,2.5511353999609128,,048,01,2025-01-31_12h29.20.992,Surprise recog test,2023.1.3,60.05537104025697,
114,0,114,0,,,,,,,,,,,,,,,,,,,,,,,,,,,,,,,,,,568.8525391999865,569.8710175000015,567.582113499986,567.582113499986,567.582113499986,567.582113499986,new_sceneOut_2.png,115,2.0,1.270622199983336,,048,01,2025-01-31_12h29.20.992,Surprise recog test,2023.1.3,60.05537104025697,
115,0,115,0,,,,,,,,,,,,,,,,,,,,,,,,,,,,,,,,,,571.8085556000005,572.8366680999752,569.8710175000015,569.8710175000015,569.8710175000015,569.8710175000015,new_stationery_26.png,116,4.0,1.9385681999847293,,048,01,2025-01-31_12h29.20.992,Surprise recog test,2023.1.3,60.05537104025697,
116,0,116,0,,,,,,,,,,,,,,,,,,,,,,,,,,,,,,,,,,574.3115703999647,575.3311588999932,572.8366680999752,572.8366680999752,572.8366680999752,572.8366680999752,new_stationery_31.png,117,4.0,1.476687500020489,,048,01,2025-01-31_12h29.20.992,Surprise recog test,2023.1.3,60.05537104025697,
117,0,117,0,,,,,,,,,,,,,,,,,,,,,,,,,,,,,,,,,,576.8117722999887,,575.3311588999932,575.3311588999932,575.3311588999932,575.3311588999932,new_stationery_29.png,118,5.0,1.4792706999578513,,048,01,2025-01-31_12h29.20.992,Surprise recog test,2023.1.3,60.05537104025697,
118,0,118,0,,,,,,,,,,,,,,,,,,,,,,,,,,,,,,,,,,579.833788399992,580.8641135999933,577.8478954999591,577.8478954999591,577.8478954999591,577.8478954999591,new_sceneIn_18.png,119,4.0,1.9897251999936998,,048,01,2025-01-31_12h29.20.992,Surprise recog test,2023.1.3,60.05537104025697,
119,0,119,0,,,,,,,,,,,,,,,,,,,,,,,,,,,,,,,,,,582.9651715999935,,580.8641135999933,580.8641135999933,580.8641135999933,580.8641135999933,old_sceneOut_45.png,120,3.0,2.1013899000245146,,048,01,2025-01-31_12h29.20.992,Surprise recog test,2023.1.3,60.05537104025697,
120,0,120,0,,,,,,,,,,,,,,,,,,,,,,,,,,,,,,,,,,585.4327359999879,586.4532109000138,584.0026701999595,584.0026701999595,584.0026701999595,584.0026701999595,new_fruit_28.png,121,3.0,1.4346936999936588,,048,01,2025-01-31_12h29.20.992,Surprise recog test,2023.1.3,60.05537104025697,
121,0,121,0,,,,,,,,,,,,,,,,,,,,,,,,,,,,,,,,,,588.0625106999651,589.0715847999672,586.4532109000138,586.4532109000138,586.4532109000138,586.4532109000138,new_fruit_2.png,122,3.0,1.6123538999818265,,048,01,2025-01-31_12h29.20.992,Surprise recog test,2023.1.3,60.05537104025697,
122,0,122,0,,,,,,,,,,,,,,,,,,,,,,,,,,,,,,,,,,590.5825952999876,591.6080623000162,589.0715847999672,589.0715847999672,589.0715847999672,589.0715847999672,new_sceneIn_1.png,123,4.0,1.5055378999677487,,048,01,2025-01-31_12h29.20.992,Surprise recog test,2023.1.3,60.05537104025697,
123,0,123,0,,,,,,,,,,,,,,,,,,,,,,,,,,,,,,,,,,593.0147492999677,594.0443137999973,591.6080623000162,591.6080623000162,591.6080623000162,591.6080623000162,old_fruit_5.png,124,2.0,1.4098189999931492,,048,01,2025-01-31_12h29.20.992,Surprise recog test,2023.1.3,60.05537104025697,
124,0,124,0,,,,,,,,,,,,,,,,,,,,,,,,,,,,,,,,,,597.0171024000156,598.0440418999642,594.0443137999973,594.0443137999973,594.0443137999973,594.0443137999973,old_stationery_37.png,125,4.0,2.9767055999836884,,048,01,2025-01-31_12h29.20.992,Surprise recog test,2023.1.3,60.05537104025697,
125,0,125,0,,,,,,,,,,,,,,,,,,,,,,,,,,,,,,,,,,600.8798710000119,,598.0440418999642,598.0440418999642,598.0440418999642,598.0440418999642,new_stationery_22.png,126,3.0,2.836882100033108,,048,01,2025-01-31_12h29.20.992,Surprise recog test,2023.1.3,60.05537104025697,
126,0,126,0,,,,,,,,,,,,,,,,,,,,,,,,,,,,,,,,,,603.2721602999954,604.2937177999993,601.9032317000092,601.9032317000092,601.9032317000092,601.9032317000092,new_sceneOut_44.png,127,3.0,1.365317000017967,,048,01,2025-01-31_12h29.20.992,Surprise recog test,2023.1.3,60.05537104025697,
127,0,127,0,,,,,,,,,,,,,,,,,,,,,,,,,,,,,,,,,,607.070406200015,608.1009550999734,604.2937177999993,604.2937177999993,604.2937177999993,604.2937177999993,old_fruit_42.png,128,3.0,2.77643009996973,,048,01,2025-01-31_12h29.20.992,Surprise recog test,2023.1.3,60.05537104025697,
128,0,128,0,,,,,,,,,,,,,,,,,,,,,,,,,,,,,,,,,,612.1830876999884,613.1948884999729,608.1009550999734,608.1009550999734,608.1009550999734,608.1009550999734,old_sceneIn_33.png,129,3.0,4.084176500036847,,048,01,2025-01-31_12h29.20.992,Surprise recog test,2023.1.3,60.05537104025697,
129,0,129,0,,,,,,,,,,,,,,,,,,,,,,,,,,,,,,,,,,614.8582550999708,,613.1948884999729,613.1948884999729,613.1948884999729,613.1948884999729,old_sceneOut_24.png,130,2.0,1.6584297000081278,,048,01,2025-01-31_12h29.20.992,Surprise recog test,2023.1.3,60.05537104025697,
130,0,130,0,,,,,,,,,,,,,,,,,,,,,,,,,,,,,,,,,,617.1768025999772,,615.8924619999598,615.8924619999598,615.8924619999598,615.8924619999598,new_sceneOut_41.png,131,2.0,1.287838999996893,,048,01,2025-01-31_12h29.20.992,Surprise recog test,2023.1.3,60.05537104025697,
131,0,131,0,,,,,,,,,,,,,,,,,,,,,,,,,,,,,,,,,,620.9024011999718,621.9191432999796,618.2053917999729,618.2053917999729,618.2053917999729,618.2053917999729,new_sceneOut_19.png,132,3.0,2.6962859999621287,,048,01,2025-01-31_12h29.20.992,Surprise recog test,2023.1.3,60.05537104025697,
132,0,132,0,,,,,,,,,,,,,,,,,,,,,,,,,,,,,,,,,,623.3101052999846,624.3309308000025,621.9191432999796,621.9191432999796,621.9191432999796,621.9191432999796,old_sceneIn_15.png,133,4.0,1.3848811999778263,,048,01,2025-01-31_12h29.20.992,Surprise recog test,2023.1.3,60.05537104025697,
133,0,133,0,,,,,,,,,,,,,,,,,,,,,,,,,,,,,,,,,,625.3064566999674,626.330280299997,624.3309308000025,624.3309308000025,624.3309308000025,624.3309308000025,old_sceneIn_49.png,134,4.0,0.974994299991522,,048,01,2025-01-31_12h29.20.992,Surprise recog test,2023.1.3,60.05537104025697,
134,0,134,0,,,,,,,,,,,,,,,,,,,,,,,,,,,,,,,,,,627.7055601999746,628.7359384999727,626.330280299997,626.330280299997,626.330280299997,626.330280299997,new_stationery_12.png,135,1.0,1.3779185999883339,,048,01,2025-01-31_12h29.20.992,Surprise recog test,2023.1.3,60.05537104025697,
135,0,135,0,,,,,,,,,,,,,,,,,,,,,,,,,,,,,,,,,,630.5624094000086,631.5882585999789,628.7359384999727,628.7359384999727,628.7359384999727,628.7359384999727,old_stationery_43.png,136,3.0,1.8271688999957405,,048,01,2025-01-31_12h29.20.992,Surprise recog test,2023.1.3,60.05537104025697,
136,0,136,0,,,,,,,,,,,,,,,,,,,,,,,,,,,,,,,,,,632.8077175999642,,631.5882585999789,631.5882585999789,631.5882585999789,631.5882585999789,new_stationery_10.png,137,4.0,1.2219793999684043,,048,01,2025-01-31_12h29.20.992,Surprise recog test,2023.1.3,60.05537104025697,
137,0,137,0,,,,,,,,,,,,,,,,,,,,,,,,,,,,,,,,,,635.9015691999812,636.9138776999898,633.8285077000037,633.8285077000037,633.8285077000037,633.8285077000037,old_sceneOut_33.png,138,3.0,2.0690475999726914,,048,01,2025-01-31_12h29.20.992,Surprise recog test,2023.1.3,60.05537104025697,
138,0,138,0,,,,,,,,,,,,,,,,,,,,,,,,,,,,,,,,,,638.7613181999768,,636.9138776999898,636.9138776999898,636.9138776999898,636.9138776999898,old_stationery_25.png,139,4.0,1.8426534000318497,,048,01,2025-01-31_12h29.20.992,Surprise recog test,2023.1.3,60.05537104025697,
139,0,139,0,,,,,,,,,,,,,,,,,,,,,,,,,,,,,,,,,,640.9352229000069,641.9527340999921,639.7977919999976,639.7977919999976,639.7977919999976,639.7977919999976,old_fruit_9.png,140,4.0,1.1385306000011042,,048,01,2025-01-31_12h29.20.992,Surprise recog test,2023.1.3,60.05537104025697,
140,0,140,0,,,,,,,,,,,,,,,,,,,,,,,,,,,,,,,,,,643.8027935000136,644.8203010999714,641.9527340999921,641.9527340999921,641.9527340999921,641.9527340999921,old_fruit_17.png,141,5.0,1.8436677000136115,,048,01,2025-01-31_12h29.20.992,Surprise recog test,2023.1.3,60.05537104025697,
141,0,141,0,,,,,,,,,,,,,,,,,,,,,,,,,,,,,,,,,,647.1323644999648,648.1535893999971,644.8203010999714,644.8203010999714,644.8203010999714,644.8203010999714,old_fruit_20.png,142,3.0,2.3040876000304706,,048,01,2025-01-31_12h29.20.992,Surprise recog test,2023.1.3,60.05537104025697,
142,0,142,0,,,,,,,,,,,,,,,,,,,,,,,,,,,,,,,,,,650.4130269999732,651.4382535999757,648.1535893999971,648.1535893999971,648.1535893999971,648.1535893999971,new_sceneOut_43.png,143,3.0,2.260532000043895,,048,01,2025-01-31_12h29.20.992,Surprise recog test,2023.1.3,60.05537104025697,
143,0,143,0,,,,,,,,,,,,,,,,,,,,,,,,,,,,,,,,,,653.1460982999997,654.1727295999881,651.4382535999757,651.4382535999757,651.4382535999757,651.4382535999757,old_sceneOut_48.png,144,4.0,1.707879800000228,,048,01,2025-01-31_12h29.20.992,Surprise recog test,2023.1.3,60.05537104025697,
144,0,144,0,,,,,,,,,,,,,,,,,,,,,,,,,,,,,,,,,,655.5890290999669,656.6113780000014,654.1727295999881,654.1727295999881,654.1727295999881,654.1727295999881,old_sceneIn_44.png,145,3.0,1.4164632000029087,,048,01,2025-01-31_12h29.20.992,Surprise recog test,2023.1.3,60.05537104025697,
145,0,145,0,,,,,,,,,,,,,,,,,,,,,,,,,,,,,,,,,,658.0151059000054,659.0330772000016,656.6113780000014,656.6113780000014,656.6113780000014,656.6113780000014,old_fruit_11.png,146,1.0,1.40507500001695,,048,01,2025-01-31_12h29.20.992,Surprise recog test,2023.1.3,60.05537104025697,
146,0,146,0,,,,,,,,,,,,,,,,,,,,,,,,,,,,,,,,,,661.3085856999969,662.3337544999667,659.0330772000016,659.0330772000016,659.0330772000016,659.0330772000016,old_sceneOut_38.png,147,4.0,2.2714634999865666,,048,01,2025-01-31_12h29.20.992,Surprise recog test,2023.1.3,60.05537104025697,
147,0,147,0,,,,,,,,,,,,,,,,,,,,,,,,,,,,,,,,,,663.4012162999716,664.4343219000148,662.3337544999667,662.3337544999667,662.3337544999667,662.3337544999667,new_sceneOut_4.png,148,4.0,1.0697179000126198,,048,01,2025-01-31_12h29.20.992,Surprise recog test,2023.1.3,60.05537104025697,
148,0,148,0,,,,,,,,,,,,,,,,,,,,,,,,,,,,,,,,,,666.000720400014,,664.4343219000148,664.4343219000148,664.4343219000148,664.4343219000148,old_sceneOut_16.png,149,3.0,1.5690208000014536,,048,01,2025-01-31_12h29.20.992,Surprise recog test,2023.1.3,60.05537104025697,
149,0,149,0,,,,,,,,,,,,,,,,,,,,,,,,,,,,,,,,,,667.9813991999836,669.0003469999647,667.0352031000075,667.0352031000075,667.0352031000075,667.0352031000075,old_sceneOut_41.png,150,4.0,0.9464506999938749,,048,01,2025-01-31_12h29.20.992,Surprise recog test,2023.1.3,60.05537104025697,
150,0,150,0,,,,,,,,,,,,,,,,,,,,,,,,,,,,,,,,,,670.7644771999912,671.7884082999662,669.0003469999647,669.0003469999647,669.0003469999647,669.0003469999647,old_stationery_4.png,151,2.0,1.7666993999737315,,048,01,2025-01-31_12h29.20.992,Surprise recog test,2023.1.3,60.05537104025697,
151,0,151,0,,,,,,,,,,,,,,,,,,,,,,,,,,,,,,,,,,673.8879795999965,674.9088501000078,671.7884082999662,671.7884082999662,671.7884082999662,671.7884082999662,old_sceneIn_22.png,152,4.0,2.101201699988451,,048,01,2025-01-31_12h29.20.992,Surprise recog test,2023.1.3,60.05537104025697,
152,0,152,0,,,,,,,,,,,,,,,,,,,,,,,,,,,,,,,,,,677.1520166000118,678.1766823999933,674.9088501000078,674.9088501000078,674.9088501000078,674.9088501000078,new_stationery_39.png,153,3.0,2.245560600014869,,048,01,2025-01-31_12h29.20.992,Surprise recog test,2023.1.3,60.05537104025697,
153,0,153,0,,,,,,,,,,,,,,,,,,,,,,,,,,,,,,,,,,679.4977115999791,680.5181356999674,678.1766823999933,678.1766823999933,678.1766823999933,678.1766823999933,new_sceneIn_4.png,154,5.0,1.3231221999740228,,048,01,2025-01-31_12h29.20.992,Surprise recog test,2023.1.3,60.05537104025697,
154,0,154,0,,,,,,,,,,,,,,,,,,,,,,,,,,,,,,,,,,683.0989055999671,,680.5181356999674,680.5181356999674,680.5181356999674,680.5181356999674,new_sceneOut_6.png,155,3.0,2.574922500003595,,048,01,2025-01-31_12h29.20.992,Surprise recog test,2023.1.3,60.05537104025697,
155,0,155,0,,,,,,,,,,,,,,,,,,,,,,,,,,,,,,,,,,685.9965163000161,687.0074699000106,684.1198955000145,684.1198955000145,684.1198955000145,684.1198955000145,new_sceneIn_34.png,156,4.0,1.8724222000455484,,048,01,2025-01-31_12h29.20.992,Surprise recog test,2023.1.3,60.05537104025697,
156,0,156,0,,,,,,,,,,,,,,,,,,,,,,,,,,,,,,,,,,689.941714000015,690.9739079999854,687.0074699000106,687.0074699000106,687.0074699000106,687.0074699000106,new_sceneIn_7.png,157,4.0,2.9283193000010215,,048,01,2025-01-31_12h29.20.992,Surprise recog test,2023.1.3,60.05537104025697,
157,0,157,0,,,,,,,,,,,,,,,,,,,,,,,,,,,,,,,,,,693.291174300015,,690.9739079999854,690.9739079999854,690.9739079999854,690.9739079999854,old_fruit_37.png,158,4.0,2.3171014999970794,,048,01,2025-01-31_12h29.20.992,Surprise recog test,2023.1.3,60.05537104025697,
158,0,158,0,,,,,,,,,,,,,,,,,,,,,,,,,,,,,,,,,,695.9896150999703,697.0101687000133,694.3243709999952,694.3243709999952,694.3243709999952,694.3243709999952,new_fruit_44.png,159,4.0,1.660815500013996,,048,01,2025-01-31_12h29.20.992,Surprise recog test,2023.1.3,60.05537104025697,
159,0,159,0,,,,,,,,,,,,,,,,,,,,,,,,,,,,,,,,,,699.01293789997,,697.0101687000133,697.0101687000133,697.0101687000133,697.0101687000133,old_sceneOut_36.png,160,4.0,2.004473800014239,,048,01,2025-01-31_12h29.20.992,Surprise recog test,2023.1.3,60.05537104025697,
160,0,160,0,,,,,,,,,,,,,,,,,,,,,,,,,,,,,,,,,,702.4783085999661,703.4983477999922,700.0457031999831,700.0457031999831,700.0457031999831,700.0457031999831,new_fruit_15.png,161,3.0,2.4305444000056013,,048,01,2025-01-31_12h29.20.992,Surprise recog test,2023.1.3,60.05537104025697,
161,0,161,0,,,,,,,,,,,,,,,,,,,,,,,,,,,,,,,,,,704.7486908999854,705.7614202999976,703.4983477999922,703.4983477999922,703.4983477999922,703.4983477999922,old_stationery_16.png,162,2.0,1.2503340999828652,,048,01,2025-01-31_12h29.20.992,Surprise recog test,2023.1.3,60.05537104025697,
162,0,162,0,,,,,,,,,,,,,,,,,,,,,,,,,,,,,,,,,,708.1816116999835,709.2025385000161,705.7614202999976,705.7614202999976,705.7614202999976,705.7614202999976,old_stationery_23.png,163,2.0,2.4210267000016756,,048,01,2025-01-31_12h29.20.992,Surprise recog test,2023.1.3,60.05537104025697,
163,0,163,0,,,,,,,,,,,,,,,,,,,,,,,,,,,,,,,,,,711.2632909999811,712.2854660999728,709.2025385000161,709.2025385000161,709.2025385000161,709.2025385000161,new_stationery_11.png,164,4.0,2.06177500000922,,048,01,2025-01-31_12h29.20.992,Surprise recog test,2023.1.3,60.05537104025697,
164,0,164,0,,,,,,,,,,,,,,,,,,,,,,,,,,,,,,,,,,713.6729652999784,714.6925763000036,712.2854660999728,712.2854660999728,712.2854660999728,712.2854660999728,new_sceneIn_16.png,165,4.0,1.3881092000519857,,048,01,2025-01-31_12h29.20.992,Surprise recog test,2023.1.3,60.05537104025697,
165,0,165,0,,,,,,,,,,,,,,,,,,,,,,,,,,,,,,,,,,716.7961864999961,717.8284277999774,714.6925763000036,714.6925763000036,714.6925763000036,714.6925763000036,new_sceneOut_28.png,166,4.0,2.105398799991235,,048,01,2025-01-31_12h29.20.992,Surprise recog test,2023.1.3,60.05537104025697,
166,0,166,0,,,,,,,,,,,,,,,,,,,,,,,,,,,,,,,,,,721.1368246999918,722.1605208999827,717.8284277999774,717.8284277999774,717.8284277999774,717.8284277999774,new_sceneOut_10.png,167,3.0,3.308916500012856,,048,01,2025-01-31_12h29.20.992,Surprise recog test,2023.1.3,60.05537104025697,
167,0,167,0,,,,,,,,,,,,,,,,,,,,,,,,,,,,,,,,,,725.1001147999777,,722.1605208999827,722.1605208999827,722.1605208999827,722.1605208999827,old_sceneOut_15.png,168,3.0,2.937959700007923,,048,01,2025-01-31_12h29.20.992,Surprise recog test,2023.1.3,60.05537104025697,
168,0,168,0,,,,,,,,,,,,,,,,,,,,,,,,,,,,,,,,,,729.0507115999935,730.0708442999749,726.1351090999669,726.1351090999669,726.1351090999669,726.1351090999669,old_sceneIn_14.png,169,4.0,2.917732599948067,,048,01,2025-01-31_12h29.20.992,Surprise recog test,2023.1.3,60.05537104025697,
169,0,169,0,,,,,,,,,,,,,,,,,,,,,,,,,,,,,,,,,,731.4635861999705,732.4778342999634,730.0708442999749,730.0708442999749,730.0708442999749,730.0708442999749,old_sceneOut_5.png,170,4.0,1.3925385000184178,,048,01,2025-01-31_12h29.20.992,Surprise recog test,2023.1.3,60.05537104025697,
170,0,170,0,,,,,,,,,,,,,,,,,,,,,,,,,,,,,,,,,,734.3410731999902,,732.4778342999634,732.4778342999634,732.4778342999634,732.4778342999634,new_fruit_12.png,171,3.0,1.858627300010994,,048,01,2025-01-31_12h29.20.992,Surprise recog test,2023.1.3,60.05537104025697,
171,0,171,0,,,,,,,,,,,,,,,,,,,,,,,,,,,,,,,,,,736.7518602999626,737.7751128000091,735.3755970000057,735.3755970000057,735.3755970000057,735.3755970000057,new_fruit_3.png,172,4.0,1.3781306000309996,,048,01,2025-01-31_12h29.20.992,Surprise recog test,2023.1.3,60.05537104025697,
172,0,172,0,,,,,,,,,,,,,,,,,,,,,,,,,,,,,,,,,,739.0986368000158,740.1278370000073,737.7751128000091,737.7751128000091,737.7751128000091,737.7751128000091,old_stationery_50.png,173,1.0,1.3256760999793187,,048,01,2025-01-31_12h29.20.992,Surprise recog test,2023.1.3,60.05537104025697,
173,0,173,0,,,,,,,,,,,,,,,,,,,,,,,,,,,,,,,,,,742.5836175999721,743.6035068999627,740.1278370000073,740.1278370000073,740.1278370000073,740.1278370000073,new_sceneIn_11.png,174,3.0,2.4580133999697864,,048,01,2025-01-31_12h29.20.992,Surprise recog test,2023.1.3,60.05537104025697,
174,0,174,0,,,,,,,,,,,,,,,,,,,,,,,,,,,,,,,,,,745.3292809000122,746.3492479000124,743.6035068999627,743.6035068999627,743.6035068999627,743.6035068999627,old_sceneIn_17.png,175,4.0,1.7192484000115655,,048,01,2025-01-31_12h29.20.992,Surprise recog test,2023.1.3,60.05537104025697,
175,0,175,0,,,,,,,,,,,,,,,,,,,,,,,,,,,,,,,,,,748.6645941999741,749.6754394000163,746.3492479000124,746.3492479000124,746.3492479000124,746.3492479000124,new_sceneIn_31.png,176,4.0,2.3177717999788,,048,01,2025-01-31_12h29.20.992,Surprise recog test,2023.1.3,60.05537104025697,
176,0,176,0,,,,,,,,,,,,,,,,,,,,,,,,,,,,,,,,,,750.9185667000129,751.9379259999841,749.6754394000163,749.6754394000163,749.6754394000163,749.6754394000163,new_stationery_43.png,177,4.0,1.2390633000177331,,048,01,2025-01-31_12h29.20.992,Surprise recog test,2023.1.3,60.05537104025697,
177,0,177,0,,,,,,,,,,,,,,,,,,,,,,,,,,,,,,,,,,753.5707642000052,754.5908784999629,751.9379259999841,751.9379259999841,751.9379259999841,751.9379259999841,old_stationery_26.png,178,1.0,1.628822200000286,,048,01,2025-01-31_12h29.20.992,Surprise recog test,2023.1.3,60.05537104025697,
178,0,178,0,,,,,,,,,,,,,,,,,,,,,,,,,,,,,,,,,,757.0077343999874,758.0152041999972,754.5908784999629,754.5908784999629,754.5908784999629,754.5908784999629,new_fruit_33.png,179,4.0,2.41896340000676,,048,01,2025-01-31_12h29.20.992,Surprise recog test,2023.1.3,60.05537104025697,
179,0,179,0,,,,,,,,,,,,,,,,,,,,,,,,,,,,,,,,,,759.4173158999765,760.4447417999618,758.0152041999972,758.0152041999972,758.0152041999972,758.0152041999972,old_stationery_5.png,180,4.0,1.3979270000127144,,048,01,2025-01-31_12h29.20.992,Surprise recog test,2023.1.3,60.05537104025697,
180,0,180,0,,,,,,,,,,,,,,,,,,,,,,,,,,,,,,,,,,762.8073394999956,763.8251842000172,760.4447417999618,760.4447417999618,760.4447417999618,760.4447417999618,new_stationery_36.png,181,4.0,2.3640751999919303,,048,01,2025-01-31_12h29.20.992,Surprise recog test,2023.1.3,60.05537104025697,
181,0,181,0,,,,,,,,,,,,,,,,,,,,,,,,,,,,,,,,,,765.7398323999951,766.7668177000014,763.8251842000172,763.8251842000172,763.8251842000172,763.8251842000172,old_fruit_38.png,182,3.0,1.9161977000185288,,048,01,2025-01-31_12h29.20.992,Surprise recog test,2023.1.3,60.05537104025697,
182,0,182,0,,,,,,,,,,,,,,,,,,,,,,,,,,,,,,,,,,767.7582467999891,768.7866600999841,766.7668177000014,766.7668177000014,766.7668177000014,766.7668177000014,new_sceneIn_29.png,183,4.0,0.9925213999813423,,048,01,2025-01-31_12h29.20.992,Surprise recog test,2023.1.3,60.05537104025697,
183,0,183,0,,,,,,,,,,,,,,,,,,,,,,,,,,,,,,,,,,770.0547070999746,,768.7866600999841,768.7866600999841,768.7866600999841,768.7866600999841,old_sceneIn_9.png,184,5.0,1.2683806999702938,,048,01,2025-01-31_12h29.20.992,Surprise recog test,2023.1.3,60.05537104025697,
184,0,184,0,,,,,,,,,,,,,,,,,,,,,,,,,,,,,,,,,,773.2570495000109,,771.0857876999653,771.0857876999653,771.0857876999653,771.0857876999653,new_fruit_5.png,185,4.0,2.168683899973985,,048,01,2025-01-31_12h29.20.992,Surprise recog test,2023.1.3,60.05537104025697,
185,0,185,0,,,,,,,,,,,,,,,,,,,,,,,,,,,,,,,,,,775.2731927999994,776.2931868999731,774.2943566999747,774.2943566999747,774.2943566999747,774.2943566999747,old_sceneOut_14.png,186,4.0,0.9805810999823734,,048,01,2025-01-31_12h29.20.992,Surprise recog test,2023.1.3,60.05537104025697,
186,0,186,0,,,,,,,,,,,,,,,,,,,,,,,,,,,,,,,,,,777.1770661000046,,776.2931868999731,776.2931868999731,776.2931868999731,776.2931868999731,new_sceneIn_20.png,187,4.0,0.8847592999809422,,048,01,2025-01-31_12h29.20.992,Surprise recog test,2023.1.3,60.05537104025697,
187,0,187,0,,,,,,,,,,,,,,,,,,,,,,,,,,,,,,,,,,780.3971393000102,,778.2095945999608,778.2095945999608,778.2095945999608,778.2095945999608,old_sceneOut_35.png,188,3.0,2.1887301999959163,,048,01,2025-01-31_12h29.20.992,Surprise recog test,2023.1.3,60.05537104025697,
188,0,188,0,,,,,,,,,,,,,,,,,,,,,,,,,,,,,,,,,,782.4895474999794,783.5025124999811,781.4327541000093,781.4327541000093,781.4327541000093,781.4327541000093,old_stationery_15.png,189,4.0,1.0620589000172913,,048,01,2025-01-31_12h29.20.992,Surprise recog test,2023.1.3,60.05537104025697,
189,0,189,0,,,,,,,,,,,,,,,,,,,,,,,,,,,,,,,,,,784.4683532000054,785.5012008000049,783.5025124999811,783.5025124999811,783.5025124999811,783.5025124999811,old_fruit_34.png,190,4.0,0.9615451999707147,,048,01,2025-01-31_12h29.20.992,Surprise recog test,2023.1.3,60.05537104025697,
190,0,190,0,,,,,,,,,,,,,,,,,,,,,,,,,,,,,,,,,,787.6330245999852,788.6410130999866,785.5012008000049,785.5012008000049,785.5012008000049,785.5012008000049,old_stationery_44.png,191,4.0,2.135879200010095,,048,01,2025-01-31_12h29.20.992,Surprise recog test,2023.1.3,60.05537104025697,
191,0,191,0,,,,,,,,,,,,,,,,,,,,,,,,,,,,,,,,,,790.284128499974,791.3051487999619,788.6410130999866,788.6410130999866,788.6410130999866,788.6410130999866,old_fruit_26.png,192,2.0,1.6392985000275075,,048,01,2025-01-31_12h29.20.992,Surprise recog test,2023.1.3,60.05537104025697,
192,0,192,0,,,,,,,,,,,,,,,,,,,,,,,,,,,,,,,,,,793.5680255999905,794.5912548999768,791.3051487999619,791.3051487999619,791.3051487999619,791.3051487999619,old_stationery_20.png,193,3.0,2.2625308000133373,,048,01,2025-01-31_12h29.20.992,Surprise recog test,2023.1.3,60.05537104025697,
193,0,193,0,,,,,,,,,,,,,,,,,,,,,,,,,,,,,,,,,,795.8739913000027,796.8814867999754,794.5912548999768,794.5912548999768,794.5912548999768,794.5912548999768,new_sceneIn_49.png,194,4.0,1.2857394999591634,,048,01,2025-01-31_12h29.20.992,Surprise recog test,2023.1.3,60.05537104025697,
194,0,194,0,,,,,,,,,,,,,,,,,,,,,,,,,,,,,,,,,,799.0152101999847,800.0338271000073,796.8814867999754,796.8814867999754,796.8814867999754,796.8814867999754,new_stationery_41.png,195,4.0,2.1289557000272907,,048,01,2025-01-31_12h29.20.992,Surprise recog test,2023.1.3,60.05537104025697,
195,0,195,0,,,,,,,,,,,,,,,,,,,,,,,,,,,,,,,,,,801.2771221000003,802.2974086999893,800.0338271000073,800.0338271000073,800.0338271000073,800.0338271000073,old_sceneIn_34.png,196,4.0,1.2352914999937639,,048,01,2025-01-31_12h29.20.992,Surprise recog test,2023.1.3,60.05537104025697,
196,0,196,0,,,,,,,,,,,,,,,,,,,,,,,,,,,,,,,,,,803.9207533000153,804.9519118000171,802.2974086999893,802.2974086999893,802.2974086999893,802.2974086999893,new_stationery_45.png,197,4.0,1.624805000028573,,048,01,2025-01-31_12h29.20.992,Surprise recog test,2023.1.3,60.05537104025697,
197,0,197,0,,,,,,,,,,,,,,,,,,,,,,,,,,,,,,,,,,807.6720058000064,808.7020195999648,804.9519118000171,804.9519118000171,804.9519118000171,804.9519118000171,old_fruit_36.png,198,3.0,2.724456600029953,,048,01,2025-01-31_12h29.20.992,Surprise recog test,2023.1.3,60.05537104025697,
198,0,198,0,,,,,,,,,,,,,,,,,,,,,,,,,,,,,,,,,,809.7229963999707,810.7557013999904,808.7020195999648,808.7020195999648,808.7020195999648,808.7020195999648,old_sceneOut_43.png,199,3.0,1.023831499973312,,048,01,2025-01-31_12h29.20.992,Surprise recog test,2023.1.3,60.05537104025697,
199,0,199,0,,,,,,,,,,,,,,,,,,,,,,,,,,,,,,,,,,813.3709802000085,814.3921669999836,810.7557013999904,810.7557013999904,810.7557013999904,810.7557013999904,old_sceneIn_45.png,200,4.0,2.6167959999875166,,048,01,2025-01-31_12h29.20.992,Surprise recog test,2023.1.3,60.05537104025697,
200,0,200,0,,,,,,,,,,,,,,,,,,,,,,,,,,,,,,,,,,815.7460433999659,816.763889599999,814.3921669999836,814.3921669999836,814.3921669999836,814.3921669999836,new_fruit_45.png,201,3.0,1.355681299988646,,048,01,2025-01-31_12h29.20.992,Surprise recog test,2023.1.3,60.05537104025697,
201,0,201,0,,,,,,,,,,,,,,,,,,,,,,,,,,,,,,,,,,818.2873778999783,819.3127359999926,816.763889599999,816.763889599999,816.763889599999,816.763889599999,new_fruit_35.png,202,4.0,1.521712599962484,,048,01,2025-01-31_12h29.20.992,Surprise recog test,2023.1.3,60.05537104025697,
202,0,202,0,,,,,,,,,,,,,,,,,,,,,,,,,,,,,,,,,,820.4766365999822,821.484635700006,819.3127359999926,819.3127359999926,819.3127359999926,819.3127359999926,new_sceneIn_37.png,203,4.0,1.1596030999789946,,048,01,2025-01-31_12h29.20.992,Surprise recog test,2023.1.3,60.05537104025697,
203,0,203,0,,,,,,,,,,,,,,,,,,,,,,,,,,,,,,,,,,823.6903762000147,824.7170948999701,821.484635700006,821.484635700006,821.484635700006,821.484635700006,new_stationery_4.png,204,5.0,2.19855989998905,,048,01,2025-01-31_12h29.20.992,Surprise recog test,2023.1.3,60.05537104025697,
204,0,204,0,,,,,,,,,,,,,,,,,,,,,,,,,,,,,,,,,,827.3793641999946,828.4030894999742,824.7170948999701,824.7170948999701,824.7170948999701,824.7170948999701,old_sceneIn_36.png,205,4.0,2.6649142000242136,,048,01,2025-01-31_12h29.20.992,Surprise recog test,2023.1.3,60.05537104025697,
205,0,205,0,,,,,,,,,,,,,,,,,,,,,,,,,,,,,,,,,,830.5198227000074,831.5420393999666,828.4030894999742,828.4030894999742,828.4030894999742,828.4030894999742,new_stationery_30.png,206,3.0,2.1194676000159234,,048,01,2025-01-31_12h29.20.992,Surprise recog test,2023.1.3,60.05537104025697,
206,0,206,0,,,,,,,,,,,,,,,,,,,,,,,,,,,,,,,,,,832.7745288999868,833.8095885000075,831.5420393999666,831.5420393999666,831.5420393999666,831.5420393999666,new_sceneIn_9.png,207,4.0,1.2357730999938212,,048,01,2025-01-31_12h29.20.992,Surprise recog test,2023.1.3,60.05537104025697,
207,0,207,0,,,,,,,,,,,,,,,,,,,,,,,,,,,,,,,,,,835.0622707000002,836.0922987000085,833.8095885000075,833.8095885000075,833.8095885000075,833.8095885000075,new_sceneIn_17.png,208,4.0,1.2539055000524968,,048,01,2025-01-31_12h29.20.992,Surprise recog test,2023.1.3,60.05537104025697,
208,0,208,0,,,,,,,,,,,,,,,,,,,,,,,,,,,,,,,,,,838.2883360999986,839.3130241999752,836.0922987000085,836.0922987000085,836.0922987000085,836.0922987000085,new_sceneOut_7.png,209,4.0,2.1990033999900334,,048,01,2025-01-31_12h29.20.992,Surprise recog test,2023.1.3,60.05537104025697,
209,0,209,0,,,,,,,,,,,,,,,,,,,,,,,,,,,,,,,,,,840.6877062999993,841.7141459999839,839.3130241999752,839.3130241999752,839.3130241999752,839.3130241999752,old_stationery_14.png,210,2.0,1.3775213999906555,,048,01,2025-01-31_12h29.20.992,Surprise recog test,2023.1.3,60.05537104025697,
210,0,210,0,,,,,,,,,,,,,,,,,,,,,,,,,,,,,,,,,,843.3934597999905,844.4041410000063,841.7141459999839,841.7141459999839,841.7141459999839,841.7141459999839,old_sceneIn_11.png,211,4.0,1.680365000036545,,048,01,2025-01-31_12h29.20.992,Surprise recog test,2023.1.3,60.05537104025697,
211,0,211,0,,,,,,,,,,,,,,,,,,,,,,,,,,,,,,,,,,847.328901699977,848.3384819999919,844.4041410000063,844.4041410000063,844.4041410000063,844.4041410000063,old_fruit_28.png,212,4.0,2.9181735000456683,,048,01,2025-01-31_12h29.20.992,Surprise recog test,2023.1.3,60.05537104025697,
212,0,212,0,,,,,,,,,,,,,,,,,,,,,,,,,,,,,,,,,,849.8508723999839,850.8580873999745,848.3384819999919,848.3384819999919,848.3384819999919,848.3384819999919,old_sceneIn_19.png,213,4.0,1.504379499994684,,048,01,2025-01-31_12h29.20.992,Surprise recog test,2023.1.3,60.05537104025697,
213,0,213,0,,,,,,,,,,,,,,,,,,,,,,,,,,,,,,,,,,852.8032630999805,853.8082485999912,850.8580873999745,850.8580873999745,850.8580873999745,850.8580873999745,old_fruit_41.png,214,4.0,1.9367746000061743,,048,01,2025-01-31_12h29.20.992,Surprise recog test,2023.1.3,60.05537104025697,
214,0,214,0,,,,,,,,,,,,,,,,,,,,,,,,,,,,,,,,,,856.4562542999629,857.461306000012,853.8082485999912,853.8082485999912,853.8082485999912,853.8082485999912,old_stationery_39.png,215,3.0,2.6379638999933377,,048,01,2025-01-31_12h29.20.992,Surprise recog test,2023.1.3,60.05537104025697,
215,0,215,0,,,,,,,,,,,,,,,,,,,,,,,,,,,,,,,,,,859.5088772000163,860.5139568999875,857.461306000012,857.461306000012,857.461306000012,857.461306000012,old_sceneOut_17.png,216,3.0,2.037532900052611,,048,01,2025-01-31_12h29.20.992,Surprise recog test,2023.1.3,60.05537104025697,
216,0,216,0,,,,,,,,,,,,,,,,,,,,,,,,,,,,,,,,,,863.0283746999921,864.0335173999774,860.5139568999875,860.5139568999875,860.5139568999875,860.5139568999875,new_sceneIn_41.png,217,4.0,2.504761599993799,,048,01,2025-01-31_12h29.20.992,Surprise recog test,2023.1.3,60.05537104025697,
217,0,217,0,,,,,,,,,,,,,,,,,,,,,,,,,,,,,,,,,,865.3970536999987,866.402540799987,864.0335173999774,864.0335173999774,864.0335173999774,864.0335173999774,new_sceneOut_37.png,218,5.0,1.353612900013104,,048,01,2025-01-31_12h29.20.992,Surprise recog test,2023.1.3,60.05537104025697,
218,0,218,0,,,,,,,,,,,,,,,,,,,,,,,,,,,,,,,,,,868.433005800005,869.4399560999591,866.402540799987,866.402540799987,866.402540799987,866.402540799987,new_sceneIn_15.png,219,4.0,2.021299700019881,,048,01,2025-01-31_12h29.20.992,Surprise recog test,2023.1.3,60.05537104025697,
219,0,219,0,,,,,,,,,,,,,,,,,,,,,,,,,,,,,,,,,,871.9692876999616,872.9743867999641,869.4399560999591,869.4399560999591,869.4399560999591,869.4399560999591,new_sceneOut_34.png,220,3.0,2.521020599990152,,048,01,2025-01-31_12h29.20.992,Surprise recog test,2023.1.3,60.05537104025697,
220,0,220,0,,,,,,,,,,,,,,,,,,,,,,,,,,,,,,,,,,875.4387213999871,876.4432275000145,872.9743867999641,872.9743867999641,872.9743867999641,872.9743867999641,old_sceneIn_41.png,221,4.0,2.4549817999941297,,048,01,2025-01-31_12h29.20.992,Surprise recog test,2023.1.3,60.05537104025697,
221,0,221,0,,,,,,,,,,,,,,,,,,,,,,,,,,,,,,,,,,877.7407148999628,878.7451835999964,876.4432275000145,876.4432275000145,876.4432275000145,876.4432275000145,new_fruit_30.png,222,3.0,1.2866273999679834,,048,01,2025-01-31_12h29.20.992,Surprise recog test,2023.1.3,60.05537104025697,
222,0,222,0,,,,,,,,,,,,,,,,,,,,,,,,,,,,,,,,,,880.7431885999977,881.7481724999961,878.7451835999964,878.7451835999964,878.7451835999964,878.7451835999964,new_sceneIn_40.png,223,3.0,1.9877789000165649,,048,01,2025-01-31_12h29.20.992,Surprise recog test,2023.1.3,60.05537104025697,
223,0,223,0,,,,,,,,,,,,,,,,,,,,,,,,,,,,,,,,,,883.5955324000097,884.6012829999672,881.7481724999961,881.7481724999961,881.7481724999961,881.7481724999961,new_sceneOut_50.png,224,4.0,1.8379605999798514,,048,01,2025-01-31_12h29.20.992,Surprise recog test,2023.1.3,60.05537104025697,
224,0,224,0,,,,,,,,,,,,,,,,,,,,,,,,,,,,,,,,,,885.7139341000002,886.7180499999668,884.6012829999672,884.6012829999672,884.6012829999672,884.6012829999672,old_sceneIn_29.png,225,4.0,1.103732499992475,,048,01,2025-01-31_12h29.20.992,Surprise recog test,2023.1.3,60.05537104025697,
225,0,225,0,,,,,,,,,,,,,,,,,,,,,,,,,,,,,,,,,,889.1834954000078,890.1881817000103,886.7180499999668,886.7180499999668,886.7180499999668,886.7180499999668,new_stationery_23.png,226,4.0,2.454429400037043,,048,01,2025-01-31_12h29.20.992,Surprise recog test,2023.1.3,60.05537104025697,
226,0,226,0,,,,,,,,,,,,,,,,,,,,,,,,,,,,,,,,,,893.0204165999894,894.0257710000151,890.1881817000103,890.1881817000103,890.1881817000103,890.1881817000103,new_sceneIn_42.png,227,3.0,2.82202680001501,,048,01,2025-01-31_12h29.20.992,Surprise recog test,2023.1.3,60.05537104025697,
227,0,227,0,,,,,,,,,,,,,,,,,,,,,,,,,,,,,,,,,,895.2045702000032,896.2229009000002,894.0257710000151,894.0257710000151,894.0257710000151,894.0257710000151,new_fruit_46.png,228,3.0,1.176083100028336,,048,01,2025-01-31_12h29.20.992,Surprise recog test,2023.1.3,60.05537104025697,
228,0,228,0,,,,,,,,,,,,,,,,,,,,,,,,,,,,,,,,,,897.7935116000008,,896.2229009000002,896.2229009000002,896.2229009000002,896.2229009000002,new_stationery_1.png,229,2.0,1.5718064999673516,,048,01,2025-01-31_12h29.20.992,Surprise recog test,2023.1.3,60.05537104025697,
229,0,229,0,,,,,,,,,,,,,,,,,,,,,,,,,,,,,,,,,,901.3139259999734,,898.8244799000095,898.8244799000095,898.8244799000095,898.8244799000095,old_fruit_40.png,230,3.0,2.490119899972342,,048,01,2025-01-31_12h29.20.992,Surprise recog test,2023.1.3,60.05537104025697,
230,0,230,0,,,,,,,,,,,,,,,,,,,,,,,,,,,,,,,,,,903.2563487999723,904.2849678999628,902.3457488999702,902.3457488999702,902.3457488999702,902.3457488999702,old_fruit_46.png,231,3.0,0.9115468999953009,,048,01,2025-01-31_12h29.20.992,Surprise recog test,2023.1.3,60.05537104025697,
231,0,231,0,,,,,,,,,,,,,,,,,,,,,,,,,,,,,,,,,,906.1443146999809,907.1672083999729,904.2849678999628,904.2849678999628,904.2849678999628,904.2849678999628,new_sceneOut_12.png,232,3.0,1.8617545000161044,,048,01,2025-01-31_12h29.20.992,Surprise recog test,2023.1.3,60.05537104025697,
232,0,232,0,,,,,,,,,,,,,,,,,,,,,,,,,,,,,,,,,,908.5720982999774,909.6026114000124,907.1672083999729,907.1672083999729,907.1672083999729,907.1672083999729,old_fruit_18.png,233,2.0,1.4046416000346653,,048,01,2025-01-31_12h29.20.992,Surprise recog test,2023.1.3,60.05537104025697,
233,0,233,0,,,,,,,,,,,,,,,,,,,,,,,,,,,,,,,,,,911.7800821000128,912.7940199999721,909.6026114000124,909.6026114000124,909.6026114000124,909.6026114000124,old_fruit_49.png,234,4.0,2.179462100029923,,048,01,2025-01-31_12h29.20.992,Surprise recog test,2023.1.3,60.05537104025697,
234,0,234,0,,,,,,,,,,,,,,,,,,,,,,,,,,,,,,,,,,915.2352619000012,916.2595279999659,912.7940199999721,912.7940199999721,912.7940199999721,912.7940199999721,old_sceneIn_35.png,235,4.0,2.4374014000059105,,048,01,2025-01-31_12h29.20.992,Surprise recog test,2023.1.3,60.05537104025697,
235,0,235,0,,,,,,,,,,,,,,,,,,,,,,,,,,,,,,,,,,917.8896944000153,918.9128968999721,916.2595279999659,916.2595279999659,916.2595279999659,916.2595279999659,old_fruit_32.png,236,4.0,1.6322615000535734,,048,01,2025-01-31_12h29.20.992,Surprise recog test,2023.1.3,60.05537104025697,
236,0,236,0,,,,,,,,,,,,,,,,,,,,,,,,,,,,,,,,,,921.0601330999634,922.0762695000158,918.9128968999721,918.9128968999721,918.9128968999721,918.9128968999721,new_sceneOut_32.png,237,4.0,2.1450256999814883,,048,01,2025-01-31_12h29.20.992,Surprise recog test,2023.1.3,60.05537104025697,
237,0,237,0,,,,,,,,,,,,,,,,,,,,,,,,,,,,,,,,,,925.6439322999795,926.6666532999952,922.0762695000158,922.0762695000158,922.0762695000158,922.0762695000158,old_sceneOut_11.png,238,4.0,3.568708999955561,,048,01,2025-01-31_12h29.20.992,Surprise recog test,2023.1.3,60.05537104025697,
238,0,238,0,,,,,,,,,,,,,,,,,,,,,,,,,,,,,,,,,,928.7486514999764,929.771737699979,926.6666532999952,926.6666532999952,926.6666532999952,926.6666532999952,new_fruit_43.png,239,4.0,2.084401000000071,,048,01,2025-01-31_12h29.20.992,Surprise recog test,2023.1.3,60.05537104025697,
239,0,239,0,,,,,,,,,,,,,,,,,,,,,,,,,,,,,,,,,,931.7396029999945,,929.771737699979,929.771737699979,929.771737699979,929.771737699979,old_sceneIn_31.png,240,4.0,1.9711392999743111,,048,01,2025-01-31_12h29.20.992,Surprise recog test,2023.1.3,60.05537104025697,
240,0,240,0,,,,,,,,,,,,,,,,,,,,,,,,,,,,,,,,,,934.3377767999773,935.3584439000115,932.7715231999755,932.7715231999755,932.7715231999755,932.7715231999755,new_sceneIn_35.png,241,5.0,1.5653604000108317,,048,01,2025-01-31_12h29.20.992,Surprise recog test,2023.1.3,60.05537104025697,
241,0,241,0,,,,,,,,,,,,,,,,,,,,,,,,,,,,,,,,,,936.6490167999873,937.664918800001,935.3584439000115,935.3584439000115,935.3584439000115,935.3584439000115,new_sceneOut_18.png,242,5.0,1.2914971999707632,,048,01,2025-01-31_12h29.20.992,Surprise recog test,2023.1.3,60.05537104025697,
242,0,242,0,,,,,,,,,,,,,,,,,,,,,,,,,,,,,,,,,,939.1293616999756,,937.664918800001,937.664918800001,937.664918800001,937.664918800001,old_fruit_22.png,243,2.0,1.4596444999915548,,048,01,2025-01-31_12h29.20.992,Surprise recog test,2023.1.3,60.05537104025697,
243,0,243,0,,,,,,,,,,,,,,,,,,,,,,,,,,,,,,,,,,942.3484382999595,,940.1493378999876,940.1493378999876,940.1493378999876,940.1493378999876,new_stationery_32.png,244,4.0,2.1950865000253543,,048,01,2025-01-31_12h29.20.992,Surprise recog test,2023.1.3,60.05537104025697,
244,0,244,0,,,,,,,,,,,,,,,,,,,,,,,,,,,,,,,,,,945.2022680999944,946.2220967999892,943.3813438999932,943.3813438999932,943.3813438999932,943.3813438999932,new_stationery_38.png,245,5.0,1.8241212999564596,,048,01,2025-01-31_12h29.20.992,Surprise recog test,2023.1.3,60.05537104025697,
245,0,245,0,,,,,,,,,,,,,,,,,,,,,,,,,,,,,,,,,,948.4111103999894,949.4378858999698,946.2220967999892,946.2220967999892,946.2220967999892,946.2220967999892,old_fruit_35.png,246,3.0,2.18513910000911,,048,01,2025-01-31_12h29.20.992,Surprise recog test,2023.1.3,60.05537104025697,
246,0,246,0,,,,,,,,,,,,,,,,,,,,,,,,,,,,,,,,,,951.1026300999802,952.1102077999967,949.4378858999698,949.4378858999698,949.4378858999698,949.4378858999698,old_sceneIn_10.png,247,3.0,1.6667180999647826,,048,01,2025-01-31_12h29.20.992,Surprise recog test,2023.1.3,60.05537104025697,
247,0,247,0,,,,,,,,,,,,,,,,,,,,,,,,,,,,,,,,,,953.4920574999996,954.5091635999852,952.1102077999967,952.1102077999967,952.1102077999967,952.1102077999967,old_sceneOut_12.png,248,4.0,1.3781424000044353,,048,01,2025-01-31_12h29.20.992,Surprise recog test,2023.1.3,60.05537104025697,
248,0,248,0,,,,,,,,,,,,,,,,,,,,,,,,,,,,,,,,,,955.7767239999957,,954.5091635999852,954.5091635999852,954.5091635999852,954.5091635999852,old_sceneOut_22.png,249,4.0,1.261218200030271,,048,01,2025-01-31_12h29.20.992,Surprise recog test,2023.1.3,60.05537104025697,
249,0,249,0,,,,,,,,,,,,,,,,,,,,,,,,,,,,,,,,,,958.3129944999819,959.3440553999972,956.8008380999672,956.8008380999672,956.8008380999672,956.8008380999672,old_fruit_4.png,250,3.0,1.5122387000010349,,048,01,2025-01-31_12h29.20.992,Surprise recog test,2023.1.3,60.05537104025697,
250,0,250,0,,,,,,,,,,,,,,,,,,,,,,,,,,,,,,,,,,961.272329200001,962.2964733999688,959.3440553999972,959.3440553999972,959.3440553999972,959.3440553999972,new_stationery_18.png,251,4.0,1.9303320999606512,,048,01,2025-01-31_12h29.20.992,Surprise recog test,2023.1.3,60.05537104025697,
251,0,251,0,,,,,,,,,,,,,,,,,,,,,,,,,,,,,,,,,,964.0261704999721,965.0502942000167,962.2964733999688,962.2964733999688,962.2964733999688,962.2964733999688,old_sceneIn_50.png,252,4.0,1.7314949000137858,,048,01,2025-01-31_12h29.20.992,Surprise recog test,2023.1.3,60.05537104025697,
252,0,252,0,,,,,,,,,,,,,,,,,,,,,,,,,,,,,,,,,,966.7994253999786,967.8066621999606,965.0502942000167,965.0502942000167,965.0502942000167,965.0502942000167,old_fruit_29.png,253,3.0,1.751783899962902,,048,01,2025-01-31_12h29.20.992,Surprise recog test,2023.1.3,60.05537104025697,
253,0,253,0,,,,,,,,,,,,,,,,,,,,,,,,,,,,,,,,,,969.5286763999611,970.5430456000031,967.8066621999606,967.8066621999606,967.8066621999606,967.8066621999606,new_sceneIn_38.png,254,4.0,1.7181728999712504,,048,01,2025-01-31_12h29.20.992,Surprise recog test,2023.1.3,60.05537104025697,
254,0,254,0,,,,,,,,,,,,,,,,,,,,,,,,,,,,,,,,,,971.8032784999814,972.8213990000077,970.5430456000031,970.5430456000031,970.5430456000031,970.5430456000031,old_sceneOut_32.png,255,4.0,1.2563879999797791,,048,01,2025-01-31_12h29.20.992,Surprise recog test,2023.1.3,60.05537104025697,
255,0,255,0,,,,,,,,,,,,,,,,,,,,,,,,,,,,,,,,,,974.0180044000153,975.041314299975,972.8213990000077,972.8213990000077,972.8213990000077,972.8213990000077,new_fruit_50.png,256,3.0,1.196266800048761,,048,01,2025-01-31_12h29.20.992,Surprise recog test,2023.1.3,60.05537104025697,
256,0,256,0,,,,,,,,,,,,,,,,,,,,,,,,,,,,,,,,,,978.0407326999702,979.0624514999799,975.041314299975,975.041314299975,975.041314299975,975.041314299975,old_fruit_39.png,257,3.0,3.0002748999977484,,048,01,2025-01-31_12h29.20.992,Surprise recog test,2023.1.3,60.05537104025697,
257,0,257,0,,,,,,,,,,,,,,,,,,,,,,,,,,,,,,,,,,980.871265099966,981.890935399977,979.0624514999799,979.0624514999799,979.0624514999799,979.0624514999799,old_sceneOut_25.png,258,3.0,1.8097449999768287,,048,01,2025-01-31_12h29.20.992,Surprise recog test,2023.1.3,60.05537104025697,
258,0,258,0,,,,,,,,,,,,,,,,,,,,,,,,,,,,,,,,,,984.1010081999702,985.1324871999677,981.890935399977,981.890935399977,981.890935399977,981.890935399977,new_fruit_40.png,259,5.0,2.2113036999944597,,048,01,2025-01-31_12h29.20.992,Surprise recog test,2023.1.3,60.05537104025697,
259,0,259,0,,,,,,,,,,,,,,,,,,,,,,,,,,,,,,,,,,988.1046309999656,989.1237152999965,985.1324871999677,985.1324871999677,985.1324871999677,985.1324871999677,new_sceneOut_31.png,260,3.0,2.974119000020437,,048,01,2025-01-31_12h29.20.992,Surprise recog test,2023.1.3,60.05537104025697,
260,0,260,0,,,,,,,,,,,,,,,,,,,,,,,,,,,,,,,,,,990.4509349999717,991.4726932999911,989.1237152999965,989.1237152999965,989.1237152999965,989.1237152999965,new_fruit_17.png,261,2.0,1.320704699959606,,048,01,2025-01-31_12h29.20.992,Surprise recog test,2023.1.3,60.05537104025697,
261,0,261,0,,,,,,,,,,,,,,,,,,,,,,,,,,,,,,,,,,993.1110773999826,994.1406084999908,991.4726932999911,991.4726932999911,991.4726932999911,991.4726932999911,new_sceneIn_26.png,262,4.0,1.639168499968946,,048,01,2025-01-31_12h29.20.992,Surprise recog test,2023.1.3,60.05537104025697,
262,0,262,0,,,,,,,,,,,,,,,,,,,,,,,,,,,,,,,,,,995.6935279999743,996.7197925999644,994.1406084999908,994.1406084999908,994.1406084999908,994.1406084999908,new_fruit_7.png,263,5.0,1.5558872999972664,,048,01,2025-01-31_12h29.20.992,Surprise recog test,2023.1.3,60.05537104025697,
263,0,263,0,,,,,,,,,,,,,,,,,,,,,,,,,,,,,,,,,,999.772152599995,1000.7944067000062,996.7197925999644,996.7197925999644,996.7197925999644,996.7197925999644,old_stationery_13.png,264,3.0,3.0524147000396624,,048,01,2025-01-31_12h29.20.992,Surprise recog test,2023.1.3,60.05537104025697,
264,0,264,0,,,,,,,,,,,,,,,,,,,,,,,,,,,,,,,,,,1002.2352658999735,1003.2651260999846,1000.7944067000062,1000.7944067000062,1000.7944067000062,1000.7944067000062,new_stationery_46.png,265,4.0,1.442599700007122,,048,01,2025-01-31_12h29.20.992,Surprise recog test,2023.1.3,60.05537104025697,
265,0,265,0,,,,,,,,,,,,,,,,,,,,,,,,,,,,,,,,,,1005.3240227999631,1006.3356870000134,1003.2651260999846,1003.2651260999846,1003.2651260999846,1003.2651260999846,new_sceneOut_25.png,266,4.0,2.062673500040546,,048,01,2025-01-31_12h29.20.992,Surprise recog test,2023.1.3,60.05537104025697,
266,0,266,0,,,,,,,,,,,,,,,,,,,,,,,,,,,,,,,,,,1008.7150769999716,1009.7259701999719,1006.3356870000134,1006.3356870000134,1006.3356870000134,1006.3356870000134,new_sceneOut_21.png,267,3.0,2.3764494999777526,,048,01,2025-01-31_12h29.20.992,Surprise recog test,2023.1.3,60.05537104025697,
267,0,267,0,,,,,,,,,,,,,,,,,,,,,,,,,,,,,,,,,,1012.0962249999866,1013.1177822999889,1009.7259701999719,1009.7259701999719,1009.7259701999719,1009.7259701999719,new_stationery_14.png,268,4.0,2.3657285000081174,,048,01,2025-01-31_12h29.20.992,Surprise recog test,2023.1.3,60.05537104025697,
268,0,268,0,,,,,,,,,,,,,,,,,,,,,,,,,,,,,,,,,,1014.7388083999977,1015.7536594999838,1013.1177822999889,1013.1177822999889,1013.1177822999889,1013.1177822999889,old_sceneOut_31.png,269,4.0,1.6232224999694154,,048,01,2025-01-31_12h29.20.992,Surprise recog test,2023.1.3,60.05537104025697,
269,0,269,0,,,,,,,,,,,,,,,,,,,,,,,,,,,,,,,,,,1017.2067114000092,1018.2260420999955,1015.7536594999838,1015.7536594999838,1015.7536594999838,1015.7536594999838,old_fruit_43.png,270,3.0,1.4538899000035599,,048,01,2025-01-31_12h29.20.992,Surprise recog test,2023.1.3,60.05537104025697,
270,0,270,0,,,,,,,,,,,,,,,,,,,,,,,,,,,,,,,,,,1021.631727,1022.6665648999624,1018.2260420999955,1018.2260420999955,1018.2260420999955,1018.2260420999955,old_stationery_30.png,271,2.0,3.407121600001119,,048,01,2025-01-31_12h29.20.992,Surprise recog test,2023.1.3,60.05537104025697,
271,0,271,0,,,,,,,,,,,,,,,,,,,,,,,,,,,,,,,,,,1024.3960714999703,1025.4041976999724,1022.6665648999624,1022.6665648999624,1022.6665648999624,1022.6665648999624,old_sceneOut_29.png,272,4.0,1.7301394999958575,,048,01,2025-01-31_12h29.20.992,Surprise recog test,2023.1.3,60.05537104025697,
272,0,272,0,,,,,,,,,,,,,,,,,,,,,,,,,,,,,,,,,,1026.3452170999954,1027.3552669999772,1025.4041976999724,1025.4041976999724,1025.4041976999724,1025.4041976999724,new_sceneIn_3.png,273,4.0,0.9366380999563262,,048,01,2025-01-31_12h29.20.992,Surprise recog test,2023.1.3,60.05537104025697,
273,0,273,0,,,,,,,,,,,,,,,,,,,,,,,,,,,,,,,,,,1030.3311563999741,1031.342711300007,1027.3552669999772,1027.3552669999772,1027.3552669999772,1027.3552669999772,old_stationery_22.png,274,5.0,2.9694562000222504,,048,01,2025-01-31_12h29.20.992,Surprise recog test,2023.1.3,60.05537104025697,
274,0,274,0,,,,,,,,,,,,,,,,,,,,,,,,,,,,,,,,,,1034.5471601000172,1035.575140299974,1031.342711300007,1031.342711300007,1031.342711300007,1031.342711300007,old_stationery_27.png,275,3.0,3.200089599995408,,048,01,2025-01-31_12h29.20.992,Surprise recog test,2023.1.3,60.05537104025697,
275,0,275,0,,,,,,,,,,,,,,,,,,,,,,,,,,,,,,,,,,1037.8682742000092,1038.8963458999642,1035.575140299974,1035.575140299974,1035.575140299974,1035.575140299974,new_sceneIn_32.png,276,4.0,2.295424100011587,,048,01,2025-01-31_12h29.20.992,Surprise recog test,2023.1.3,60.05537104025697,
276,0,276,0,,,,,,,,,,,,,,,,,,,,,,,,,,,,,,,,,,1041.3288177999784,,1038.8963458999642,1038.8963458999642,1038.8963458999642,1038.8963458999642,old_sceneIn_16.png,277,4.0,2.435107400000561,,048,01,2025-01-31_12h29.20.992,Surprise recog test,2023.1.3,60.05537104025697,
277,0,277,0,,,,,,,,,,,,,,,,,,,,,,,,,,,,,,,,,,1043.631931699987,,1042.3684380999766,1042.3684380999766,1042.3684380999766,1042.3684380999766,old_fruit_19.png,278,4.0,1.2651597000076436,,048,01,2025-01-31_12h29.20.992,Surprise recog test,2023.1.3,60.05537104025697,
278,0,278,0,,,,,,,,,,,,,,,,,,,,,,,,,,,,,,,,,,1046.180204299977,1047.2009061999852,1044.6652669999748,1044.6652669999748,1044.6652669999748,1044.6652669999748,old_stationery_9.png,279,1.0,1.5173584999865852,,048,01,2025-01-31_12h29.20.992,Surprise recog test,2023.1.3,60.05537104025697,
279,0,279,0,,,,,,,,,,,,,,,,,,,,,,,,,,,,,,,,,,1048.466011099983,1049.488217999984,1047.2009061999852,1047.2009061999852,1047.2009061999852,1047.2009061999852,new_stationery_5.png,280,2.0,1.2657247000024654,,048,01,2025-01-31_12h29.20.992,Surprise recog test,2023.1.3,60.05537104025697,
280,0,280,0,,,,,,,,,,,,,,,,,,,,,,,,,,,,,,,,,,1050.897895800008,1051.9234164999798,1049.488217999984,1049.488217999984,1049.488217999984,1049.488217999984,new_sceneOut_8.png,281,3.0,1.4133875999832526,,048,01,2025-01-31_12h29.20.992,Surprise recog test,2023.1.3,60.05537104025697,
281,0,281,0,,,,,,,,,,,,,,,,,,,,,,,,,,,,,,,,,,1053.2713297000155,1054.2910554999835,1051.9234164999798,1051.9234164999798,1051.9234164999798,1051.9234164999798,old_stationery_48.png,282,1.0,1.3513243999914266,,048,01,2025-01-31_12h29.20.992,Surprise recog test,2023.1.3,60.05537104025697,
282,0,282,0,,,,,,,,,,,,,,,,,,,,,,,,,,,,,,,,,,1055.7250289999647,,1054.2910554999835,1054.2910554999835,1054.2910554999835,1054.2910554999835,old_sceneOut_10.png,283,4.0,1.4386310999980196,,048,01,2025-01-31_12h29.20.992,Surprise recog test,2023.1.3,60.05537104025697,
283,0,283,0,,,,,,,,,,,,,,,,,,,,,,,,,,,,,,,,,,1059.154174199968,1060.1670396999689,1056.7461530999863,1056.7461530999863,1056.7461530999863,1056.7461530999863,new_fruit_10.png,284,4.0,2.4041427999618463,,048,01,2025-01-31_12h29.20.992,Surprise recog test,2023.1.3,60.05537104025697,
284,0,284,0,,,,,,,,,,,,,,,,,,,,,,,,,,,,,,,,,,1061.9343580999994,1062.9524030999746,1060.1670396999689,1060.1670396999689,1060.1670396999689,1060.1670396999689,old_sceneIn_32.png,285,4.0,1.762905600015074,,048,01,2025-01-31_12h29.20.992,Surprise recog test,2023.1.3,60.05537104025697,
285,0,285,0,,,,,,,,,,,,,,,,,,,,,,,,,,,,,,,,,,1064.8900132999988,1065.9162998999818,1062.9524030999746,1062.9524030999746,1062.9524030999746,1062.9524030999746,old_stationery_17.png,286,4.0,1.933619599964004,,048,01,2025-01-31_12h29.20.992,Surprise recog test,2023.1.3,60.05537104025697,
286,0,286,0,,,,,,,,,,,,,,,,,,,,,,,,,,,,,,,,,,1068.2181574999704,,1065.9162998999818,1065.9162998999818,1065.9162998999818,1065.9162998999818,old_sceneIn_39.png,287,3.0,2.2986765000387095,,048,01,2025-01-31_12h29.20.992,Surprise recog test,2023.1.3,60.05537104025697,
287,0,287,0,,,,,,,,,,,,,,,,,,,,,,,,,,,,,,,,,,1071.0702472999692,,1069.2510578999645,1069.2510578999645,1069.2510578999645,1069.2510578999645,new_sceneIn_30.png,288,5.0,1.8214625000255182,,048,01,2025-01-31_12h29.20.992,Surprise recog test,2023.1.3,60.05537104025697,
288,0,288,0,,,,,,,,,,,,,,,,,,,,,,,,,,,,,,,,,,1074.463735600002,1075.4797592000104,1072.1062168999924,1072.1062168999924,1072.1062168999924,1072.1062168999924,old_stationery_24.png,289,3.0,2.3604561000247486,,048,01,2025-01-31_12h29.20.992,Surprise recog test,2023.1.3,60.05537104025697,
289,0,289,0,,,,,,,,,,,,,,,,,,,,,,,,,,,,,,,,,,1077.8155228999676,1078.8322705999599,1075.4797592000104,1075.4797592000104,1075.4797592000104,1075.4797592000104,new_sceneOut_14.png,290,3.0,2.33104210003512,,048,01,2025-01-31_12h29.20.992,Surprise recog test,2023.1.3,60.05537104025697,
290,0,290,0,,,,,,,,,,,,,,,,,,,,,,,,,,,,,,,,,,1080.4707067999989,1081.4859226999688,1078.8322705999599,1078.8322705999599,1078.8322705999599,1078.8322705999599,new_sceneIn_28.png,291,2.0,1.6343688999768347,,048,01,2025-01-31_12h29.20.992,Surprise recog test,2023.1.3,60.05537104025697,
291,0,291,0,,,,,,,,,,,,,,,,,,,,,,,,,,,,,,,,,,1082.944753399992,1083.9496509999735,1081.4859226999688,1081.4859226999688,1081.4859226999688,1081.4859226999688,old_fruit_3.png,292,3.0,1.4510261999676004,,048,01,2025-01-31_12h29.20.992,Surprise recog test,2023.1.3,60.05537104025697,
292,0,292,0,,,,,,,,,,,,,,,,,,,,,,,,,,,,,,,,,,1085.360973200004,1086.3830632999889,1083.9496509999735,1083.9496509999735,1083.9496509999735,1083.9496509999735,new_fruit_37.png,293,3.0,1.4077128000208177,,048,01,2025-01-31_12h29.20.992,Surprise recog test,2023.1.3,60.05537104025697,
293,0,293,0,,,,,,,,,,,,,,,,,,,,,,,,,,,,,,,,,,1088.2561133999843,1089.2855768000009,1086.3830632999889,1086.3830632999889,1086.3830632999889,1086.3830632999889,new_sceneOut_46.png,294,3.0,1.8758092999923974,,048,01,2025-01-31_12h29.20.992,Surprise recog test,2023.1.3,60.05537104025697,
294,0,294,0,,,,,,,,,,,,,,,,,,,,,,,,,,,,,,,,,,1091.8477043000166,1092.8714429999818,1089.2855768000009,1089.2855768000009,1089.2855768000009,1089.2855768000009,new_fruit_29.png,295,4.0,2.5619900000165217,,048,01,2025-01-31_12h29.20.992,Surprise recog test,2023.1.3,60.05537104025697,
295,0,295,0,,,,,,,,,,,,,,,,,,,,,,,,,,,,,,,,,,1094.8879775999812,1095.9079449999845,1092.8714429999818,1092.8714429999818,1092.8714429999818,1092.8714429999818,new_sceneIn_25.png,296,4.0,2.011647700041067,,048,01,2025-01-31_12h29.20.992,Surprise recog test,2023.1.3,60.05537104025697,
296,0,296,0,,,,,,,,,,,,,,,,,,,,,,,,,,,,,,,,,,1097.4467426000047,1098.4767944999621,1095.9079449999845,1095.9079449999845,1095.9079449999845,1095.9079449999845,old_sceneIn_6.png,297,5.0,1.540042500011623,,048,01,2025-01-31_12h29.20.992,Surprise recog test,2023.1.3,60.05537104025697,
297,0,297,0,,,,,,,,,,,,,,,,,,,,,,,,,,,,,,,,,,1099.585765899974,1100.6151486000163,1098.4767944999621,1098.4767944999621,1098.4767944999621,1098.4767944999621,new_sceneIn_46.png,298,5.0,1.1101685000467114,,048,01,2025-01-31_12h29.20.992,Surprise recog test,2023.1.3,60.05537104025697,
298,0,298,0,,,,,,,,,,,,,,,,,,,,,,,,,,,,,,,,,,1103.0260480999714,1104.0519475999754,1100.6151486000163,1100.6151486000163,1100.6151486000163,1100.6151486000163,old_sceneOut_28.png,299,4.0,2.412838299991563,,048,01,2025-01-31_12h29.20.992,Surprise recog test,2023.1.3,60.05537104025697,
299,0,299,0,,,,,,,,,,,,,,,,,,,,,,,,,,,,,,,,,,1105.923043799994,1106.93897139997,1104.0519475999754,1104.0519475999754,1104.0519475999754,1104.0519475999754,new_sceneIn_6.png,300,5.0,1.873555199999828,,048,01,2025-01-31_12h29.20.992,Surprise recog test,2023.1.3,60.05537104025697,
300,0,300,0,,,,,,,,,,,,,,,,,,,,,,,,,,,,,,,,,,1108.4022930999636,,1106.93897139997,1106.93897139997,1106.93897139997,1106.93897139997,old_stationery_35.png,301,1.0,1.4598673000000417,,048,01,2025-01-31_12h29.20.992,Surprise recog test,2023.1.3,60.05537104025697,
301,0,301,0,,,,,,,,,,,,,,,,,,,,,,,,,,,,,,,,,,1110.7593955000048,1111.7752776999841,1109.4367238999694,1109.4367238999694,1109.4367238999694,1109.4367238999694,old_stationery_34.png,302,1.0,1.3216338000493124,,048,01,2025-01-31_12h29.20.992,Surprise recog test,2023.1.3,60.05537104025697,
302,0,302,0,,,,,,,,,,,,,,,,,,,,,,,,,,,,,,,,,,1113.8642846000148,1114.8934029999655,1111.7752776999841,1111.7752776999841,1111.7752776999841,1111.7752776999841,new_sceneIn_45.png,303,4.0,2.081342499994207,,048,01,2025-01-31_12h29.20.992,Surprise recog test,2023.1.3,60.05537104025697,
303,0,303,0,,,,,,,,,,,,,,,,,,,,,,,,,,,,,,,,,,1116.4891283999896,1117.5024132999824,1114.8934029999655,1114.8934029999655,1114.8934029999655,1114.8934029999655,old_sceneIn_3.png,304,4.0,1.6000307999784127,,048,01,2025-01-31_12h29.20.992,Surprise recog test,2023.1.3,60.05537104025697,
304,0,304,0,,,,,,,,,,,,,,,,,,,,,,,,,,,,,,,,,,1119.0101697999635,,1117.5024132999824,1117.5024132999824,1117.5024132999824,1117.5024132999824,new_sceneOut_24.png,305,3.0,1.5044794999994338,,048,01,2025-01-31_12h29.20.992,Surprise recog test,2023.1.3,60.05537104025697,
305,0,305,0,,,,,,,,,,,,,,,,,,,,,,,,,,,,,,,,,,1122.5444787999731,1123.5630844999687,1120.0440938000102,1120.0440938000102,1120.0440938000102,1120.0440938000102,old_fruit_16.png,306,3.0,2.4990499999839813,,048,01,2025-01-31_12h29.20.992,Surprise recog test,2023.1.3,60.05537104025697,
306,0,306,0,,,,,,,,,,,,,,,,,,,,,,,,,,,,,,,,,,1125.2023269999772,1126.2279524999904,1123.5630844999687,1123.5630844999687,1123.5630844999687,1123.5630844999687,new_stationery_40.png,307,4.0,1.6417433000169694,,048,01,2025-01-31_12h29.20.992,Surprise recog test,2023.1.3,60.05537104025697,
307,0,307,0,,,,,,,,,,,,,,,,,,,,,,,,,,,,,,,,,,1128.7647589999833,1129.7732278999756,1126.2279524999904,1126.2279524999904,1126.2279524999904,1126.2279524999904,old_sceneOut_26.png,308,3.0,2.5381635999656282,,048,01,2025-01-31_12h29.20.992,Surprise recog test,2023.1.3,60.05537104025697,
308,0,308,0,,,,,,,,,,,,,,,,,,,,,,,,,,,,,,,,,,1132.3174969999818,1133.3385291000013,1129.7732278999756,1129.7732278999756,1129.7732278999756,1129.7732278999756,new_fruit_13.png,309,4.0,2.540528899990022,,048,01,2025-01-31_12h29.20.992,Surprise recog test,2023.1.3,60.05537104025697,
309,0,309,0,,,,,,,,,,,,,,,,,,,,,,,,,,,,,,,,,,1135.4844645999838,1136.5090371000115,1133.3385291000013,1133.3385291000013,1133.3385291000013,1133.3385291000013,old_fruit_15.png,310,3.0,2.148041100008413,,048,01,2025-01-31_12h29.20.992,Surprise recog test,2023.1.3,60.05537104025697,
310,0,310,0,,,,,,,,,,,,,,,,,,,,,,,,,,,,,,,,,,1138.0958497999818,1139.122423199995,1136.5090371000115,1136.5090371000115,1136.5090371000115,1136.5090371000115,old_stationery_3.png,311,1.0,1.5890071000321768,,048,01,2025-01-31_12h29.20.992,Surprise recog test,2023.1.3,60.05537104025697,
311,0,311,0,,,,,,,,,,,,,,,,,,,,,,,,,,,,,,,,,,1140.7997201000107,1141.8305784999975,1139.122423199995,1139.122423199995,1139.122423199995,1139.122423199995,new_sceneOut_47.png,312,2.0,1.6784447999671102,,048,01,2025-01-31_12h29.20.992,Surprise recog test,2023.1.3,60.05537104025697,
312,0,312,0,,,,,,,,,,,,,,,,,,,,,,,,,,,,,,,,,,1143.9380721999914,1144.9660030999803,1141.8305784999975,1141.8305784999975,1141.8305784999975,1141.8305784999975,new_fruit_4.png,313,3.0,2.108930300048087,,048,01,2025-01-31_12h29.20.992,Surprise recog test,2023.1.3,60.05537104025697,
313,0,313,0,,,,,,,,,,,,,,,,,,,,,,,,,,,,,,,,,,1149.0987756999675,1150.1081238999614,1144.9660030999803,1144.9660030999803,1144.9660030999803,1144.9660030999803,old_stationery_7.png,314,4.0,4.134807800000999,,048,01,2025-01-31_12h29.20.992,Surprise recog test,2023.1.3,60.05537104025697,
314,0,314,0,,,,,,,,,,,,,,,,,,,,,,,,,,,,,,,,,,1151.6353870999883,1152.6496428999817,1150.1081238999614,1150.1081238999614,1150.1081238999614,1150.1081238999614,new_sceneIn_23.png,315,3.0,1.521675999974832,,048,01,2025-01-31_12h29.20.992,Surprise recog test,2023.1.3,60.05537104025697,
315,0,315,0,,,,,,,,,,,,,,,,,,,,,,,,,,,,,,,,,,1154.095737399999,1155.123817899963,1152.6496428999817,1152.6496428999817,1152.6496428999817,1152.6496428999817,new_fruit_39.png,316,4.0,1.4387188000255264,,048,01,2025-01-31_12h29.20.992,Surprise recog test,2023.1.3,60.05537104025697,
316,0,316,0,,,,,,,,,,,,,,,,,,,,,,,,,,,,,,,,,,1156.8913464999641,1157.9120818999945,1155.123817899963,1155.123817899963,1155.123817899963,1155.123817899963,new_sceneOut_36.png,317,4.0,1.767012300028,,048,01,2025-01-31_12h29.20.992,Surprise recog test,2023.1.3,60.05537104025697,
317,0,317,0,,,,,,,,,,,,,,,,,,,,,,,,,,,,,,,,,,1161.4639190000016,,1157.9120818999945,1157.9120818999945,1157.9120818999945,1157.9120818999945,new_sceneIn_8.png,318,4.0,3.551971599983517,,048,01,2025-01-31_12h29.20.992,Surprise recog test,2023.1.3,60.05537104025697,
318,0,318,0,,,,,,,,,,,,,,,,,,,,,,,,,,,,,,,,,,1164.8088447999908,1165.832460000005,1162.4958426000085,1162.4958426000085,1162.4958426000085,1162.4958426000085,new_stationery_2.png,319,5.0,2.3150819999864325,,048,01,2025-01-31_12h29.20.992,Surprise recog test,2023.1.3,60.05537104025697,
319,0,319,0,,,,,,,,,,,,,,,,,,,,,,,,,,,,,,,,,,1167.5648864000104,1168.5861204999965,1165.832460000005,1165.832460000005,1165.832460000005,1165.832460000005,old_sceneIn_18.png,320,4.0,1.73438639997039,,048,01,2025-01-31_12h29.20.992,Surprise recog test,2023.1.3,60.05537104025697,
320,0,320,0,,,,,,,,,,,,,,,,,,,,,,,,,,,,,,,,,,1169.8341203000164,1170.850418499962,1168.5861204999965,1168.5861204999965,1168.5861204999965,1168.5861204999965,new_sceneOut_49.png,321,4.0,1.2492837999598123,,048,01,2025-01-31_12h29.20.992,Surprise recog test,2023.1.3,60.05537104025697,
321,0,321,0,,,,,,,,,,,,,,,,,,,,,,,,,,,,,,,,,,1171.707341899979,1172.7247121999972,1170.850418499962,1170.850418499962,1170.850418499962,1170.850418499962,old_sceneIn_24.png,322,4.0,0.8564174000057392,,048,01,2025-01-31_12h29.20.992,Surprise recog test,2023.1.3,60.05537104025697,
322,0,322,0,,,,,,,,,,,,,,,,,,,,,,,,,,,,,,,,,,1174.298369599972,1175.3247718999628,1172.7247121999972,1172.7247121999972,1172.7247121999972,1172.7247121999972,old_sceneIn_7.png,323,5.0,1.570987300015986,,048,01,2025-01-31_12h29.20.992,Surprise recog test,2023.1.3,60.05537104025697,
323,0,323,0,,,,,,,,,,,,,,,,,,,,,,,,,,,,,,,,,,1176.3968913999852,1177.4113104999997,1175.3247718999628,1175.3247718999628,1175.3247718999628,1175.3247718999628,old_sceneIn_46.png,324,4.0,1.0711331999627873,,048,01,2025-01-31_12h29.20.992,Surprise recog test,2023.1.3,60.05537104025697,
324,0,324,0,,,,,,,,,,,,,,,,,,,,,,,,,,,,,,,,,,1179.3798698000028,1180.4124577000039,1177.4113104999997,1177.4113104999997,1177.4113104999997,1177.4113104999997,old_fruit_2.png,325,2.0,1.9653416000073776,,048,01,2025-01-31_12h29.20.992,Surprise recog test,2023.1.3,60.05537104025697,
325,0,325,0,,,,,,,,,,,,,,,,,,,,,,,,,,,,,,,,,,1183.0864894000115,1184.1062418000074,1180.4124577000039,1180.4124577000039,1180.4124577000039,1180.4124577000039,new_fruit_32.png,326,4.0,2.677497599972412,,048,01,2025-01-31_12h29.20.992,Surprise recog test,2023.1.3,60.05537104025697,
326,0,326,0,,,,,,,,,,,,,,,,,,,,,,,,,,,,,,,,,,1185.3859715000144,1186.4138517999672,1184.1062418000074,1184.1062418000074,1184.1062418000074,1184.1062418000074,new_fruit_42.png,327,4.0,1.2754338999511674,,048,01,2025-01-31_12h29.20.992,Surprise recog test,2023.1.3,60.05537104025697,
327,0,327,0,,,,,,,,,,,,,,,,,,,,,,,,,,,,,,,,,,1188.048575999972,1189.0568006999674,1186.4138517999672,1186.4138517999672,1186.4138517999672,1186.4138517999672,new_sceneIn_13.png,328,5.0,1.6373028000234626,,048,01,2025-01-31_12h29.20.992,Surprise recog test,2023.1.3,60.05537104025697,
328,0,328,0,,,,,,,,,,,,,,,,,,,,,,,,,,,,,,,,,,1191.7947920999723,1192.823474099976,1189.0568006999674,1189.0568006999674,1189.0568006999674,1189.0568006999674,old_fruit_12.png,329,3.0,2.734472200041637,,048,01,2025-01-31_12h29.20.992,Surprise recog test,2023.1.3,60.05537104025697,
329,0,329,0,,,,,,,,,,,,,,,,,,,,,,,,,,,,,,,,,,1194.7631726000109,1195.7891426999704,1192.823474099976,1192.823474099976,1192.823474099976,1192.823474099976,old_stationery_47.png,330,3.0,1.939095699985046,,048,01,2025-01-31_12h29.20.992,Surprise recog test,2023.1.3,60.05537104025697,
330,0,330,0,,,,,,,,,,,,,,,,,,,,,,,,,,,,,,,,,,1196.9572052999865,1197.9646632999647,1195.7891426999704,1195.7891426999704,1195.7891426999704,1195.7891426999704,old_sceneOut_7.png,331,4.0,1.171199600037653,,048,01,2025-01-31_12h29.20.992,Surprise recog test,2023.1.3,60.05537104025697,
331,0,331,0,,,,,,,,,,,,,,,,,,,,,,,,,,,,,,,,,,1199.1734116000007,1200.1935412000166,1197.9646632999647,1197.9646632999647,1197.9646632999647,1197.9646632999647,new_fruit_1.png,332,3.0,1.2046723999665119,,048,01,2025-01-31_12h29.20.992,Surprise recog test,2023.1.3,60.05537104025697,
332,0,332,0,,,,,,,,,,,,,,,,,,,,,,,,,,,,,,,,,,1201.4987443999853,1202.5188012999715,1200.1935412000166,1200.1935412000166,1200.1935412000166,1200.1935412000166,old_fruit_1.png,333,4.0,1.305504500051029,,048,01,2025-01-31_12h29.20.992,Surprise recog test,2023.1.3,60.05537104025697,
333,0,333,0,,,,,,,,,,,,,,,,,,,,,,,,,,,,,,,,,,1204.0621334000025,1205.0814199000015,1202.5188012999715,1202.5188012999715,1202.5188012999715,1202.5188012999715,new_fruit_18.png,334,4.0,1.5369427999830805,,048,01,2025-01-31_12h29.20.992,Surprise recog test,2023.1.3,60.05537104025697,
334,0,334,0,,,,,,,,,,,,,,,,,,,,,,,,,,,,,,,,,,1206.9567148999777,1207.9867417999776,1205.0814199000015,1205.0814199000015,1205.0814199000015,1205.0814199000015,new_sceneOut_3.png,335,4.0,1.8773059000377543,,048,01,2025-01-31_12h29.20.992,Surprise recog test,2023.1.3,60.05537104025697,
335,0,335,0,,,,,,,,,,,,,,,,,,,,,,,,,,,,,,,,,,1211.0142645000014,1212.0400481999968,1207.9867417999776,1207.9867417999776,1207.9867417999776,1207.9867417999776,new_fruit_19.png,336,4.0,3.027225300029386,,048,01,2025-01-31_12h29.20.992,Surprise recog test,2023.1.3,60.05537104025697,
336,0,336,0,,,,,,,,,,,,,,,,,,,,,,,,,,,,,,,,,,1214.038720600016,,1212.0400481999968,1212.0400481999968,1212.0400481999968,1212.0400481999968,new_sceneIn_44.png,337,4.0,2.000160700001288,,048,01,2025-01-31_12h29.20.992,Surprise recog test,2023.1.3,60.05537104025697,
337,0,337,0,,,,,,,,,,,,,,,,,,,,,,,,,,,,,,,,,,1216.63214349997,1217.6557120999787,1215.0579908000072,1215.0579908000072,1215.0579908000072,1215.0579908000072,old_fruit_13.png,338,2.0,1.5694779999903403,,048,01,2025-01-31_12h29.20.992,Surprise recog test,2023.1.3,60.05537104025697,
338,0,338,0,,,,,,,,,,,,,,,,,,,,,,,,,,,,,,,,,,1219.699992400012,1220.7285839999677,1217.6557120999787,1217.6557120999787,1217.6557120999787,1217.6557120999787,old_fruit_8.png,339,2.0,2.0449184000026435,,048,01,2025-01-31_12h29.20.992,Surprise recog test,2023.1.3,60.05537104025697,
339,0,339,0,,,,,,,,,,,,,,,,,,,,,,,,,,,,,,,,,,1222.859924199991,1223.8839424999896,1220.7285839999677,1220.7285839999677,1220.7285839999677,1220.7285839999677,old_sceneIn_47.png,340,5.0,2.1307178999995813,,048,01,2025-01-31_12h29.20.992,Surprise recog test,2023.1.3,60.05537104025697,
340,0,340,0,,,,,,,,,,,,,,,,,,,,,,,,,,,,,,,,,,1225.3629959999816,1226.3716958999867,1223.8839424999896,1223.8839424999896,1223.8839424999896,1223.8839424999896,new_fruit_38.png,341,4.0,1.4818154000095092,,048,01,2025-01-31_12h29.20.992,Surprise recog test,2023.1.3,60.05537104025697,
341,0,341,0,,,,,,,,,,,,,,,,,,,,,,,,,,,,,,,,,,1227.7984243999817,1228.814173699997,1226.3716958999867,1226.3716958999867,1226.3716958999867,1226.3716958999867,new_stationery_13.png,342,4.0,1.4144419000367634,,048,01,2025-01-31_12h29.20.992,Surprise recog test,2023.1.3,60.05537104025697,
342,0,342,0,,,,,,,,,,,,,,,,,,,,,,,,,,,,,,,,,,1231.0319260999677,1232.0550220999867,1228.814173699997,1228.814173699997,1228.814173699997,1228.814173699997,old_stationery_31.png,343,2.0,2.2188252999912947,,048,01,2025-01-31_12h29.20.992,Surprise recog test,2023.1.3,60.05537104025697,
343,0,343,0,,,,,,,,,,,,,,,,,,,,,,,,,,,,,,,,,,1235.4311449999805,1236.456927399966,1232.0550220999867,1232.0550220999867,1232.0550220999867,1232.0550220999867,new_stationery_9.png,344,3.0,3.376360000052955,,048,01,2025-01-31_12h29.20.992,Surprise recog test,2023.1.3,60.05537104025697,
344,0,344,0,,,,,,,,,,,,,,,,,,,,,,,,,,,,,,,,,,1237.753319600015,1238.765692099987,1236.456927399966,1236.456927399966,1236.456927399966,1236.456927399966,new_stationery_17.png,345,4.0,1.295808400027454,,048,01,2025-01-31_12h29.20.992,Surprise recog test,2023.1.3,60.05537104025697,
345,0,345,0,,,,,,,,,,,,,,,,,,,,,,,,,,,,,,,,,,1240.504979499965,1241.5306445999886,1238.765692099987,1238.765692099987,1238.765692099987,1238.765692099987,new_sceneOut_45.png,346,3.0,1.7335988999693654,,048,01,2025-01-31_12h29.20.992,Surprise recog test,2023.1.3,60.05537104025697,
346,0,346,0,,,,,,,,,,,,,,,,,,,,,,,,,,,,,,,,,,1242.870966699964,1243.8874603000004,1241.5306445999886,1241.5306445999886,1241.5306445999886,1241.5306445999886,new_sceneOut_23.png,347,5.0,1.342798399971798,,048,01,2025-01-31_12h29.20.992,Surprise recog test,2023.1.3,60.05537104025697,
347,0,347,0,,,,,,,,,,,,,,,,,,,,,,,,,,,,,,,,,,1245.0063385000103,1246.0282443999895,1243.8874603000004,1243.8874603000004,1243.8874603000004,1243.8874603000004,new_sceneIn_47.png,348,5.0,1.1150465999962762,,048,01,2025-01-31_12h29.20.992,Surprise recog test,2023.1.3,60.05537104025697,
348,0,348,0,,,,,,,,,,,,,,,,,,,,,,,,,,,,,,,,,,1247.7691400999902,,1246.0282443999895,1246.0282443999895,1246.0282443999895,1246.0282443999895,old_stationery_49.png,349,1.0,1.7407925000297837,,048,01,2025-01-31_12h29.20.992,Surprise recog test,2023.1.3,60.05537104025697,
349,0,349,0,,,,,,,,,,,,,,,,,,,,,,,,,,,,,,,,,,1251.2327936000074,1252.2565879999893,1248.8003613000037,1248.8003613000037,1248.8003613000037,1248.8003613000037,new_sceneIn_21.png,350,4.0,2.433312200009823,,048,01,2025-01-31_12h29.20.992,Surprise recog test,2023.1.3,60.05537104025697,
350,0,350,0,,,,,,,,,,,,,,,,,,,,,,,,,,,,,,,,,,1254.0599005999975,1255.085583899985,1252.2565879999893,1252.2565879999893,1252.2565879999893,1252.2565879999893,new_sceneOut_38.png,351,4.0,1.8044742999481969,,048,01,2025-01-31_12h29.20.992,Surprise recog test,2023.1.3,60.05537104025697,
351,0,351,0,,,,,,,,,,,,,,,,,,,,,,,,,,,,,,,,,,1256.7285482999869,1257.757639999967,1255.085583899985,1255.085583899985,1255.085583899985,1255.085583899985,new_fruit_23.png,352,4.0,1.6449681000085548,,048,01,2025-01-31_12h29.20.992,Surprise recog test,2023.1.3,60.05537104025697,
352,0,352,0,,,,,,,,,,,,,,,,,,,,,,,,,,,,,,,,,,1259.0838986000163,1260.112003999995,1257.757639999967,1257.757639999967,1257.757639999967,1257.757639999967,new_sceneIn_27.png,353,4.0,1.3284294999903068,,048,01,2025-01-31_12h29.20.992,Surprise recog test,2023.1.3,60.05537104025697,
353,0,353,0,,,,,,,,,,,,,,,,,,,,,,,,,,,,,,,,,,1261.8281905999756,1262.846396500012,1260.112003999995,1260.112003999995,1260.112003999995,1260.112003999995,old_sceneIn_20.png,354,4.0,1.7156850000028498,,048,01,2025-01-31_12h29.20.992,Surprise recog test,2023.1.3,60.05537104025697,
