trial_loop.thisRepN,trial_loop.thisTrialN,trial_loop.thisN,trial_loop.thisIndex,VAS_slider.started,VAS_text.started,VAS_notstressed_text.started,VAS_stressed_text.started,continue_input.started,continue_text.started,label0.started,label10.started,label20.started,label30.started,label40.started,label50.started,label60.started,label70.started,label80.started,label90.started,label100.started,VAS_slider.response,VAS_slider.rt,VAS_slider.history,Answer_VAS,continue_input.keys,instruction_text.started,continue_text_2.started,continue_input_2.started,continue_input_2.keys,continue_input_2.rt,continue_input_2.duration,example_text.started,example_slider_2.started,example_image.started,example_slider_2.response,example_slider_2.rt,fixcross.started,fixcross.stopped,front_square.started,stim_images.started,trial_inst_images.started,slider_images.started,thisImg,trial_count,slider_images.response,slider_images.rt,slider_images.stopped,outro.started,participant,condition,date,expName,psychopyVersion,frameRate,
,,,,473.96886799999993,473.96886799999993,473.96886799999993,473.96886799999993,473.96886799999993,473.96886799999993,473.96886799999993,473.96886799999993,473.96886799999993,473.96886799999993,473.96886799999993,473.96886799999993,473.96886799999993,473.96886799999993,473.96886799999993,473.96886799999993,473.96886799999993,1.0222222222222221,7.08069549999982,"[(1.0222222222222221, 7.08069549999982)]",1.0222222222222221,None,,,,,,,,,,,,,,,,,,,,,,,,049,11,2025-02-13_14h00.05.288,Surprise recog test,2023.1.3,59.95282911387513,
,,,,,,,,,,,,,,,,,,,,,,,,,,481.0849382000006,481.0849382000006,481.0849382000006,space,22.233263699999043,None,,,,,,,,,,,,,,,,,,049,11,2025-02-13_14h00.05.288,Surprise recog test,2023.1.3,59.95282911387513,
0,0,0,0,,,,,,,,,,,,,,,,,,,,,,,,,,,,,503.4502237000006,503.4502237000006,503.4502237000006,5.0,5.813219800000297,512.5188788000005,513.5349031000005,510.23041170000033,510.23041170000033,510.23041170000033,510.23041170000033,new_sceneOut_33.png,1,1.0,2.289215300000251,,,049,11,2025-02-13_14h00.05.288,Surprise recog test,2023.1.3,59.95282911387513,
1,0,1,0,,,,,,,,,,,,,,,,,,,,,,,,,,,,,,,,,,518.5410902000003,,513.5349031000005,513.5349031000005,513.5349031000005,513.5349031000005,new_stationery_35.png,2,None,None,518.5257766000004,,049,11,2025-02-13_14h00.05.288,Surprise recog test,2023.1.3,59.95282911387513,
2,0,2,0,,,,,,,,,,,,,,,,,,,,,,,,,,,,,,,,,,521.7038099000001,522.7278772,519.5590558000004,519.5590558000004,519.5590558000004,519.5590558000004,old_sceneIn_16.png,3,5.0,2.1455220999996527,,,049,11,2025-02-13_14h00.05.288,Surprise recog test,2023.1.3,59.95282911387513,
3,0,3,0,,,,,,,,,,,,,,,,,,,,,,,,,,,,,,,,,,524.5383842000001,525.5630252999999,522.7278772,522.7278772,522.7278772,522.7278772,new_stationery_9.png,4,4.0,1.8124647000004188,,,049,11,2025-02-13_14h00.05.288,Surprise recog test,2023.1.3,59.95282911387513,
4,0,4,0,,,,,,,,,,,,,,,,,,,,,,,,,,,,,,,,,,527.1264541,528.1526499000001,525.5630252999999,525.5630252999999,525.5630252999999,525.5630252999999,old_fruit_46.png,5,4.0,1.564277999999831,,,049,11,2025-02-13_14h00.05.288,Surprise recog test,2023.1.3,59.95282911387513,
5,0,5,0,,,,,,,,,,,,,,,,,,,,,,,,,,,,,,,,,,530.1247676000003,531.154536,528.1526499000001,528.1526499000001,528.1526499000001,528.1526499000001,old_fruit_34.png,6,1.0,1.9743491999997786,,,049,11,2025-02-13_14h00.05.288,Surprise recog test,2023.1.3,59.95282911387513,
6,0,6,0,,,,,,,,,,,,,,,,,,,,,,,,,,,,,,,,,,532.78064,533.8048416000001,531.154536,531.154536,531.154536,531.154536,new_stationery_48.png,7,5.0,1.6263135999997758,,,049,11,2025-02-13_14h00.05.288,Surprise recog test,2023.1.3,59.95282911387513,
7,0,7,0,,,,,,,,,,,,,,,,,,,,,,,,,,,,,,,,,,534.8712003999999,535.8905804000005,533.8048416000001,533.8048416000001,533.8048416000001,533.8048416000001,new_fruit_4.png,8,5.0,1.067557399999714,,,049,11,2025-02-13_14h00.05.288,Surprise recog test,2023.1.3,59.95282911387513,
8,0,8,0,,,,,,,,,,,,,,,,,,,,,,,,,,,,,,,,,,538.2094800000004,,535.8905804000005,535.8905804000005,535.8905804000005,535.8905804000005,new_fruit_14.png,9,5.0,2.3191249999999854,,,049,11,2025-02-13_14h00.05.288,Surprise recog test,2023.1.3,59.95282911387513,
9,0,9,0,,,,,,,,,,,,,,,,,,,,,,,,,,,,,,,,,,540.8787390000007,,539.2467987,539.2467987,539.2467987,539.2467987,new_fruit_21.png,10,1.0,1.6353819999994812,,,049,11,2025-02-13_14h00.05.288,Surprise recog test,2023.1.3,59.95282911387513,
10,0,10,0,,,,,,,,,,,,,,,,,,,,,,,,,,,,,,,,,,543.5066199000003,544.5178696000003,541.9127588000001,541.9127588000001,541.9127588000001,541.9127588000001,old_sceneOut_25.png,11,1.0,1.595678499999849,,,049,11,2025-02-13_14h00.05.288,Surprise recog test,2023.1.3,59.95282911387513,
11,0,11,0,,,,,,,,,,,,,,,,,,,,,,,,,,,,,,,,,,545.8313202999998,546.8547411,544.5178696000003,544.5178696000003,544.5178696000003,544.5178696000003,new_sceneIn_36.png,12,1.0,1.3052874000004522,,,049,11,2025-02-13_14h00.05.288,Surprise recog test,2023.1.3,59.95282911387513,
12,0,12,0,,,,,,,,,,,,,,,,,,,,,,,,,,,,,,,,,,548.1918203000005,549.2167754000002,546.8547411,546.8547411,546.8547411,546.8547411,old_stationery_21.png,13,4.0,1.3403925000002346,,,049,11,2025-02-13_14h00.05.288,Surprise recog test,2023.1.3,59.95282911387513,
13,0,13,0,,,,,,,,,,,,,,,,,,,,,,,,,,,,,,,,,,550.9733148000005,552.0046575000006,549.2167754000002,549.2167754000002,549.2167754000002,549.2167754000002,new_stationery_7.png,14,5.0,1.7578413000001092,,,049,11,2025-02-13_14h00.05.288,Surprise recog test,2023.1.3,59.95282911387513,
14,0,14,0,,,,,,,,,,,,,,,,,,,,,,,,,,,,,,,,,,555.1953545000006,556.2245287000005,552.0046575000006,552.0046575000006,552.0046575000006,552.0046575000006,new_sceneIn_50.png,15,4.0,3.191325300000244,,,049,11,2025-02-13_14h00.05.288,Surprise recog test,2023.1.3,59.95282911387513,
15,0,15,0,,,,,,,,,,,,,,,,,,,,,,,,,,,,,,,,,,558.2906008999998,559.3123235000003,556.2245287000005,556.2245287000005,556.2245287000005,556.2245287000005,old_stationery_18.png,16,1.0,2.065424399999756,,,049,11,2025-02-13_14h00.05.288,Surprise recog test,2023.1.3,59.95282911387513,
16,0,16,0,,,,,,,,,,,,,,,,,,,,,,,,,,,,,,,,,,560.9639742999998,,559.3123235000003,559.3123235000003,559.3123235000003,559.3123235000003,new_stationery_43.png,17,5.0,1.652583400000367,,,049,11,2025-02-13_14h00.05.288,Surprise recog test,2023.1.3,59.95282911387513,
17,0,17,0,,,,,,,,,,,,,,,,,,,,,,,,,,,,,,,,,,563.7972845000004,,561.9962340000002,561.9962340000002,561.9962340000002,561.9962340000002,new_stationery_24.png,18,3.0,1.80386770000041,,,049,11,2025-02-13_14h00.05.288,Surprise recog test,2023.1.3,59.95282911387513,
18,0,18,0,,,,,,,,,,,,,,,,,,,,,,,,,,,,,,,,,,567.5173937,,564.8179543000006,564.8179543000006,564.8179543000006,564.8179543000006,new_sceneOut_48.png,19,4.0,2.6947486999997636,,,049,11,2025-02-13_14h00.05.288,Surprise recog test,2023.1.3,59.95282911387513,
19,0,19,0,,,,,,,,,,,,,,,,,,,,,,,,,,,,,,,,,,570.0162639,571.0369318000003,568.5502491000007,568.5502491000007,568.5502491000007,568.5502491000007,old_sceneOut_13.png,20,4.0,1.4674786999994467,,,049,11,2025-02-13_14h00.05.288,Surprise recog test,2023.1.3,59.95282911387513,
20,0,20,0,,,,,,,,,,,,,,,,,,,,,,,,,,,,,,,,,,572.2289939000002,573.2597751000003,571.0369318000003,571.0369318000003,571.0369318000003,571.0369318000003,old_sceneIn_9.png,21,4.0,1.193772500000705,,,049,11,2025-02-13_14h00.05.288,Surprise recog test,2023.1.3,59.95282911387513,
21,0,21,0,,,,,,,,,,,,,,,,,,,,,,,,,,,,,,,,,,574.6423417000005,575.6761776000003,573.2597751000003,573.2597751000003,573.2597751000003,573.2597751000003,old_stationery_30.png,22,4.0,1.385399700000562,,,049,11,2025-02-13_14h00.05.288,Surprise recog test,2023.1.3,59.95282911387513,
22,0,22,0,,,,,,,,,,,,,,,,,,,,,,,,,,,,,,,,,,577.7341022,578.761493,575.6761776000003,575.6761776000003,575.6761776000003,575.6761776000003,old_fruit_6.png,23,3.0,2.0598495000003822,,,049,11,2025-02-13_14h00.05.288,Surprise recog test,2023.1.3,59.95282911387513,
23,0,23,0,,,,,,,,,,,,,,,,,,,,,,,,,,,,,,,,,,580.4977385000002,581.5305137000005,578.761493,578.761493,578.761493,578.761493,old_sceneIn_5.png,24,2.0,1.7367353999998159,,,049,11,2025-02-13_14h00.05.288,Surprise recog test,2023.1.3,59.95282911387513,
24,0,24,0,,,,,,,,,,,,,,,,,,,,,,,,,,,,,,,,,,583.1110149000006,584.1199975999998,581.5305137000005,581.5305137000005,581.5305137000005,581.5305137000005,old_stationery_29.png,25,5.0,1.5833397000005789,,,049,11,2025-02-13_14h00.05.288,Surprise recog test,2023.1.3,59.95282911387513,
25,0,25,0,,,,,,,,,,,,,,,,,,,,,,,,,,,,,,,,,,585.6227674000002,586.6390203999999,584.1199975999998,584.1199975999998,584.1199975999998,584.1199975999998,old_fruit_20.png,26,1.0,1.4979516999992484,,,049,11,2025-02-13_14h00.05.288,Surprise recog test,2023.1.3,59.95282911387513,
26,0,26,0,,,,,,,,,,,,,,,,,,,,,,,,,,,,,,,,,,589.2790782000002,590.2910148999999,586.6390203999999,586.6390203999999,586.6390203999999,586.6390203999999,new_sceneIn_22.png,27,3.0,2.6350376999998844,,,049,11,2025-02-13_14h00.05.288,Surprise recog test,2023.1.3,59.95282911387513,
27,0,27,0,,,,,,,,,,,,,,,,,,,,,,,,,,,,,,,,,,592.0458792999998,593.0746253000007,590.2910148999999,590.2910148999999,590.2910148999999,590.2910148999999,new_sceneIn_38.png,28,3.0,1.7503089000001637,,,049,11,2025-02-13_14h00.05.288,Surprise recog test,2023.1.3,59.95282911387513,
28,0,28,0,,,,,,,,,,,,,,,,,,,,,,,,,,,,,,,,,,595.5375433999998,596.5591934000004,593.0746253000007,593.0746253000007,593.0746253000007,593.0746253000007,new_sceneIn_37.png,29,3.0,2.4627018000001044,,,049,11,2025-02-13_14h00.05.288,Surprise recog test,2023.1.3,59.95282911387513,
29,0,29,0,,,,,,,,,,,,,,,,,,,,,,,,,,,,,,,,,,598.2375398000004,599.2616613999999,596.5591934000004,596.5591934000004,596.5591934000004,596.5591934000004,old_fruit_19.png,30,1.0,1.6792350000005172,,,049,11,2025-02-13_14h00.05.288,Surprise recog test,2023.1.3,59.95282911387513,
30,0,30,0,,,,,,,,,,,,,,,,,,,,,,,,,,,,,,,,,,600.9711795000003,601.9901717000002,599.2616613999999,599.2616613999999,599.2616613999999,599.2616613999999,old_sceneOut_3.png,31,4.0,1.7120795000000726,,,049,11,2025-02-13_14h00.05.288,Surprise recog test,2023.1.3,59.95282911387513,
31,0,31,0,,,,,,,,,,,,,,,,,,,,,,,,,,,,,,,,,,603.9052608000002,604.9341173000003,601.9901717000002,601.9901717000002,601.9901717000002,601.9901717000002,old_fruit_27.png,32,5.0,1.9157200999998167,,,049,11,2025-02-13_14h00.05.288,Surprise recog test,2023.1.3,59.95282911387513,
32,0,32,0,,,,,,,,,,,,,,,,,,,,,,,,,,,,,,,,,,606.5427742000002,607.5684452000005,604.9341173000003,604.9341173000003,604.9341173000003,604.9341173000003,old_sceneOut_36.png,33,4.0,1.6103303999998388,,,049,11,2025-02-13_14h00.05.288,Surprise recog test,2023.1.3,59.95282911387513,
33,0,33,0,,,,,,,,,,,,,,,,,,,,,,,,,,,,,,,,,,609.2066438000002,610.2228878000005,607.5684452000005,607.5684452000005,607.5684452000005,607.5684452000005,new_sceneOut_5.png,34,4.0,1.6385004000003391,,,049,11,2025-02-13_14h00.05.288,Surprise recog test,2023.1.3,59.95282911387513,
34,0,34,0,,,,,,,,,,,,,,,,,,,,,,,,,,,,,,,,,,611.9399825999999,612.9723414,610.2228878000005,610.2228878000005,610.2228878000005,610.2228878000005,new_sceneIn_9.png,35,2.0,1.7149431999996523,,,049,11,2025-02-13_14h00.05.288,Surprise recog test,2023.1.3,59.95282911387513,
35,0,35,0,,,,,,,,,,,,,,,,,,,,,,,,,,,,,,,,,,614.3403058000004,,612.9723414,612.9723414,612.9723414,612.9723414,new_sceneIn_46.png,36,5.0,1.3688161000000036,,,049,11,2025-02-13_14h00.05.288,Surprise recog test,2023.1.3,59.95282911387513,
36,0,36,0,,,,,,,,,,,,,,,,,,,,,,,,,,,,,,,,,,616.3511573000005,617.3772176000002,615.3620687000002,615.3620687000002,615.3620687000002,615.3620687000002,new_sceneIn_3.png,37,5.0,0.984827000000223,,,049,11,2025-02-13_14h00.05.288,Surprise recog test,2023.1.3,59.95282911387513,
37,0,37,0,,,,,,,,,,,,,,,,,,,,,,,,,,,,,,,,,,619.5107575000002,,617.3772176000002,617.3772176000002,617.3772176000002,617.3772176000002,old_sceneIn_41.png,38,5.0,2.13254280000001,,,049,11,2025-02-13_14h00.05.288,Surprise recog test,2023.1.3,59.95282911387513,
38,0,38,0,,,,,,,,,,,,,,,,,,,,,,,,,,,,,,,,,,621.5523398000005,622.5685985,620.5289320000002,620.5289320000002,620.5289320000002,620.5289320000002,old_sceneOut_40.png,39,5.0,1.0195819999999003,,,049,11,2025-02-13_14h00.05.288,Surprise recog test,2023.1.3,59.95282911387513,
39,0,39,0,,,,,,,,,,,,,,,,,,,,,,,,,,,,,,,,,,623.7164991999998,624.7372007000004,622.5685985,622.5685985,622.5685985,622.5685985,new_sceneOut_37.png,40,5.0,1.144330400000399,,,049,11,2025-02-13_14h00.05.288,Surprise recog test,2023.1.3,59.95282911387513,
40,0,40,0,,,,,,,,,,,,,,,,,,,,,,,,,,,,,,,,,,625.8031841000002,626.8217582000007,624.7372007000004,624.7372007000004,624.7372007000004,624.7372007000004,old_sceneIn_21.png,41,5.0,1.0610905000003186,,,049,11,2025-02-13_14h00.05.288,Surprise recog test,2023.1.3,59.95282911387513,
41,0,41,0,,,,,,,,,,,,,,,,,,,,,,,,,,,,,,,,,,628.0995628000001,629.1129146000003,626.8217582000007,626.8217582000007,626.8217582000007,626.8217582000007,old_fruit_41.png,42,5.0,1.272803699999713,,,049,11,2025-02-13_14h00.05.288,Surprise recog test,2023.1.3,59.95282911387513,
42,0,42,0,,,,,,,,,,,,,,,,,,,,,,,,,,,,,,,,,,630.2181862000007,631.2386237999999,629.1129146000003,629.1129146000003,629.1129146000003,629.1129146000003,old_sceneIn_17.png,43,5.0,1.103902900000321,,,049,11,2025-02-13_14h00.05.288,Surprise recog test,2023.1.3,59.95282911387513,
43,0,43,0,,,,,,,,,,,,,,,,,,,,,,,,,,,,,,,,,,632.1438503999998,633.1722493000007,631.2386237999999,631.2386237999999,631.2386237999999,631.2386237999999,old_sceneOut_28.png,44,5.0,0.9084535000001779,,,049,11,2025-02-13_14h00.05.288,Surprise recog test,2023.1.3,59.95282911387513,
44,0,44,0,,,,,,,,,,,,,,,,,,,,,,,,,,,,,,,,,,634.2629715000003,635.2875463,633.1722493000007,633.1722493000007,633.1722493000007,633.1722493000007,new_stationery_28.png,45,5.0,1.0890112999995836,,,049,11,2025-02-13_14h00.05.288,Surprise recog test,2023.1.3,59.95282911387513,
45,0,45,0,,,,,,,,,,,,,,,,,,,,,,,,,,,,,,,,,,637.4206091000005,638.4436857000001,635.2875463,635.2875463,635.2875463,635.2875463,old_sceneIn_14.png,46,3.0,2.1357832000003327,,,049,11,2025-02-13_14h00.05.288,Surprise recog test,2023.1.3,59.95282911387513,
46,0,46,0,,,,,,,,,,,,,,,,,,,,,,,,,,,,,,,,,,641.1774456000003,642.1957883000005,638.4436857000001,638.4436857000001,638.4436857000001,638.4436857000001,old_sceneIn_33.png,47,2.0,2.7363224999999147,,,049,11,2025-02-13_14h00.05.288,Surprise recog test,2023.1.3,59.95282911387513,
47,0,47,0,,,,,,,,,,,,,,,,,,,,,,,,,,,,,,,,,,643.4465295,,642.1957883000005,642.1957883000005,642.1957883000005,642.1957883000005,new_fruit_42.png,48,2.0,1.2518065000003844,,,049,11,2025-02-13_14h00.05.288,Surprise recog test,2023.1.3,59.95282911387513,
48,0,48,0,,,,,,,,,,,,,,,,,,,,,,,,,,,,,,,,,,646.7024666000007,647.7331270000004,644.4691026,644.4691026,644.4691026,644.4691026,old_sceneOut_22.png,49,3.0,2.227804600000127,,,049,11,2025-02-13_14h00.05.288,Surprise recog test,2023.1.3,59.95282911387513,
49,0,49,0,,,,,,,,,,,,,,,,,,,,,,,,,,,,,,,,,,651.0844886000004,652.0998850000005,647.7331270000004,647.7331270000004,647.7331270000004,647.7331270000004,old_fruit_47.png,50,3.0,3.3487420999999813,,,049,11,2025-02-13_14h00.05.288,Surprise recog test,2023.1.3,59.95282911387513,
50,0,50,0,,,,,,,,,,,,,,,,,,,,,,,,,,,,,,,,,,655.6017947999999,656.625078,652.0998850000005,652.0998850000005,652.0998850000005,652.0998850000005,old_stationery_35.png,51,2.0,3.49786690000019,,,049,11,2025-02-13_14h00.05.288,Surprise recog test,2023.1.3,59.95282911387513,
51,0,51,0,,,,,,,,,,,,,,,,,,,,,,,,,,,,,,,,,,657.7642799000005,658.7828530000006,656.625078,656.625078,656.625078,656.625078,old_fruit_12.png,52,1.0,1.142225700000381,,,049,11,2025-02-13_14h00.05.288,Surprise recog test,2023.1.3,59.95282911387513,
52,0,52,0,,,,,,,,,,,,,,,,,,,,,,,,,,,,,,,,,,659.9254121000004,660.9476937,658.7828530000006,658.7828530000006,658.7828530000006,658.7828530000006,new_sceneIn_26.png,53,2.0,1.13885560000017,,,049,11,2025-02-13_14h00.05.288,Surprise recog test,2023.1.3,59.95282911387513,
53,0,53,0,,,,,,,,,,,,,,,,,,,,,,,,,,,,,,,,,,662.2620450000004,663.2686334,660.9476937,660.9476937,660.9476937,660.9476937,new_stationery_25.png,54,4.0,1.3177849000003334,,,049,11,2025-02-13_14h00.05.288,Surprise recog test,2023.1.3,59.95282911387513,
54,0,54,0,,,,,,,,,,,,,,,,,,,,,,,,,,,,,,,,,,664.0480100000004,,663.2686334,663.2686334,663.2686334,663.2686334,old_stationery_6.png,55,4.0,0.7739139999994222,,,049,11,2025-02-13_14h00.05.288,Surprise recog test,2023.1.3,59.95282911387513,
55,0,55,0,,,,,,,,,,,,,,,,,,,,,,,,,,,,,,,,,,666.8241859,667.8371158,665.0823852000003,665.0823852000003,665.0823852000003,665.0823852000003,old_stationery_48.png,56,2.0,1.743263599999409,,,049,11,2025-02-13_14h00.05.288,Surprise recog test,2023.1.3,59.95282911387513,
56,0,56,0,,,,,,,,,,,,,,,,,,,,,,,,,,,,,,,,,,671.4992413999998,672.5201656999998,667.8371158,667.8371158,667.8371158,667.8371158,old_stationery_46.png,57,4.0,3.6582220999998754,,,049,11,2025-02-13_14h00.05.288,Surprise recog test,2023.1.3,59.95282911387513,
57,0,57,0,,,,,,,,,,,,,,,,,,,,,,,,,,,,,,,,,,673.5716301000002,674.5931750999998,672.5201656999998,672.5201656999998,672.5201656999998,672.5201656999998,new_stationery_46.png,58,4.0,1.0526294000001144,,,049,11,2025-02-13_14h00.05.288,Surprise recog test,2023.1.3,59.95282911387513,
58,0,58,0,,,,,,,,,,,,,,,,,,,,,,,,,,,,,,,,,,675.3582715000002,,674.5931750999998,674.5931750999998,674.5931750999998,674.5931750999998,old_stationery_33.png,59,4.0,0.7671147000000929,,,049,11,2025-02-13_14h00.05.288,Surprise recog test,2023.1.3,59.95282911387513,
59,0,59,0,,,,,,,,,,,,,,,,,,,,,,,,,,,,,,,,,,677.0372635000003,678.0551925,676.3825003000002,676.3825003000002,676.3825003000002,676.3825003000002,old_stationery_44.png,60,4.0,0.6537474999995538,,,049,11,2025-02-13_14h00.05.288,Surprise recog test,2023.1.3,59.95282911387513,
60,0,60,0,,,,,,,,,,,,,,,,,,,,,,,,,,,,,,,,,,679.3593575000004,680.3638889000003,678.0551925,678.0551925,678.0551925,678.0551925,new_fruit_15.png,61,2.0,1.3033167000003232,,,049,11,2025-02-13_14h00.05.288,Surprise recog test,2023.1.3,59.95282911387513,
61,0,61,0,,,,,,,,,,,,,,,,,,,,,,,,,,,,,,,,,,681.6385543000006,682.6523440000001,680.3638889000003,680.3638889000003,680.3638889000003,680.3638889000003,new_fruit_29.png,62,2.0,1.272527999999511,,,049,11,2025-02-13_14h00.05.288,Surprise recog test,2023.1.3,59.95282911387513,
62,0,62,0,,,,,,,,,,,,,,,,,,,,,,,,,,,,,,,,,,687.0853815,688.1061692000003,682.6523440000001,682.6523440000001,682.6523440000001,682.6523440000001,new_fruit_24.png,63,4.0,4.429658899999595,,,049,11,2025-02-13_14h00.05.288,Surprise recog test,2023.1.3,59.95282911387513,
63,0,63,0,,,,,,,,,,,,,,,,,,,,,,,,,,,,,,,,,,692.7052643000006,,688.1061692000003,688.1061692000003,688.1061692000003,688.1061692000003,old_sceneIn_25.png,64,4.0,4.593058499999643,,,049,11,2025-02-13_14h00.05.288,Surprise recog test,2023.1.3,59.95282911387513,
64,0,64,0,,,,,,,,,,,,,,,,,,,,,,,,,,,,,,,,,,695.2192414000001,696.2414539000001,693.7394746999998,693.7394746999998,693.7394746999998,693.7394746999998,new_sceneOut_43.png,65,4.0,1.4817261999996845,,,049,11,2025-02-13_14h00.05.288,Surprise recog test,2023.1.3,59.95282911387513,
65,0,65,0,,,,,,,,,,,,,,,,,,,,,,,,,,,,,,,,,,697.4536714000005,698.4723525999998,696.2414539000001,696.2414539000001,696.2414539000001,696.2414539000001,old_fruit_50.png,66,1.0,1.2157285000002958,,,049,11,2025-02-13_14h00.05.288,Surprise recog test,2023.1.3,59.95282911387513,
66,0,66,0,,,,,,,,,,,,,,,,,,,,,,,,,,,,,,,,,,701.7301590000006,,698.4723525999998,698.4723525999998,698.4723525999998,698.4723525999998,old_stationery_36.png,67,2.0,3.2569665999999415,,,049,11,2025-02-13_14h00.05.288,Surprise recog test,2023.1.3,59.95282911387513,
67,0,67,0,,,,,,,,,,,,,,,,,,,,,,,,,,,,,,,,,,704.5834591000003,705.6191619000001,702.7509975000003,702.7509975000003,702.7509975000003,702.7509975000003,old_sceneIn_32.png,68,3.0,1.8283776999996917,,,049,11,2025-02-13_14h00.05.288,Surprise recog test,2023.1.3,59.95282911387513,
68,0,68,0,,,,,,,,,,,,,,,,,,,,,,,,,,,,,,,,,,707.0395374999998,708.0569413000003,705.6191619000001,705.6191619000001,705.6191619000001,705.6191619000001,old_sceneOut_35.png,69,3.0,1.42035659999965,,,049,11,2025-02-13_14h00.05.288,Surprise recog test,2023.1.3,59.95282911387513,
69,0,69,0,,,,,,,,,,,,,,,,,,,,,,,,,,,,,,,,,,709.8263895999999,710.8471481000006,708.0569413000003,708.0569413000003,708.0569413000003,708.0569413000003,new_stationery_50.png,70,5.0,1.7669558999996298,,,049,11,2025-02-13_14h00.05.288,Surprise recog test,2023.1.3,59.95282911387513,
70,0,70,0,,,,,,,,,,,,,,,,,,,,,,,,,,,,,,,,,,714.2033639000001,715.2236118000001,710.8471481000006,710.8471481000006,710.8471481000006,710.8471481000006,old_sceneOut_31.png,71,4.0,3.3558129000002737,,,049,11,2025-02-13_14h00.05.288,Surprise recog test,2023.1.3,59.95282911387513,
71,0,71,0,,,,,,,,,,,,,,,,,,,,,,,,,,,,,,,,,,716.6264474999998,,715.2236118000001,715.2236118000001,715.2236118000001,715.2236118000001,new_stationery_30.png,72,5.0,1.4039909000002808,,,049,11,2025-02-13_14h00.05.288,Surprise recog test,2023.1.3,59.95282911387513,
72,0,72,0,,,,,,,,,,,,,,,,,,,,,,,,,,,,,,,,,,720.6366472,721.6624834000004,717.6597136,717.6597136,717.6597136,717.6597136,new_fruit_5.png,73,2.0,2.9801738999994996,,,049,11,2025-02-13_14h00.05.288,Surprise recog test,2023.1.3,59.95282911387513,
73,0,73,0,,,,,,,,,,,,,,,,,,,,,,,,,,,,,,,,,,723.0880949000002,724.1072463999999,721.6624834000004,721.6624834000004,721.6624834000004,721.6624834000004,new_sceneOut_31.png,74,3.0,1.4265881999999692,,,049,11,2025-02-13_14h00.05.288,Surprise recog test,2023.1.3,59.95282911387513,
74,0,74,0,,,,,,,,,,,,,,,,,,,,,,,,,,,,,,,,,,725.2543728999999,726.2813910000004,724.1072463999999,724.1072463999999,724.1072463999999,724.1072463999999,new_sceneOut_49.png,75,3.0,1.1435460000002422,,,049,11,2025-02-13_14h00.05.288,Surprise recog test,2023.1.3,59.95282911387513,
75,0,75,0,,,,,,,,,,,,,,,,,,,,,,,,,,,,,,,,,,727.1001672000002,,726.2813910000004,726.2813910000004,726.2813910000004,726.2813910000004,new_fruit_8.png,76,3.0,0.8209154000005583,,,049,11,2025-02-13_14h00.05.288,Surprise recog test,2023.1.3,59.95282911387513,
76,0,76,0,,,,,,,,,,,,,,,,,,,,,,,,,,,,,,,,,,730.0272678000001,731.0551177000007,728.1313325000001,728.1313325000001,728.1313325000001,728.1313325000001,old_sceneIn_27.png,77,3.0,1.8928732000003947,,,049,11,2025-02-13_14h00.05.288,Surprise recog test,2023.1.3,59.95282911387513,
77,0,77,0,,,,,,,,,,,,,,,,,,,,,,,,,,,,,,,,,,731.7757140000003,732.8014119999998,731.0551177000007,731.0551177000007,731.0551177000007,731.0551177000007,old_sceneOut_39.png,78,3.0,0.7234650999998848,,,049,11,2025-02-13_14h00.05.288,Surprise recog test,2023.1.3,59.95282911387513,
78,0,78,0,,,,,,,,,,,,,,,,,,,,,,,,,,,,,,,,,,733.8098464000004,734.8260169000005,732.8014119999998,732.8014119999998,732.8014119999998,732.8014119999998,old_sceneOut_21.png,79,3.0,1.0005651000001308,,,049,11,2025-02-13_14h00.05.288,Surprise recog test,2023.1.3,59.95282911387513,
79,0,79,0,,,,,,,,,,,,,,,,,,,,,,,,,,,,,,,,,,735.9408553000003,,734.8260169000005,734.8260169000005,734.8260169000005,734.8260169000005,old_sceneOut_2.png,80,3.0,1.1107459999993807,,,049,11,2025-02-13_14h00.05.288,Surprise recog test,2023.1.3,59.95282911387513,
80,0,80,0,,,,,,,,,,,,,,,,,,,,,,,,,,,,,,,,,,738.8015141000005,739.8228263000001,736.9669331000005,736.9669331000005,736.9669331000005,736.9669331000005,old_sceneIn_3.png,81,4.0,1.8292416999993293,,,049,11,2025-02-13_14h00.05.288,Surprise recog test,2023.1.3,59.95282911387513,
81,0,81,0,,,,,,,,,,,,,,,,,,,,,,,,,,,,,,,,,,740.8421099000007,741.8651139000003,739.8228263000001,739.8228263000001,739.8228263000001,739.8228263000001,new_stationery_12.png,82,4.0,1.015316900000471,,,049,11,2025-02-13_14h00.05.288,Surprise recog test,2023.1.3,59.95282911387513,
82,0,82,0,,,,,,,,,,,,,,,,,,,,,,,,,,,,,,,,,,742.5766634000001,743.5991598999999,741.8651139000003,741.8651139000003,741.8651139000003,741.8651139000003,new_sceneOut_29.png,83,4.0,0.71457829999963,,,049,11,2025-02-13_14h00.05.288,Surprise recog test,2023.1.3,59.95282911387513,
83,0,83,0,,,,,,,,,,,,,,,,,,,,,,,,,,,,,,,,,,745.3861387000006,746.4153353000002,743.5991598999999,743.5991598999999,743.5991598999999,743.5991598999999,new_sceneIn_6.png,84,4.0,1.7882110000000466,,,049,11,2025-02-13_14h00.05.288,Surprise recog test,2023.1.3,59.95282911387513,
84,0,84,0,,,,,,,,,,,,,,,,,,,,,,,,,,,,,,,,,,748.9125180999999,749.9360958000007,746.4153353000002,746.4153353000002,746.4153353000002,746.4153353000002,new_fruit_31.png,85,1.0,2.4993211999999403,,,049,11,2025-02-13_14h00.05.288,Surprise recog test,2023.1.3,59.95282911387513,
85,0,85,0,,,,,,,,,,,,,,,,,,,,,,,,,,,,,,,,,,751.6775985000004,752.7075823000005,749.9360958000007,749.9360958000007,749.9360958000007,749.9360958000007,old_fruit_22.png,86,1.0,1.7419850999995106,,,049,11,2025-02-13_14h00.05.288,Surprise recog test,2023.1.3,59.95282911387513,
86,0,86,0,,,,,,,,,,,,,,,,,,,,,,,,,,,,,,,,,,754.4740201000004,,752.7075823000005,752.7075823000005,752.7075823000005,752.7075823000005,old_sceneIn_36.png,87,4.0,1.7685730999992302,,,049,11,2025-02-13_14h00.05.288,Surprise recog test,2023.1.3,59.95282911387513,
87,0,87,0,,,,,,,,,,,,,,,,,,,,,,,,,,,,,,,,,,756.2801596999998,757.2963377000005,755.4996265,755.4996265,755.4996265,755.4996265,old_sceneOut_23.png,88,4.0,0.7756601000000956,,,049,11,2025-02-13_14h00.05.288,Surprise recog test,2023.1.3,59.95282911387513,
88,0,88,0,,,,,,,,,,,,,,,,,,,,,,,,,,,,,,,,,,757.9896790000003,759.0088249999999,757.2963377000005,757.2963377000005,757.2963377000005,757.2963377000005,old_sceneOut_41.png,89,4.0,0.6842753999999331,,,049,11,2025-02-13_14h00.05.288,Surprise recog test,2023.1.3,59.95282911387513,
89,0,89,0,,,,,,,,,,,,,,,,,,,,,,,,,,,,,,,,,,761.1362816000001,762.1604410999998,759.0088249999999,759.0088249999999,759.0088249999999,759.0088249999999,new_fruit_12.png,90,3.0,2.1293821999997817,,,049,11,2025-02-13_14h00.05.288,Surprise recog test,2023.1.3,59.95282911387513,
90,0,90,0,,,,,,,,,,,,,,,,,,,,,,,,,,,,,,,,,,764.2252549000004,765.2490465000001,762.1604410999998,762.1604410999998,762.1604410999998,762.1604410999998,old_sceneIn_12.png,91,4.0,2.067823600000338,,,049,11,2025-02-13_14h00.05.288,Surprise recog test,2023.1.3,59.95282911387513,
91,0,91,0,,,,,,,,,,,,,,,,,,,,,,,,,,,,,,,,,,767.0049327000006,768.0194756000001,765.2490465000001,765.2490465000001,765.2490465000001,765.2490465000001,new_fruit_33.png,92,2.0,1.7584077999999863,,,049,11,2025-02-13_14h00.05.288,Surprise recog test,2023.1.3,59.95282911387513,
92,0,92,0,,,,,,,,,,,,,,,,,,,,,,,,,,,,,,,,,,769.5482837,770.5611712999998,768.0194756000001,768.0194756000001,768.0194756000001,768.0194756000001,new_sceneOut_8.png,93,3.0,1.5221821000004638,,,049,11,2025-02-13_14h00.05.288,Surprise recog test,2023.1.3,59.95282911387513,
93,0,93,0,,,,,,,,,,,,,,,,,,,,,,,,,,,,,,,,,,772.3515568000003,773.3719251000002,770.5611712999998,770.5611712999998,770.5611712999998,770.5611712999998,old_stationery_50.png,94,3.0,1.7886164000001372,,,049,11,2025-02-13_14h00.05.288,Surprise recog test,2023.1.3,59.95282911387513,
94,0,94,0,,,,,,,,,,,,,,,,,,,,,,,,,,,,,,,,,,774.4947818999999,775.5130872999998,773.3719251000002,773.3719251000002,773.3719251000002,773.3719251000002,new_sceneOut_7.png,95,3.0,1.123918600000252,,,049,11,2025-02-13_14h00.05.288,Surprise recog test,2023.1.3,59.95282911387513,
95,0,95,0,,,,,,,,,,,,,,,,,,,,,,,,,,,,,,,,,,777.1587828000002,,775.5130872999998,775.5130872999998,775.5130872999998,775.5130872999998,new_sceneOut_9.png,96,4.0,1.6433336000000054,,,049,11,2025-02-13_14h00.05.288,Surprise recog test,2023.1.3,59.95282911387513,
96,0,96,0,,,,,,,,,,,,,,,,,,,,,,,,,,,,,,,,,,779.9697372,780.9952835000004,778.1925883000004,778.1925883000004,778.1925883000004,778.1925883000004,new_sceneIn_5.png,97,4.0,1.778556799999933,,,049,11,2025-02-13_14h00.05.288,Surprise recog test,2023.1.3,59.95282911387513,
97,0,97,0,,,,,,,,,,,,,,,,,,,,,,,,,,,,,,,,,,783.9246082,784.9369041,780.9952835000004,780.9952835000004,780.9952835000004,780.9952835000004,old_fruit_33.png,98,2.0,2.9318106999999145,,,049,11,2025-02-13_14h00.05.288,Surprise recog test,2023.1.3,59.95282911387513,
98,0,98,0,,,,,,,,,,,,,,,,,,,,,,,,,,,,,,,,,,787.3001891000004,,784.9369041,784.9369041,784.9369041,784.9369041,new_sceneIn_18.png,99,2.0,2.359110899999905,,,049,11,2025-02-13_14h00.05.288,Surprise recog test,2023.1.3,59.95282911387513,
99,0,99,0,,,,,,,,,,,,,,,,,,,,,,,,,,,,,,,,,,789.4062752999998,790.4248719000007,788.323652,788.323652,788.323652,788.323652,new_stationery_37.png,100,3.0,1.079279999999926,,,049,11,2025-02-13_14h00.05.288,Surprise recog test,2023.1.3,59.95282911387513,
100,0,100,0,,,,,,,,,,,,,,,,,,,,,,,,,,,,,,,,,,791.2650799000003,792.2874007999999,790.4248719000007,790.4248719000007,790.4248719000007,790.4248719000007,old_stationery_8.png,101,3.0,0.8390196999998807,,,049,11,2025-02-13_14h00.05.288,Surprise recog test,2023.1.3,59.95282911387513,
101,0,101,0,,,,,,,,,,,,,,,,,,,,,,,,,,,,,,,,,,794.5798395000002,795.6092691000003,792.2874007999999,792.2874007999999,792.2874007999999,792.2874007999999,new_stationery_5.png,102,4.0,2.290396800000053,,,049,11,2025-02-13_14h00.05.288,Surprise recog test,2023.1.3,59.95282911387513,
102,0,102,0,,,,,,,,,,,,,,,,,,,,,,,,,,,,,,,,,,797.0721141000004,798.0837240999999,795.6092691000003,795.6092691000003,795.6092691000003,795.6092691000003,old_fruit_5.png,103,1.0,1.4603961999991952,,,049,11,2025-02-13_14h00.05.288,Surprise recog test,2023.1.3,59.95282911387513,
103,0,103,0,,,,,,,,,,,,,,,,,,,,,,,,,,,,,,,,,,799.4039628,800.4174909000003,798.0837240999999,798.0837240999999,798.0837240999999,798.0837240999999,new_stationery_29.png,104,4.0,1.3206264999998893,,,049,11,2025-02-13_14h00.05.288,Surprise recog test,2023.1.3,59.95282911387513,
104,0,104,0,,,,,,,,,,,,,,,,,,,,,,,,,,,,,,,,,,801.3343191000004,802.3625981000005,800.4174909000003,800.4174909000003,800.4174909000003,800.4174909000003,old_stationery_16.png,105,4.0,0.9160406999999395,,,049,11,2025-02-13_14h00.05.288,Surprise recog test,2023.1.3,59.95282911387513,
105,0,105,0,,,,,,,,,,,,,,,,,,,,,,,,,,,,,,,,,,803.3760296999999,804.3938816999998,802.3625981000005,802.3625981000005,802.3625981000005,802.3625981000005,new_fruit_34.png,106,4.0,1.0159547999992355,,,049,11,2025-02-13_14h00.05.288,Surprise recog test,2023.1.3,59.95282911387513,
106,0,106,0,,,,,,,,,,,,,,,,,,,,,,,,,,,,,,,,,,805.6964838000004,806.7193726000005,804.3938816999998,804.3938816999998,804.3938816999998,804.3938816999998,new_sceneOut_32.png,107,3.0,1.304704799999854,,,049,11,2025-02-13_14h00.05.288,Surprise recog test,2023.1.3,59.95282911387513,
107,0,107,0,,,,,,,,,,,,,,,,,,,,,,,,,,,,,,,,,,807.4727979999998,808.4953983000005,806.7193726000005,806.7193726000005,806.7193726000005,806.7193726000005,new_stationery_1.png,108,4.0,0.7538404999995691,,,049,11,2025-02-13_14h00.05.288,Surprise recog test,2023.1.3,59.95282911387513,
108,0,108,0,,,,,,,,,,,,,,,,,,,,,,,,,,,,,,,,,,809.1154090999999,810.1381712000002,808.4953983000005,808.4953983000005,808.4953983000005,808.4953983000005,new_sceneIn_24.png,109,4.0,0.6152693000003637,,,049,11,2025-02-13_14h00.05.288,Surprise recog test,2023.1.3,59.95282911387513,
109,0,109,0,,,,,,,,,,,,,,,,,,,,,,,,,,,,,,,,,,810.7873518000006,,810.1381712000002,810.1381712000002,810.1381712000002,810.1381712000002,old_stationery_9.png,110,4.0,0.6520415999993929,,,049,11,2025-02-13_14h00.05.288,Surprise recog test,2023.1.3,59.95282911387513,
110,0,110,0,,,,,,,,,,,,,,,,,,,,,,,,,,,,,,,,,,812.6369836000003,,811.8182406000005,811.8182406000005,811.8182406000005,811.8182406000005,old_sceneOut_49.png,111,4.0,0.8206747000003816,,,049,11,2025-02-13_14h00.05.288,Surprise recog test,2023.1.3,59.95282911387513,
111,0,111,0,,,,,,,,,,,,,,,,,,,,,,,,,,,,,,,,,,814.3524985000004,815.3726190000007,813.6698198000004,813.6698198000004,813.6698198000004,813.6698198000004,new_sceneOut_44.png,112,4.0,0.6842447999997603,,,049,11,2025-02-13_14h00.05.288,Surprise recog test,2023.1.3,59.95282911387513,
112,0,112,0,,,,,,,,,,,,,,,,,,,,,,,,,,,,,,,,,,816.6551512000005,817.6693015000001,815.3726190000007,815.3726190000007,815.3726190000007,815.3726190000007,old_stationery_49.png,113,4.0,1.2818181999991793,,,049,11,2025-02-13_14h00.05.288,Surprise recog test,2023.1.3,59.95282911387513,
113,0,113,0,,,,,,,,,,,,,,,,,,,,,,,,,,,,,,,,,,818.6298119000003,819.6608855000004,817.6693015000001,817.6693015000001,817.6693015000001,817.6693015000001,new_sceneIn_43.png,114,4.0,0.9624456000001373,,,049,11,2025-02-13_14h00.05.288,Surprise recog test,2023.1.3,59.95282911387513,
114,0,114,0,,,,,,,,,,,,,,,,,,,,,,,,,,,,,,,,,,821.1636623000004,822.1945110000006,819.6608855000004,819.6608855000004,819.6608855000004,819.6608855000004,old_sceneIn_23.png,115,2.0,1.5044134999998278,,,049,11,2025-02-13_14h00.05.288,Surprise recog test,2023.1.3,59.95282911387513,
115,0,115,0,,,,,,,,,,,,,,,,,,,,,,,,,,,,,,,,,,823.3909928000003,824.4145628000006,822.1945110000006,822.1945110000006,822.1945110000006,822.1945110000006,old_sceneIn_1.png,116,3.0,1.1953791000005367,,,049,11,2025-02-13_14h00.05.288,Surprise recog test,2023.1.3,59.95282911387513,
116,0,116,0,,,,,,,,,,,,,,,,,,,,,,,,,,,,,,,,,,825.5211530000006,826.5547107000002,824.4145628000006,824.4145628000006,824.4145628000006,824.4145628000006,new_stationery_23.png,117,4.0,1.1090983999993114,,,049,11,2025-02-13_14h00.05.288,Surprise recog test,2023.1.3,59.95282911387513,
117,0,117,0,,,,,,,,,,,,,,,,,,,,,,,,,,,,,,,,,,827.3472591999998,828.3702030000004,826.5547107000002,826.5547107000002,826.5547107000002,826.5547107000002,new_fruit_10.png,118,4.0,0.7901437999998961,,,049,11,2025-02-13_14h00.05.288,Surprise recog test,2023.1.3,59.95282911387513,
118,0,118,0,,,,,,,,,,,,,,,,,,,,,,,,,,,,,,,,,,829.0817437000005,830.0963510000001,828.3702030000004,828.3702030000004,828.3702030000004,828.3702030000004,new_fruit_23.png,119,4.0,0.7147015999998985,,,049,11,2025-02-13_14h00.05.288,Surprise recog test,2023.1.3,59.95282911387513,
119,0,119,0,,,,,,,,,,,,,,,,,,,,,,,,,,,,,,,,,,831.3394732000006,832.3587170000001,830.0963510000001,830.0963510000001,830.0963510000001,830.0963510000001,old_sceneOut_34.png,120,2.0,1.240612799999326,,,049,11,2025-02-13_14h00.05.288,Surprise recog test,2023.1.3,59.95282911387513,
120,0,120,0,,,,,,,,,,,,,,,,,,,,,,,,,,,,,,,,,,833.3052253000005,,832.3587170000001,832.3587170000001,832.3587170000001,832.3587170000001,new_sceneIn_31.png,121,3.0,0.9417608000003383,,,049,11,2025-02-13_14h00.05.288,Surprise recog test,2023.1.3,59.95282911387513,
121,0,121,0,,,,,,,,,,,,,,,,,,,,,,,,,,,,,,,,,,835.5379068000002,836.5458962000002,834.3376887000004,834.3376887000004,834.3376887000004,834.3376887000004,new_fruit_13.png,122,2.0,1.1997521000002962,,,049,11,2025-02-13_14h00.05.288,Surprise recog test,2023.1.3,59.95282911387513,
122,0,122,0,,,,,,,,,,,,,,,,,,,,,,,,,,,,,,,,,,837.9030690999998,838.9264576000005,836.5458962000002,836.5458962000002,836.5458962000002,836.5458962000002,new_sceneIn_27.png,123,4.0,1.3507941999996547,,,049,11,2025-02-13_14h00.05.288,Surprise recog test,2023.1.3,59.95282911387513,
123,0,123,0,,,,,,,,,,,,,,,,,,,,,,,,,,,,,,,,,,839.4300265000002,840.4636946,838.9264576000005,838.9264576000005,838.9264576000005,838.9264576000005,new_stationery_42.png,124,4.0,0.5060444000000643,,,049,11,2025-02-13_14h00.05.288,Surprise recog test,2023.1.3,59.95282911387513,
124,0,124,0,,,,,,,,,,,,,,,,,,,,,,,,,,,,,,,,,,841.9436255,842.9639459,840.4636946,840.4636946,840.4636946,840.4636946,old_fruit_24.png,125,1.0,1.4831933999994362,,,049,11,2025-02-13_14h00.05.288,Surprise recog test,2023.1.3,59.95282911387513,
125,0,125,0,,,,,,,,,,,,,,,,,,,,,,,,,,,,,,,,,,844.1277762999998,845.1496858999999,842.9639459,842.9639459,842.9639459,842.9639459,old_fruit_10.png,126,1.0,1.1679112000001624,,,049,11,2025-02-13_14h00.05.288,Surprise recog test,2023.1.3,59.95282911387513,
126,0,126,0,,,,,,,,,,,,,,,,,,,,,,,,,,,,,,,,,,846.2012109000007,847.2218538000006,845.1496858999999,845.1496858999999,845.1496858999999,845.1496858999999,old_fruit_32.png,127,1.0,1.0532779000004666,,,049,11,2025-02-13_14h00.05.288,Surprise recog test,2023.1.3,59.95282911387513,
127,0,127,0,,,,,,,,,,,,,,,,,,,,,,,,,,,,,,,,,,848.2676570000003,,847.2218538000006,847.2218538000006,847.2218538000006,847.2218538000006,new_sceneIn_42.png,128,4.0,1.0417404999998325,,,049,11,2025-02-13_14h00.05.288,Surprise recog test,2023.1.3,59.95282911387513,
128,0,128,0,,,,,,,,,,,,,,,,,,,,,,,,,,,,,,,,,,850.0161978000006,851.0247430999998,849.3005308000002,849.3005308000002,849.3005308000002,849.3005308000002,new_stationery_17.png,129,4.0,0.7177345000000059,,,049,11,2025-02-13_14h00.05.288,Surprise recog test,2023.1.3,59.95282911387513,
129,0,129,0,,,,,,,,,,,,,,,,,,,,,,,,,,,,,,,,,,851.6201666000006,,851.0247430999998,851.0247430999998,851.0247430999998,851.0247430999998,new_sceneIn_4.png,130,4.0,0.5887393000002703,,,049,11,2025-02-13_14h00.05.288,Surprise recog test,2023.1.3,59.95282911387513,
130,0,130,0,,,,,,,,,,,,,,,,,,,,,,,,,,,,,,,,,,854.1633694000002,855.1856536000005,852.6421132000005,852.6421132000005,852.6421132000005,852.6421132000005,old_fruit_37.png,131,1.0,1.517286399999648,,,049,11,2025-02-13_14h00.05.288,Surprise recog test,2023.1.3,59.95282911387513,
131,0,131,0,,,,,,,,,,,,,,,,,,,,,,,,,,,,,,,,,,857.2071371000002,,855.1856536000005,855.1856536000005,855.1856536000005,855.1856536000005,new_fruit_38.png,132,5.0,2.0204834999995,,,049,11,2025-02-13_14h00.05.288,Surprise recog test,2023.1.3,59.95282911387513,
132,0,132,0,,,,,,,,,,,,,,,,,,,,,,,,,,,,,,,,,,859.3244253000003,860.3402259000004,858.2284962000003,858.2284962000003,858.2284962000003,858.2284962000003,new_fruit_36.png,133,2.0,1.0920458000000508,,,049,11,2025-02-13_14h00.05.288,Surprise recog test,2023.1.3,59.95282911387513,
133,0,133,0,,,,,,,,,,,,,,,,,,,,,,,,,,,,,,,,,,861.3142377000004,862.3469708000002,860.3402259000004,860.3402259000004,860.3402259000004,860.3402259000004,new_stationery_39.png,134,4.0,0.9731278999997812,,,049,11,2025-02-13_14h00.05.288,Surprise recog test,2023.1.3,59.95282911387513,
134,0,134,0,,,,,,,,,,,,,,,,,,,,,,,,,,,,,,,,,,863.8949862999998,864.9160843999998,862.3469708000002,862.3469708000002,862.3469708000002,862.3469708000002,new_fruit_41.png,135,2.0,1.5479593999998542,,,049,11,2025-02-13_14h00.05.288,Surprise recog test,2023.1.3,59.95282911387513,
135,0,135,0,,,,,,,,,,,,,,,,,,,,,,,,,,,,,,,,,,866.3140271000002,867.3334677000003,864.9160843999998,864.9160843999998,864.9160843999998,864.9160843999998,new_sceneIn_20.png,136,5.0,1.4007800999997926,,,049,11,2025-02-13_14h00.05.288,Surprise recog test,2023.1.3,59.95282911387513,
136,0,136,0,,,,,,,,,,,,,,,,,,,,,,,,,,,,,,,,,,867.9163091999999,,867.3334677000003,867.3334677000003,867.3334677000003,867.3334677000003,old_sceneOut_4.png,137,5.0,0.5853347000002032,,,049,11,2025-02-13_14h00.05.288,Surprise recog test,2023.1.3,59.95282911387513,
137,0,137,0,,,,,,,,,,,,,,,,,,,,,,,,,,,,,,,,,,870.4329392,871.4502318000004,868.9500735000001,868.9500735000001,868.9500735000001,868.9500735000001,new_fruit_45.png,138,4.0,1.4798170000003665,,,049,11,2025-02-13_14h00.05.288,Surprise recog test,2023.1.3,59.95282911387513,
138,0,138,0,,,,,,,,,,,,,,,,,,,,,,,,,,,,,,,,,,872.1072936999999,873.1370808000001,871.4502318000004,871.4502318000004,871.4502318000004,871.4502318000004,new_sceneOut_23.png,139,4.0,0.655840100000205,,,049,11,2025-02-13_14h00.05.288,Surprise recog test,2023.1.3,59.95282911387513,
139,0,139,0,,,,,,,,,,,,,,,,,,,,,,,,,,,,,,,,,,874.9903688000004,,873.1370808000001,873.1370808000001,873.1370808000001,873.1370808000001,new_fruit_3.png,140,1.0,1.8548855000008189,,,049,11,2025-02-13_14h00.05.288,Surprise recog test,2023.1.3,59.95282911387513,
140,0,140,0,,,,,,,,,,,,,,,,,,,,,,,,,,,,,,,,,,876.8982829000006,877.9197087000002,876.0278300999998,876.0278300999998,876.0278300999998,876.0278300999998,new_stationery_38.png,141,4.0,0.8747527999994418,,,049,11,2025-02-13_14h00.05.288,Surprise recog test,2023.1.3,59.95282911387513,
141,0,141,0,,,,,,,,,,,,,,,,,,,,,,,,,,,,,,,,,,878.4527996000006,879.4769796,877.9197087000002,877.9197087000002,877.9197087000002,877.9197087000002,old_stationery_26.png,142,4.0,0.5249275999995007,,,049,11,2025-02-13_14h00.05.288,Surprise recog test,2023.1.3,59.95282911387513,
142,0,142,0,,,,,,,,,,,,,,,,,,,,,,,,,,,,,,,,,,881.4449404000006,,879.4769796,879.4769796,879.4769796,879.4769796,old_fruit_49.png,143,2.0,1.9678375000003143,,,049,11,2025-02-13_14h00.05.288,Surprise recog test,2023.1.3,59.95282911387513,
143,0,143,0,,,,,,,,,,,,,,,,,,,,,,,,,,,,,,,,,,882.8947568000003,883.9017791000006,882.4789844000006,882.4789844000006,882.4789844000006,882.4789844000006,old_sceneIn_42.png,144,4.0,0.4182426999996096,,,049,11,2025-02-13_14h00.05.288,Surprise recog test,2023.1.3,59.95282911387513,
144,0,144,0,,,,,,,,,,,,,,,,,,,,,,,,,,,,,,,,,,884.4626268000002,885.4855693,883.9017791000006,883.9017791000006,883.9017791000006,883.9017791000006,old_sceneIn_29.png,145,4.0,0.5548466999998709,,,049,11,2025-02-13_14h00.05.288,Surprise recog test,2023.1.3,59.95282911387513,
145,0,145,0,,,,,,,,,,,,,,,,,,,,,,,,,,,,,,,,,,886.0206810999998,887.0505976000004,885.4855693,885.4855693,885.4855693,885.4855693,new_sceneOut_47.png,146,4.0,0.5385110000006534,,,049,11,2025-02-13_14h00.05.288,Surprise recog test,2023.1.3,59.95282911387513,
146,0,146,0,,,,,,,,,,,,,,,,,,,,,,,,,,,,,,,,,,888.9685158000002,,887.0505976000004,887.0505976000004,887.0505976000004,887.0505976000004,new_fruit_47.png,147,3.0,1.9208693999999014,,,049,11,2025-02-13_14h00.05.288,Surprise recog test,2023.1.3,59.95282911387513,
147,0,147,0,,,,,,,,,,,,,,,,,,,,,,,,,,,,,,,,,,890.4465138000005,891.4710894999998,889.9926806000003,889.9926806000003,889.9926806000003,889.9926806000003,new_stationery_41.png,148,4.0,0.4521899999999732,,,049,11,2025-02-13_14h00.05.288,Surprise recog test,2023.1.3,59.95282911387513,
148,0,148,0,,,,,,,,,,,,,,,,,,,,,,,,,,,,,,,,,,891.9174748000005,892.9379944000002,891.4710894999998,891.4710894999998,891.4710894999998,891.4710894999998,new_stationery_44.png,149,4.0,0.4475599000006696,,,049,11,2025-02-13_14h00.05.288,Surprise recog test,2023.1.3,59.95282911387513,
149,0,149,0,,,,,,,,,,,,,,,,,,,,,,,,,,,,,,,,,,893.4179275000006,894.4275108000002,892.9379944000002,892.9379944000002,892.9379944000002,892.9379944000002,new_sceneIn_2.png,150,4.0,0.48164399999950547,,,049,11,2025-02-13_14h00.05.288,Surprise recog test,2023.1.3,59.95282911387513,
150,0,150,0,,,,,,,,,,,,,,,,,,,,,,,,,,,,,,,,,,894.9108917000003,895.9299600000004,894.4275108000002,894.4275108000002,894.4275108000002,894.4275108000002,new_sceneIn_1.png,151,4.0,0.4762966999996934,,,049,11,2025-02-13_14h00.05.288,Surprise recog test,2023.1.3,59.95282911387513,
151,0,151,0,,,,,,,,,,,,,,,,,,,,,,,,,,,,,,,,,,896.5441117999999,897.5740839999999,895.9299600000004,895.9299600000004,895.9299600000004,895.9299600000004,old_sceneOut_15.png,152,4.0,0.6061718999999357,,,049,11,2025-02-13_14h00.05.288,Surprise recog test,2023.1.3,59.95282911387513,
152,0,152,0,,,,,,,,,,,,,,,,,,,,,,,,,,,,,,,,,,898.1092871999999,,897.5740839999999,897.5740839999999,897.5740839999999,897.5740839999999,new_sceneOut_15.png,153,4.0,0.5369725000000471,,,049,11,2025-02-13_14h00.05.288,Surprise recog test,2023.1.3,59.95282911387513,
153,0,153,0,,,,,,,,,,,,,,,,,,,,,,,,,,,,,,,,,,899.6466807000006,900.6775238,899.1413294000004,899.1413294000004,899.1413294000004,899.1413294000004,new_sceneIn_34.png,154,4.0,0.5038240000003498,,,049,11,2025-02-13_14h00.05.288,Surprise recog test,2023.1.3,59.95282911387513,
154,0,154,0,,,,,,,,,,,,,,,,,,,,,,,,,,,,,,,,,,901.0750988999998,902.0798394000003,900.6775238,900.6775238,900.6775238,900.6775238,new_sceneIn_29.png,155,4.0,0.3961485999998331,,,049,11,2025-02-13_14h00.05.288,Surprise recog test,2023.1.3,59.95282911387513,
155,0,155,0,,,,,,,,,,,,,,,,,,,,,,,,,,,,,,,,,,902.4762888000005,903.4846839000002,902.0798394000003,902.0798394000003,902.0798394000003,902.0798394000003,new_sceneOut_12.png,156,4.0,0.38872750000064116,,,049,11,2025-02-13_14h00.05.288,Surprise recog test,2023.1.3,59.95282911387513,
156,0,156,0,,,,,,,,,,,,,,,,,,,,,,,,,,,,,,,,,,905.3799343999999,906.3987895,903.4846839000002,903.4846839000002,903.4846839000002,903.4846839000002,new_fruit_37.png,157,3.0,1.8913717999994333,,,049,11,2025-02-13_14h00.05.288,Surprise recog test,2023.1.3,59.95282911387513,
157,0,157,0,,,,,,,,,,,,,,,,,,,,,,,,,,,,,,,,,,906.8909266000001,907.9146449,906.3987895,906.3987895,906.3987895,906.3987895,new_stationery_8.png,158,4.0,0.4945105999995576,,,049,11,2025-02-13_14h00.05.288,Surprise recog test,2023.1.3,59.95282911387513,
158,0,158,0,,,,,,,,,,,,,,,,,,,,,,,,,,,,,,,,,,909.2495771000004,910.2710770000003,907.9146449,907.9146449,907.9146449,907.9146449,old_sceneOut_33.png,159,2.0,1.3356403999996473,,,049,11,2025-02-13_14h00.05.288,Surprise recog test,2023.1.3,59.95282911387513,
159,0,159,0,,,,,,,,,,,,,,,,,,,,,,,,,,,,,,,,,,911.9014483000001,912.9207609000005,910.2710770000003,910.2710770000003,910.2710770000003,910.2710770000003,new_stationery_49.png,160,5.0,1.6293820000000778,,,049,11,2025-02-13_14h00.05.288,Surprise recog test,2023.1.3,59.95282911387513,
160,0,160,0,,,,,,,,,,,,,,,,,,,,,,,,,,,,,,,,,,914.8864131,915.9094607000006,912.9207609000005,912.9207609000005,912.9207609000005,912.9207609000005,old_sceneIn_44.png,161,3.0,1.966186600000583,,,049,11,2025-02-13_14h00.05.288,Surprise recog test,2023.1.3,59.95282911387513,
161,0,161,0,,,,,,,,,,,,,,,,,,,,,,,,,,,,,,,,,,917.1049051,918.1177537000003,915.9094607000006,915.9094607000006,915.9094607000006,915.9094607000006,new_sceneOut_39.png,162,4.0,1.1944692000006398,,,049,11,2025-02-13_14h00.05.288,Surprise recog test,2023.1.3,59.95282911387513,
162,0,162,0,,,,,,,,,,,,,,,,,,,,,,,,,,,,,,,,,,919.4982930000006,920.5330983000003,918.1177537000003,918.1177537000003,918.1177537000003,918.1177537000003,old_fruit_2.png,163,1.0,1.3805798000003051,,,049,11,2025-02-13_14h00.05.288,Surprise recog test,2023.1.3,59.95282911387513,
163,0,163,0,,,,,,,,,,,,,,,,,,,,,,,,,,,,,,,,,,922.1749002000006,923.1841537999999,920.5330983000003,920.5330983000003,920.5330983000003,920.5330983000003,old_sceneIn_10.png,164,2.0,1.645224199999575,,,049,11,2025-02-13_14h00.05.288,Surprise recog test,2023.1.3,59.95282911387513,
164,0,164,0,,,,,,,,,,,,,,,,,,,,,,,,,,,,,,,,,,924.1001136000004,925.1195020000005,923.1841537999999,923.1841537999999,923.1841537999999,923.1841537999999,new_stationery_14.png,165,4.0,0.9115805000001274,,,049,11,2025-02-13_14h00.05.288,Surprise recog test,2023.1.3,59.95282911387513,
165,0,165,0,,,,,,,,,,,,,,,,,,,,,,,,,,,,,,,,,,925.7531354000002,926.7861326000002,925.1195020000005,925.1195020000005,925.1195020000005,925.1195020000005,old_stationery_11.png,166,4.0,0.6289572000005137,,,049,11,2025-02-13_14h00.05.288,Surprise recog test,2023.1.3,59.95282911387513,
166,0,166,0,,,,,,,,,,,,,,,,,,,,,,,,,,,,,,,,,,927.6008456999998,,926.7861326000002,926.7861326000002,926.7861326000002,926.7861326000002,new_stationery_32.png,167,5.0,0.8198879000001398,,,049,11,2025-02-13_14h00.05.288,Surprise recog test,2023.1.3,59.95282911387513,
167,0,167,0,,,,,,,,,,,,,,,,,,,,,,,,,,,,,,,,,,929.3485115000003,930.3692274000005,928.6349301999999,928.6349301999999,928.6349301999999,928.6349301999999,new_sceneIn_25.png,168,5.0,0.7169758000000002,,,049,11,2025-02-13_14h00.05.288,Surprise recog test,2023.1.3,59.95282911387513,
168,0,168,0,,,,,,,,,,,,,,,,,,,,,,,,,,,,,,,,,,931.0401947999999,932.0707809000005,930.3692274000005,930.3692274000005,930.3692274000005,930.3692274000005,old_sceneIn_37.png,169,5.0,0.6711408999999549,,,049,11,2025-02-13_14h00.05.288,Surprise recog test,2023.1.3,59.95282911387513,
169,0,169,0,,,,,,,,,,,,,,,,,,,,,,,,,,,,,,,,,,932.6656567,933.6812444000007,932.0707809000005,932.0707809000005,932.0707809000005,932.0707809000005,new_stationery_11.png,170,5.0,0.5962513000004037,,,049,11,2025-02-13_14h00.05.288,Surprise recog test,2023.1.3,59.95282911387513,
170,0,170,0,,,,,,,,,,,,,,,,,,,,,,,,,,,,,,,,,,934.0738891000001,935.1001504000005,933.6812444000007,933.6812444000007,933.6812444000007,933.6812444000007,old_fruit_17.png,171,5.0,0.3904990999999427,,,049,11,2025-02-13_14h00.05.288,Surprise recog test,2023.1.3,59.95282911387513,
171,0,171,0,,,,,,,,,,,,,,,,,,,,,,,,,,,,,,,,,,935.5199106,936.5446755000003,935.1001504000005,935.1001504000005,935.1001504000005,935.1001504000005,new_sceneIn_49.png,172,5.0,0.42064729999947303,,,049,11,2025-02-13_14h00.05.288,Surprise recog test,2023.1.3,59.95282911387513,
172,0,172,0,,,,,,,,,,,,,,,,,,,,,,,,,,,,,,,,,,936.9548350000005,937.9757921999999,936.5446755000003,936.5446755000003,936.5446755000003,936.5446755000003,old_sceneIn_38.png,173,5.0,0.4089003999997658,,,049,11,2025-02-13_14h00.05.288,Surprise recog test,2023.1.3,59.95282911387513,
173,0,173,0,,,,,,,,,,,,,,,,,,,,,,,,,,,,,,,,,,938.5352401999999,939.5474903000004,937.9757921999999,937.9757921999999,937.9757921999999,937.9757921999999,old_stationery_20.png,174,5.0,0.5616085999999996,,,049,11,2025-02-13_14h00.05.288,Surprise recog test,2023.1.3,59.95282911387513,
174,0,174,0,,,,,,,,,,,,,,,,,,,,,,,,,,,,,,,,,,940.0148307,941.0396157000005,939.5474903000004,939.5474903000004,939.5474903000004,939.5474903000004,old_sceneIn_18.png,175,5.0,0.46055559999967954,,,049,11,2025-02-13_14h00.05.288,Surprise recog test,2023.1.3,59.95282911387513,
175,0,175,0,,,,,,,,,,,,,,,,,,,,,,,,,,,,,,,,,,942.5814028000004,943.6271708000004,941.0396157000005,941.0396157000005,941.0396157000005,941.0396157000005,new_fruit_20.png,176,2.0,1.5427193999994415,,,049,11,2025-02-13_14h00.05.288,Surprise recog test,2023.1.3,59.95282911387513,
176,0,176,0,,,,,,,,,,,,,,,,,,,,,,,,,,,,,,,,,,944.1838612000001,945.2113927,943.6271708000004,943.6271708000004,943.6271708000004,943.6271708000004,new_fruit_28.png,177,5.0,0.5649261999997179,,,049,11,2025-02-13_14h00.05.288,Surprise recog test,2023.1.3,59.95282911387513,
177,0,177,0,,,,,,,,,,,,,,,,,,,,,,,,,,,,,,,,,,945.6287707000001,946.6469111000006,945.2113927,945.2113927,945.2113927,945.2113927,old_sceneOut_12.png,178,5.0,0.4151036000002932,,,049,11,2025-02-13_14h00.05.288,Surprise recog test,2023.1.3,59.95282911387513,
178,0,178,0,,,,,,,,,,,,,,,,,,,,,,,,,,,,,,,,,,947.2429780000002,948.2552642,946.6469111000006,946.6469111000006,946.6469111000006,946.6469111000006,new_sceneIn_17.png,179,5.0,0.5975320999996256,,,049,11,2025-02-13_14h00.05.288,Surprise recog test,2023.1.3,59.95282911387513,
179,0,179,0,,,,,,,,,,,,,,,,,,,,,,,,,,,,,,,,,,948.6220197000002,949.6542999000003,948.2552642,948.2552642,948.2552642,948.2552642,new_sceneOut_6.png,180,5.0,0.3607395999997607,,,049,11,2025-02-13_14h00.05.288,Surprise recog test,2023.1.3,59.95282911387513,
180,0,180,0,,,,,,,,,,,,,,,,,,,,,,,,,,,,,,,,,,950.0825947000003,951.0913547999999,949.6542999000003,949.6542999000003,949.6542999000003,949.6542999000003,old_sceneIn_46.png,181,5.0,0.42466289999993023,,,049,11,2025-02-13_14h00.05.288,Surprise recog test,2023.1.3,59.95282911387513,
181,0,181,0,,,,,,,,,,,,,,,,,,,,,,,,,,,,,,,,,,951.4278855000002,952.4379655000002,951.0913547999999,951.0913547999999,951.0913547999999,951.0913547999999,old_sceneOut_7.png,182,5.0,0.33157159999973373,,,049,11,2025-02-13_14h00.05.288,Surprise recog test,2023.1.3,59.95282911387513,
182,0,182,0,,,,,,,,,,,,,,,,,,,,,,,,,,,,,,,,,,952.7323932999998,953.7540015000004,952.4379655000002,952.4379655000002,952.4379655000002,952.4379655000002,new_sceneIn_48.png,183,5.0,0.2896322999995391,,,049,11,2025-02-13_14h00.05.288,Surprise recog test,2023.1.3,59.95282911387513,
183,0,183,0,,,,,,,,,,,,,,,,,,,,,,,,,,,,,,,,,,954.0407873000004,955.0677174000002,953.7540015000004,953.7540015000004,953.7540015000004,953.7540015000004,new_fruit_1.png,184,5.0,0.2887330000003203,,,049,11,2025-02-13_14h00.05.288,Surprise recog test,2023.1.3,59.95282911387513,
184,0,184,0,,,,,,,,,,,,,,,,,,,,,,,,,,,,,,,,,,955.6728001000001,,955.0677174000002,955.0677174000002,955.0677174000002,955.0677174000002,new_fruit_26.png,185,5.0,0.6067542000000685,,,049,11,2025-02-13_14h00.05.288,Surprise recog test,2023.1.3,59.95282911387513,
185,0,185,0,,,,,,,,,,,,,,,,,,,,,,,,,,,,,,,,,,956.9550671000006,957.9630456000004,956.6950734000002,956.6950734000002,956.6950734000002,956.6950734000002,new_stationery_40.png,186,5.0,0.2557254000003013,,,049,11,2025-02-13_14h00.05.288,Surprise recog test,2023.1.3,59.95282911387513,
186,0,186,0,,,,,,,,,,,,,,,,,,,,,,,,,,,,,,,,,,958.2837236000005,959.3054105000001,957.9630456000004,957.9630456000004,957.9630456000004,957.9630456000004,new_sceneOut_46.png,187,5.0,0.31640109999989363,,,049,11,2025-02-13_14h00.05.288,Surprise recog test,2023.1.3,59.95282911387513,
187,0,187,0,,,,,,,,,,,,,,,,,,,,,,,,,,,,,,,,,,959.8378368000003,960.8639609000002,959.3054105000001,959.3054105000001,959.3054105000001,959.3054105000001,old_fruit_18.png,188,5.0,0.5292546000000584,,,049,11,2025-02-13_14h00.05.288,Surprise recog test,2023.1.3,59.95282911387513,
188,0,188,0,,,,,,,,,,,,,,,,,,,,,,,,,,,,,,,,,,962.0502808000001,963.0820369000003,960.8639609000002,960.8639609000002,960.8639609000002,960.8639609000002,old_fruit_48.png,189,1.0,1.1895912999998473,,,049,11,2025-02-13_14h00.05.288,Surprise recog test,2023.1.3,59.95282911387513,
189,0,189,0,,,,,,,,,,,,,,,,,,,,,,,,,,,,,,,,,,964.1536004999998,965.1696816000003,963.0820369000003,963.0820369000003,963.0820369000003,963.0820369000003,old_sceneOut_10.png,190,2.0,1.0759080999996513,,,049,11,2025-02-13_14h00.05.288,Surprise recog test,2023.1.3,59.95282911387513,
190,0,190,0,,,,,,,,,,,,,,,,,,,,,,,,,,,,,,,,,,966.8181838,967.8372063000006,965.1696816000003,965.1696816000003,965.1696816000003,965.1696816000003,old_sceneIn_26.png,191,3.0,1.6428147000005993,,,049,11,2025-02-13_14h00.05.288,Surprise recog test,2023.1.3,59.95282911387513,
191,0,191,0,,,,,,,,,,,,,,,,,,,,,,,,,,,,,,,,,,968.4977694999998,969.5064250000005,967.8372063000006,967.8372063000006,967.8372063000006,967.8372063000006,new_sceneOut_26.png,192,3.0,0.650118300000031,,,049,11,2025-02-13_14h00.05.288,Surprise recog test,2023.1.3,59.95282911387513,
192,0,192,0,,,,,,,,,,,,,,,,,,,,,,,,,,,,,,,,,,970.7720035000002,971.8075789000004,969.5064250000005,969.5064250000005,969.5064250000005,969.5064250000005,new_stationery_20.png,193,4.0,1.2609496999994008,,,049,11,2025-02-13_14h00.05.288,Surprise recog test,2023.1.3,59.95282911387513,
193,0,193,0,,,,,,,,,,,,,,,,,,,,,,,,,,,,,,,,,,972.4586374999999,973.4886094000003,971.8075789000004,971.8075789000004,971.8075789000004,971.8075789000004,new_stationery_16.png,194,4.0,0.6540050000003248,,,049,11,2025-02-13_14h00.05.288,Surprise recog test,2023.1.3,59.95282911387513,
194,0,194,0,,,,,,,,,,,,,,,,,,,,,,,,,,,,,,,,,,974.3190957000006,975.3425533999998,973.4886094000003,973.4886094000003,973.4886094000003,973.4886094000003,old_sceneOut_38.png,195,4.0,0.8331837999994605,,,049,11,2025-02-13_14h00.05.288,Surprise recog test,2023.1.3,59.95282911387513,
195,0,195,0,,,,,,,,,,,,,,,,,,,,,,,,,,,,,,,,,,977.5309936000003,978.5519685999998,975.3425533999998,975.3425533999998,975.3425533999998,975.3425533999998,old_sceneIn_15.png,196,4.0,2.189356300000327,,,049,11,2025-02-13_14h00.05.288,Surprise recog test,2023.1.3,59.95282911387513,
196,0,196,0,,,,,,,,,,,,,,,,,,,,,,,,,,,,,,,,,,979.2901335000006,980.2978289000002,978.5519685999998,978.5519685999998,978.5519685999998,978.5519685999998,old_sceneIn_6.png,197,4.0,0.739465100000416,,,049,11,2025-02-13_14h00.05.288,Surprise recog test,2023.1.3,59.95282911387513,
197,0,197,0,,,,,,,,,,,,,,,,,,,,,,,,,,,,,,,,,,981.9797675,,980.2978289000002,980.2978289000002,980.2978289000002,980.2978289000002,new_fruit_7.png,198,1.0,1.6782754999994722,,,049,11,2025-02-13_14h00.05.288,Surprise recog test,2023.1.3,59.95282911387513,
198,0,198,0,,,,,,,,,,,,,,,,,,,,,,,,,,,,,,,,,,984.2140036999999,,982.9981475000004,982.9981475000004,982.9981475000004,982.9981475000004,old_sceneOut_18.png,199,4.0,1.2136633000000074,,,049,11,2025-02-13_14h00.05.288,Surprise recog test,2023.1.3,59.95282911387513,
199,0,199,0,,,,,,,,,,,,,,,,,,,,,,,,,,,,,,,,,,985.8866520000001,986.9145142000007,985.2475682000004,985.2475682000004,985.2475682000004,985.2475682000004,old_stationery_42.png,200,4.0,0.6411307999997007,,,049,11,2025-02-13_14h00.05.288,Surprise recog test,2023.1.3,59.95282911387513,
200,0,200,0,,,,,,,,,,,,,,,,,,,,,,,,,,,,,,,,,,987.5448167000004,988.5627979000001,986.9145142000007,986.9145142000007,986.9145142000007,986.9145142000007,old_stationery_47.png,201,4.0,0.6338359000001219,,,049,11,2025-02-13_14h00.05.288,Surprise recog test,2023.1.3,59.95282911387513,
201,0,201,0,,,,,,,,,,,,,,,,,,,,,,,,,,,,,,,,,,989.8010983000004,,988.5627979000001,988.5627979000001,988.5627979000001,988.5627979000001,new_fruit_48.png,202,3.0,1.237742299999809,,,049,11,2025-02-13_14h00.05.288,Surprise recog test,2023.1.3,59.95282911387513,
202,0,202,0,,,,,,,,,,,,,,,,,,,,,,,,,,,,,,,,,,991.3579633999998,992.3851284000002,990.8368721000006,990.8368721000006,990.8368721000006,990.8368721000006,old_sceneIn_4.png,203,4.0,0.5225729000003412,,,049,11,2025-02-13_14h00.05.288,Surprise recog test,2023.1.3,59.95282911387513,
203,0,203,0,,,,,,,,,,,,,,,,,,,,,,,,,,,,,,,,,,992.8179828000002,993.8405616999999,992.3851284000002,992.3851284000002,992.3851284000002,992.3851284000002,new_stationery_15.png,204,4.0,0.4281578999998601,,,049,11,2025-02-13_14h00.05.288,Surprise recog test,2023.1.3,59.95282911387513,
204,0,204,0,,,,,,,,,,,,,,,,,,,,,,,,,,,,,,,,,,994.0383606000005,,993.8405616999999,993.8405616999999,993.8405616999999,993.8405616999999,new_sceneOut_50.png,205,4.0,0.2000744000006307,,,049,11,2025-02-13_14h00.05.288,Surprise recog test,2023.1.3,59.95282911387513,
205,0,205,0,,,,,,,,,,,,,,,,,,,,,,,,,,,,,,,,,,995.6248427999999,996.6526451,995.0693900000006,995.0693900000006,995.0693900000006,995.0693900000006,new_stationery_22.png,206,4.0,0.5596863999999186,,,049,11,2025-02-13_14h00.05.288,Surprise recog test,2023.1.3,59.95282911387513,
206,0,206,0,,,,,,,,,,,,,,,,,,,,,,,,,,,,,,,,,,997.1366314000006,998.1632688,996.6526451,996.6526451,996.6526451,996.6526451,old_stationery_24.png,207,4.0,0.48405989999992016,,,049,11,2025-02-13_14h00.05.288,Surprise recog test,2023.1.3,59.95282911387513,
207,0,207,0,,,,,,,,,,,,,,,,,,,,,,,,,,,,,,,,,,998.4731090000005,999.4871291,998.1632688,998.1632688,998.1632688,998.1632688,old_sceneIn_19.png,208,4.0,0.3127641000000949,,,049,11,2025-02-13_14h00.05.288,Surprise recog test,2023.1.3,59.95282911387513,
208,0,208,0,,,,,,,,,,,,,,,,,,,,,,,,,,,,,,,,,,999.7836123000006,1000.7949716000003,999.4871291,999.4871291,999.4871291,999.4871291,old_sceneIn_43.png,209,4.0,0.2978534000003492,,,049,11,2025-02-13_14h00.05.288,Surprise recog test,2023.1.3,59.95282911387513,
209,0,209,0,,,,,,,,,,,,,,,,,,,,,,,,,,,,,,,,,,1001.0312271000003,1002.0561072,1000.7949716000003,1000.7949716000003,1000.7949716000003,1000.7949716000003,old_sceneOut_16.png,210,4.0,0.23134289999961766,,,049,11,2025-02-13_14h00.05.288,Surprise recog test,2023.1.3,59.95282911387513,
210,0,210,0,,,,,,,,,,,,,,,,,,,,,,,,,,,,,,,,,,1002.4091542000006,1003.4286489000006,1002.0561072,1002.0561072,1002.0561072,1002.0561072,old_stationery_34.png,211,4.0,0.3485646999997698,,,049,11,2025-02-13_14h00.05.288,Surprise recog test,2023.1.3,59.95282911387513,
211,0,211,0,,,,,,,,,,,,,,,,,,,,,,,,,,,,,,,,,,1005.1400254999999,1006.1645998000004,1003.4286489000006,1003.4286489000006,1003.4286489000006,1003.4286489000006,old_sceneIn_39.png,212,1.0,1.7127808000004734,,,049,11,2025-02-13_14h00.05.288,Surprise recog test,2023.1.3,59.95282911387513,
212,0,212,0,,,,,,,,,,,,,,,,,,,,,,,,,,,,,,,,,,1007.9468093000005,1008.9685464000004,1006.1645998000004,1006.1645998000004,1006.1645998000004,1006.1645998000004,old_sceneOut_29.png,213,5.0,1.7812638000004881,,,049,11,2025-02-13_14h00.05.288,Surprise recog test,2023.1.3,59.95282911387513,
213,0,213,0,,,,,,,,,,,,,,,,,,,,,,,,,,,,,,,,,,1011.0435391999999,1012.0583893000003,1008.9685464000004,1008.9685464000004,1008.9685464000004,1008.9685464000004,new_sceneIn_8.png,214,4.0,2.077843600000051,,,049,11,2025-02-13_14h00.05.288,Surprise recog test,2023.1.3,59.95282911387513,
214,0,214,0,,,,,,,,,,,,,,,,,,,,,,,,,,,,,,,,,,1013.7343731000001,1014.7527095000005,1012.0583893000003,1012.0583893000003,1012.0583893000003,1012.0583893000003,new_sceneOut_11.png,215,5.0,1.6711457999999766,,,049,11,2025-02-13_14h00.05.288,Surprise recog test,2023.1.3,59.95282911387513,
215,0,215,0,,,,,,,,,,,,,,,,,,,,,,,,,,,,,,,,,,1015.9905398000001,,1014.7527095000005,1014.7527095000005,1014.7527095000005,1014.7527095000005,new_sceneOut_20.png,216,5.0,1.2394184000004316,,,049,11,2025-02-13_14h00.05.288,Surprise recog test,2023.1.3,59.95282911387513,
216,0,216,0,,,,,,,,,,,,,,,,,,,,,,,,,,,,,,,,,,1017.7929355000006,,1017.0237969,1017.0237969,1017.0237969,1017.0237969,new_sceneOut_18.png,217,5.0,0.7703633000000991,,,049,11,2025-02-13_14h00.05.288,Surprise recog test,2023.1.3,59.95282911387513,
217,0,217,0,,,,,,,,,,,,,,,,,,,,,,,,,,,,,,,,,,1019.9684913000001,1020.9929808000006,1018.8203742000005,1018.8203742000005,1018.8203742000005,1018.8203742000005,new_sceneIn_41.png,218,5.0,1.1495724999995218,,,049,11,2025-02-13_14h00.05.288,Surprise recog test,2023.1.3,59.95282911387513,
218,0,218,0,,,,,,,,,,,,,,,,,,,,,,,,,,,,,,,,,,1021.6752348,1022.69679,1020.9929808000006,1020.9929808000006,1020.9929808000006,1020.9929808000006,new_sceneOut_40.png,219,5.0,0.6806520000000091,,,049,11,2025-02-13_14h00.05.288,Surprise recog test,2023.1.3,59.95282911387513,
219,0,219,0,,,,,,,,,,,,,,,,,,,,,,,,,,,,,,,,,,1025.3054837,1026.3305954000007,1022.69679,1022.69679,1022.69679,1022.69679,old_stationery_25.png,220,1.0,2.6120607000002565,,,049,11,2025-02-13_14h00.05.288,Surprise recog test,2023.1.3,59.95282911387513,
220,0,220,0,,,,,,,,,,,,,,,,,,,,,,,,,,,,,,,,,,1027.2967353000004,1028.3066415000003,1026.3305954000007,1026.3305954000007,1026.3305954000007,1026.3305954000007,new_sceneOut_38.png,221,4.0,0.9677018000002136,,,049,11,2025-02-13_14h00.05.288,Surprise recog test,2023.1.3,59.95282911387513,
221,0,221,0,,,,,,,,,,,,,,,,,,,,,,,,,,,,,,,,,,1028.8966627999998,1029.9167105000006,1028.3066415000003,1028.3066415000003,1028.3066415000003,1028.3066415000003,old_stationery_23.png,222,4.0,0.5873362000002089,,,049,11,2025-02-13_14h00.05.288,Surprise recog test,2023.1.3,59.95282911387513,
222,0,222,0,,,,,,,,,,,,,,,,,,,,,,,,,,,,,,,,,,1031.0996215000005,1032.1229207000006,1029.9167105000006,1029.9167105000006,1029.9167105000006,1029.9167105000006,old_sceneIn_49.png,223,4.0,1.180140499999652,,,049,11,2025-02-13_14h00.05.288,Surprise recog test,2023.1.3,59.95282911387513,
223,0,223,0,,,,,,,,,,,,,,,,,,,,,,,,,,,,,,,,,,1033.4563674,,1032.1229207000006,1032.1229207000006,1032.1229207000006,1032.1229207000006,old_fruit_11.png,224,1.0,1.3348432000002504,,,049,11,2025-02-13_14h00.05.288,Surprise recog test,2023.1.3,59.95282911387513,
224,0,224,0,,,,,,,,,,,,,,,,,,,,,,,,,,,,,,,,,,1036.1824474000005,1037.1919687999998,1034.4754680000005,1034.4754680000005,1034.4754680000005,1034.4754680000005,old_sceneIn_20.png,225,5.0,1.703142200000002,,,049,11,2025-02-13_14h00.05.288,Surprise recog test,2023.1.3,59.95282911387513,
225,0,225,0,,,,,,,,,,,,,,,,,,,,,,,,,,,,,,,,,,1038.6394399,1039.6633161999998,1037.1919687999998,1037.1919687999998,1037.1919687999998,1037.1919687999998,old_sceneIn_34.png,226,3.0,1.4427078000007896,,,049,11,2025-02-13_14h00.05.288,Surprise recog test,2023.1.3,59.95282911387513,
226,0,226,0,,,,,,,,,,,,,,,,,,,,,,,,,,,,,,,,,,1042.7262305000004,1043.7471686,1039.6633161999998,1039.6633161999998,1039.6633161999998,1039.6633161999998,old_sceneOut_8.png,227,4.0,3.0666174999996656,,,049,11,2025-02-13_14h00.05.288,Surprise recog test,2023.1.3,59.95282911387513,
227,0,227,0,,,,,,,,,,,,,,,,,,,,,,,,,,,,,,,,,,1044.4437685000003,1045.4645586000006,1043.7471686,1043.7471686,1043.7471686,1043.7471686,old_sceneOut_37.png,228,4.0,0.6965081999996983,,,049,11,2025-02-13_14h00.05.288,Surprise recog test,2023.1.3,59.95282911387513,
228,0,228,0,,,,,,,,,,,,,,,,,,,,,,,,,,,,,,,,,,1046.0396102000004,1047.0650506000002,1045.4645586000006,1045.4645586000006,1045.4645586000006,1045.4645586000006,new_stationery_10.png,229,4.0,0.5773585999995703,,,049,11,2025-02-13_14h00.05.288,Surprise recog test,2023.1.3,59.95282911387513,
229,0,229,0,,,,,,,,,,,,,,,,,,,,,,,,,,,,,,,,,,1047.7173626000003,,1047.0650506000002,1047.0650506000002,1047.0650506000002,1047.0650506000002,old_stationery_28.png,230,4.0,0.6546132999992551,,,049,11,2025-02-13_14h00.05.288,Surprise recog test,2023.1.3,59.95282911387513,
230,0,230,0,,,,,,,,,,,,,,,,,,,,,,,,,,,,,,,,,,1050.2715130000006,1051.2910769999999,1048.7538789,1048.7538789,1048.7538789,1048.7538789,new_stationery_4.png,231,2.0,1.521463600000061,,,049,11,2025-02-13_14h00.05.288,Surprise recog test,2023.1.3,59.95282911387513,
231,0,231,0,,,,,,,,,,,,,,,,,,,,,,,,,,,,,,,,,,1052.6184445,1053.6389264999998,1051.2910769999999,1051.2910769999999,1051.2910769999999,1051.2910769999999,old_sceneIn_8.png,232,3.0,1.3233102000003782,,,049,11,2025-02-13_14h00.05.288,Surprise recog test,2023.1.3,59.95282911387513,
232,0,232,0,,,,,,,,,,,,,,,,,,,,,,,,,,,,,,,,,,1054.7205938000006,1055.7273613000007,1053.6389264999998,1053.6389264999998,1053.6389264999998,1053.6389264999998,old_sceneIn_35.png,233,4.0,1.0842810999993162,,,049,11,2025-02-13_14h00.05.288,Surprise recog test,2023.1.3,59.95282911387513,
233,0,233,0,,,,,,,,,,,,,,,,,,,,,,,,,,,,,,,,,,1057.2444198000003,1058.2600836000001,1055.7273613000007,1055.7273613000007,1055.7273613000007,1055.7273613000007,old_fruit_39.png,234,1.0,1.5129443000005267,,,049,11,2025-02-13_14h00.05.288,Surprise recog test,2023.1.3,59.95282911387513,
234,0,234,0,,,,,,,,,,,,,,,,,,,,,,,,,,,,,,,,,,1058.8180409000006,1059.8345447000002,1058.2600836000001,1058.2600836000001,1058.2600836000001,1058.2600836000001,new_sceneIn_35.png,235,4.0,0.5534263999998075,,,049,11,2025-02-13_14h00.05.288,Surprise recog test,2023.1.3,59.95282911387513,
235,0,235,0,,,,,,,,,,,,,,,,,,,,,,,,,,,,,,,,,,1060.2467567000003,1061.2655310999999,1059.8345447000002,1059.8345447000002,1059.8345447000002,1059.8345447000002,new_sceneOut_27.png,236,4.0,0.4091253999995388,,,049,11,2025-02-13_14h00.05.288,Surprise recog test,2023.1.3,59.95282911387513,
236,0,236,0,,,,,,,,,,,,,,,,,,,,,,,,,,,,,,,,,,1062.7520835000005,1063.7673817000004,1061.2655310999999,1061.2655310999999,1061.2655310999999,1061.2655310999999,old_fruit_1.png,237,1.0,1.4827734000000419,,,049,11,2025-02-13_14h00.05.288,Surprise recog test,2023.1.3,59.95282911387513,
237,0,237,0,,,,,,,,,,,,,,,,,,,,,,,,,,,,,,,,,,1064.6821924000005,1065.7088697999998,1063.7673817000004,1063.7673817000004,1063.7673817000004,1063.7673817000004,new_stationery_18.png,238,5.0,0.9100264999997307,,,049,11,2025-02-13_14h00.05.288,Surprise recog test,2023.1.3,59.95282911387513,
238,0,238,0,,,,,,,,,,,,,,,,,,,,,,,,,,,,,,,,,,1067.6665124,,1065.7088697999998,1065.7088697999998,1065.7088697999998,1065.7088697999998,new_fruit_27.png,239,2.0,1.9574549999997544,,,049,11,2025-02-13_14h00.05.288,Surprise recog test,2023.1.3,59.95282911387513,
239,0,239,0,,,,,,,,,,,,,,,,,,,,,,,,,,,,,,,,,,1070.3710895000004,1071.4047217000007,1068.6848375999998,1068.6848375999998,1068.6848375999998,1068.6848375999998,old_sceneOut_9.png,240,4.0,1.6833383000002868,,,049,11,2025-02-13_14h00.05.288,Surprise recog test,2023.1.3,59.95282911387513,
240,0,240,0,,,,,,,,,,,,,,,,,,,,,,,,,,,,,,,,,,1073.6354521000003,1074.6535859000005,1071.4047217000007,1071.4047217000007,1071.4047217000007,1071.4047217000007,new_fruit_2.png,241,1.0,2.2342659999994794,,,049,11,2025-02-13_14h00.05.288,Surprise recog test,2023.1.3,59.95282911387513,
241,0,241,0,,,,,,,,,,,,,,,,,,,,,,,,,,,,,,,,,,1076.3060317,,1074.6535859000005,1074.6535859000005,1074.6535859000005,1074.6535859000005,new_sceneIn_19.png,242,4.0,1.6517134999994596,,,049,11,2025-02-13_14h00.05.288,Surprise recog test,2023.1.3,59.95282911387513,
242,0,242,0,,,,,,,,,,,,,,,,,,,,,,,,,,,,,,,,,,1079.4313578000001,1080.4485518000001,1077.3279309,1077.3279309,1077.3279309,1077.3279309,new_fruit_25.png,243,2.0,2.099619800000255,,,049,11,2025-02-13_14h00.05.288,Surprise recog test,2023.1.3,59.95282911387513,
243,0,243,0,,,,,,,,,,,,,,,,,,,,,,,,,,,,,,,,,,1082.1134164000005,1083.1445258000003,1080.4485518000001,1080.4485518000001,1080.4485518000001,1080.4485518000001,new_fruit_44.png,244,4.0,1.6610036000001855,,,049,11,2025-02-13_14h00.05.288,Surprise recog test,2023.1.3,59.95282911387513,
244,0,244,0,,,,,,,,,,,,,,,,,,,,,,,,,,,,,,,,,,1083.7183344000005,1084.7461408,1083.1445258000003,1083.1445258000003,1083.1445258000003,1083.1445258000003,old_sceneOut_11.png,245,4.0,0.5767366999998558,,,049,11,2025-02-13_14h00.05.288,Surprise recog test,2023.1.3,59.95282911387513,
245,0,245,0,,,,,,,,,,,,,,,,,,,,,,,,,,,,,,,,,,1086.7220134,1087.7484281000006,1084.7461408,1084.7461408,1084.7461408,1084.7461408,old_fruit_14.png,246,4.0,1.9754322999997385,,,049,11,2025-02-13_14h00.05.288,Surprise recog test,2023.1.3,59.95282911387513,
246,0,246,0,,,,,,,,,,,,,,,,,,,,,,,,,,,,,,,,,,1088.3642623000005,1089.383914,1087.7484281000006,1087.7484281000006,1087.7484281000006,1087.7484281000006,old_sceneIn_22.png,247,4.0,0.6178176000003077,,,049,11,2025-02-13_14h00.05.288,Surprise recog test,2023.1.3,59.95282911387513,
247,0,247,0,,,,,,,,,,,,,,,,,,,,,,,,,,,,,,,,,,1091.0085383000005,1092.0244659,1089.383914,1089.383914,1089.383914,1089.383914,old_fruit_26.png,248,2.0,1.6275776000002224,,,049,11,2025-02-13_14h00.05.288,Surprise recog test,2023.1.3,59.95282911387513,
248,0,248,0,,,,,,,,,,,,,,,,,,,,,,,,,,,,,,,,,,1093.2511826999998,1094.2723916000004,1092.0244659,1092.0244659,1092.0244659,1092.0244659,old_sceneIn_47.png,249,4.0,1.2188977000005252,,,049,11,2025-02-13_14h00.05.288,Surprise recog test,2023.1.3,59.95282911387513,
249,0,249,0,,,,,,,,,,,,,,,,,,,,,,,,,,,,,,,,,,1095.0048230000002,,1094.2723916000004,1094.2723916000004,1094.2723916000004,1094.2723916000004,old_fruit_3.png,250,4.0,0.7350422999998045,,,049,11,2025-02-13_14h00.05.288,Surprise recog test,2023.1.3,59.95282911387513,
250,0,250,0,,,,,,,,,,,,,,,,,,,,,,,,,,,,,,,,,,1096.7912496,,1096.0397596000003,1096.0397596000003,1096.0397596000003,1096.0397596000003,old_stationery_19.png,251,4.0,0.7505307000001267,,,049,11,2025-02-13_14h00.05.288,Surprise recog test,2023.1.3,59.95282911387513,
251,0,251,0,,,,,,,,,,,,,,,,,,,,,,,,,,,,,,,,,,1098.6610463000006,1099.6917369000003,1097.8203093000002,1097.8203093000002,1097.8203093000002,1097.8203093000002,new_fruit_50.png,252,4.0,0.837473300000056,,,049,11,2025-02-13_14h00.05.288,Surprise recog test,2023.1.3,59.95282911387513,
252,0,252,0,,,,,,,,,,,,,,,,,,,,,,,,,,,,,,,,,,1100.3457259000006,1101.3616133000005,1099.6917369000003,1099.6917369000003,1099.6917369000003,1099.6917369000003,new_sceneIn_23.png,253,4.0,0.6565118999997139,,,049,11,2025-02-13_14h00.05.288,Surprise recog test,2023.1.3,59.95282911387513,
253,0,253,0,,,,,,,,,,,,,,,,,,,,,,,,,,,,,,,,,,1101.9764753999998,1102.9805102999999,1101.3616133000005,1101.3616133000005,1101.3616133000005,1101.3616133000005,old_stationery_31.png,254,4.0,0.6098029999993742,,,049,11,2025-02-13_14h00.05.288,Surprise recog test,2023.1.3,59.95282911387513,
254,0,254,0,,,,,,,,,,,,,,,,,,,,,,,,,,,,,,,,,,1105.2007283000003,1106.2191604999998,1102.9805102999999,1102.9805102999999,1102.9805102999999,1102.9805102999999,new_fruit_32.png,255,3.0,2.2162795000003825,,,049,11,2025-02-13_14h00.05.288,Surprise recog test,2023.1.3,59.95282911387513,
255,0,255,0,,,,,,,,,,,,,,,,,,,,,,,,,,,,,,,,,,1107.2995385000004,,1106.2191604999998,1106.2191604999998,1106.2191604999998,1106.2191604999998,old_stationery_22.png,256,4.0,1.074271399999816,,,049,11,2025-02-13_14h00.05.288,Surprise recog test,2023.1.3,59.95282911387513,
256,0,256,0,,,,,,,,,,,,,,,,,,,,,,,,,,,,,,,,,,1109.0626711000004,1110.0722087000004,1108.3316899000001,1108.3316899000001,1108.3316899000001,1108.3316899000001,old_sceneOut_17.png,257,4.0,0.7324571999997715,,,049,11,2025-02-13_14h00.05.288,Surprise recog test,2023.1.3,59.95282911387513,
257,0,257,0,,,,,,,,,,,,,,,,,,,,,,,,,,,,,,,,,,1111.3318074,1112.3423535000002,1110.0722087000004,1110.0722087000004,1110.0722087000004,1110.0722087000004,old_fruit_38.png,258,4.0,1.2557008000003407,,,049,11,2025-02-13_14h00.05.288,Surprise recog test,2023.1.3,59.95282911387513,
258,0,258,0,,,,,,,,,,,,,,,,,,,,,,,,,,,,,,,,,,1113.1344107000004,1114.1554707000005,1112.3423535000002,1112.3423535000002,1112.3423535000002,1112.3423535000002,old_sceneOut_42.png,259,4.0,0.7814223000004858,,,049,11,2025-02-13_14h00.05.288,Surprise recog test,2023.1.3,59.95282911387513,
259,0,259,0,,,,,,,,,,,,,,,,,,,,,,,,,,,,,,,,,,1115.5910844999999,1116.6159533,1114.1554707000005,1114.1554707000005,1114.1554707000005,1114.1554707000005,new_stationery_45.png,260,4.0,1.437915299999986,,,049,11,2025-02-13_14h00.05.288,Surprise recog test,2023.1.3,59.95282911387513,
260,0,260,0,,,,,,,,,,,,,,,,,,,,,,,,,,,,,,,,,,1117.0706203,1118.0900508000004,1116.6159533,1116.6159533,1116.6159533,1116.6159533,new_sceneOut_4.png,261,4.0,0.45080940000025294,,,049,11,2025-02-13_14h00.05.288,Surprise recog test,2023.1.3,59.95282911387513,
261,0,261,0,,,,,,,,,,,,,,,,,,,,,,,,,,,,,,,,,,1118.4416191999999,,1118.0900508000004,1118.0900508000004,1118.0900508000004,1118.0900508000004,old_sceneOut_47.png,262,4.0,0.3533874000004289,,,049,11,2025-02-13_14h00.05.288,Surprise recog test,2023.1.3,59.95282911387513,
262,0,262,0,,,,,,,,,,,,,,,,,,,,,,,,,,,,,,,,,,1121.1160027000005,1122.1356449000004,1119.4736624000006,1119.4736624000006,1119.4736624000006,1119.4736624000006,old_fruit_29.png,263,2.0,1.6441365999999107,,,049,11,2025-02-13_14h00.05.288,Surprise recog test,2023.1.3,59.95282911387513,
263,0,263,0,,,,,,,,,,,,,,,,,,,,,,,,,,,,,,,,,,1123.8942932,1124.8990419000002,1122.1356449000004,1122.1356449000004,1122.1356449000004,1122.1356449000004,old_sceneOut_24.png,264,3.0,1.7560348999995767,,,049,11,2025-02-13_14h00.05.288,Surprise recog test,2023.1.3,59.95282911387513,
264,0,264,0,,,,,,,,,,,,,,,,,,,,,,,,,,,,,,,,,,1126.5254273,1127.5478607000005,1124.8990419000002,1124.8990419000002,1124.8990419000002,1124.8990419000002,old_stationery_7.png,265,4.0,1.6214906999994128,,,049,11,2025-02-13_14h00.05.288,Surprise recog test,2023.1.3,59.95282911387513,
265,0,265,0,,,,,,,,,,,,,,,,,,,,,,,,,,,,,,,,,,1129.5503465000002,,1127.5478607000005,1127.5478607000005,1127.5478607000005,1127.5478607000005,old_stationery_3.png,266,4.0,2.0020825000001423,,,049,11,2025-02-13_14h00.05.288,Surprise recog test,2023.1.3,59.95282911387513,
266,0,266,0,,,,,,,,,,,,,,,,,,,,,,,,,,,,,,,,,,1131.993727,1133.0217434000006,1130.5718901,1130.5718901,1130.5718901,1130.5718901,old_stationery_43.png,267,1.0,1.4196303999997326,,,049,11,2025-02-13_14h00.05.288,Surprise recog test,2023.1.3,59.95282911387513,
267,0,267,0,,,,,,,,,,,,,,,,,,,,,,,,,,,,,,,,,,1134.5864488000007,1135.5942787000004,1133.0217434000006,1133.0217434000006,1133.0217434000006,1133.0217434000006,old_sceneOut_44.png,268,4.0,1.5653457999997045,,,049,11,2025-02-13_14h00.05.288,Surprise recog test,2023.1.3,59.95282911387513,
268,0,268,0,,,,,,,,,,,,,,,,,,,,,,,,,,,,,,,,,,1136.3949309999998,1137.4241644000003,1135.5942787000004,1135.5942787000004,1135.5942787000004,1135.5942787000004,new_sceneIn_10.png,269,4.0,0.7961099000003742,,,049,11,2025-02-13_14h00.05.288,Surprise recog test,2023.1.3,59.95282911387513,
269,0,269,0,,,,,,,,,,,,,,,,,,,,,,,,,,,,,,,,,,1138.0237711,1139.0303783999998,1137.4241644000003,1137.4241644000003,1137.4241644000003,1137.4241644000003,new_stationery_33.png,270,4.0,0.6013364000000365,,,049,11,2025-02-13_14h00.05.288,Surprise recog test,2023.1.3,59.95282911387513,
270,0,270,0,,,,,,,,,,,,,,,,,,,,,,,,,,,,,,,,,,1139.4616824000004,1140.4953552000006,1139.0303783999998,1139.0303783999998,1139.0303783999998,1139.0303783999998,old_sceneOut_32.png,271,4.0,0.4257513000002291,,,049,11,2025-02-13_14h00.05.288,Surprise recog test,2023.1.3,59.95282911387513,
271,0,271,0,,,,,,,,,,,,,,,,,,,,,,,,,,,,,,,,,,1141.2720522,1142.2899855000005,1140.4953552000006,1140.4953552000006,1140.4953552000006,1140.4953552000006,new_sceneIn_13.png,272,4.0,0.7797144000005574,,,049,11,2025-02-13_14h00.05.288,Surprise recog test,2023.1.3,59.95282911387513,
272,0,272,0,,,,,,,,,,,,,,,,,,,,,,,,,,,,,,,,,,1143.1027865000005,1144.1297040999998,1142.2899855000005,1142.2899855000005,1142.2899855000005,1142.2899855000005,old_fruit_45.png,273,4.0,0.8127856999999494,,,049,11,2025-02-13_14h00.05.288,Surprise recog test,2023.1.3,59.95282911387513,
273,0,273,0,,,,,,,,,,,,,,,,,,,,,,,,,,,,,,,,,,1145.7912368000007,1146.8148572,1144.1297040999998,1144.1297040999998,1144.1297040999998,1144.1297040999998,new_fruit_35.png,274,2.0,1.6630873000003703,,,049,11,2025-02-13_14h00.05.288,Surprise recog test,2023.1.3,59.95282911387513,
274,0,274,0,,,,,,,,,,,,,,,,,,,,,,,,,,,,,,,,,,1149.0248767000003,1150.0508235000007,1146.8148572,1146.8148572,1146.8148572,1146.8148572,new_fruit_16.png,275,3.0,2.2089007999993555,,,049,11,2025-02-13_14h00.05.288,Surprise recog test,2023.1.3,59.95282911387513,
275,0,275,0,,,,,,,,,,,,,,,,,,,,,,,,,,,,,,,,,,1151.3779503000005,1152.3915926999998,1150.0508235000007,1150.0508235000007,1150.0508235000007,1150.0508235000007,old_fruit_21.png,276,1.0,1.3279549000008046,,,049,11,2025-02-13_14h00.05.288,Surprise recog test,2023.1.3,59.95282911387513,
276,0,276,0,,,,,,,,,,,,,,,,,,,,,,,,,,,,,,,,,,1153.3983816,1154.4257281999999,1152.3915926999998,1152.3915926999998,1152.3915926999998,1152.3915926999998,old_sceneIn_30.png,277,4.0,1.003031700000065,,,049,11,2025-02-13_14h00.05.288,Surprise recog test,2023.1.3,59.95282911387513,
277,0,277,0,,,,,,,,,,,,,,,,,,,,,,,,,,,,,,,,,,1155.2243988999999,1156.2536831000007,1154.4257281999999,1154.4257281999999,1154.4257281999999,1154.4257281999999,new_stationery_27.png,278,4.0,0.8025752000003195,,,049,11,2025-02-13_14h00.05.288,Surprise recog test,2023.1.3,59.95282911387513,
278,0,278,0,,,,,,,,,,,,,,,,,,,,,,,,,,,,,,,,,,1157.0045744,1158.0094809000002,1156.2536831000007,1156.2536831000007,1156.2536831000007,1156.2536831000007,new_sceneOut_10.png,279,4.0,0.7512170999998489,,,049,11,2025-02-13_14h00.05.288,Surprise recog test,2023.1.3,59.95282911387513,
279,0,279,0,,,,,,,,,,,,,,,,,,,,,,,,,,,,,,,,,,1159.4930852000007,,1158.0094809000002,1158.0094809000002,1158.0094809000002,1158.0094809000002,new_fruit_9.png,280,3.0,1.4802661999992779,,,049,11,2025-02-13_14h00.05.288,Surprise recog test,2023.1.3,59.95282911387513,
280,0,280,0,,,,,,,,,,,,,,,,,,,,,,,,,,,,,,,,,,1161.5907162000003,1162.6134315999998,1160.5232422,1160.5232422,1160.5232422,1160.5232422,old_fruit_42.png,281,2.0,1.0694893999998385,,,049,11,2025-02-13_14h00.05.288,Surprise recog test,2023.1.3,59.95282911387513,
281,0,281,0,,,,,,,,,,,,,,,,,,,,,,,,,,,,,,,,,,1164.3367440000002,1165.3498430999998,1162.6134315999998,1162.6134315999998,1162.6134315999998,1162.6134315999998,old_sceneOut_30.png,282,4.0,1.7268321999999898,,,049,11,2025-02-13_14h00.05.288,Surprise recog test,2023.1.3,59.95282911387513,
282,0,282,0,,,,,,,,,,,,,,,,,,,,,,,,,,,,,,,,,,1167.5640021999998,1168.5844631999998,1165.3498430999998,1165.3498430999998,1165.3498430999998,1165.3498430999998,new_fruit_22.png,283,3.0,2.211605299999974,,,049,11,2025-02-13_14h00.05.288,Surprise recog test,2023.1.3,59.95282911387513,
283,0,283,0,,,,,,,,,,,,,,,,,,,,,,,,,,,,,,,,,,1170.5217621000002,1171.5511086000006,1168.5844631999998,1168.5844631999998,1168.5844631999998,1168.5844631999998,new_fruit_46.png,284,3.0,1.9401475000004211,,,049,11,2025-02-13_14h00.05.288,Surprise recog test,2023.1.3,59.95282911387513,
284,0,284,0,,,,,,,,,,,,,,,,,,,,,,,,,,,,,,,,,,1172.9338676000007,1173.9548037000004,1171.5511086000006,1171.5511086000006,1171.5511086000006,1171.5511086000006,new_sceneIn_28.png,285,2.0,1.3840143999996144,,,049,11,2025-02-13_14h00.05.288,Surprise recog test,2023.1.3,59.95282911387513,
285,0,285,0,,,,,,,,,,,,,,,,,,,,,,,,,,,,,,,,,,1175.3195565000005,1176.3282426000005,1173.9548037000004,1173.9548037000004,1173.9548037000004,1173.9548037000004,new_sceneOut_35.png,286,4.0,1.360123499999645,,,049,11,2025-02-13_14h00.05.288,Surprise recog test,2023.1.3,59.95282911387513,
286,0,286,0,,,,,,,,,,,,,,,,,,,,,,,,,,,,,,,,,,1177.3064396,1178.3259982999998,1176.3282426000005,1176.3282426000005,1176.3282426000005,1176.3282426000005,new_sceneIn_40.png,287,5.0,0.9740585999998075,,,049,11,2025-02-13_14h00.05.288,Surprise recog test,2023.1.3,59.95282911387513,
287,0,287,0,,,,,,,,,,,,,,,,,,,,,,,,,,,,,,,,,,1179.4283340000002,1180.4647122000006,1178.3259982999998,1178.3259982999998,1178.3259982999998,1178.3259982999998,old_sceneIn_24.png,288,4.0,1.1061726999996608,,,049,11,2025-02-13_14h00.05.288,Surprise recog test,2023.1.3,59.95282911387513,
288,0,288,0,,,,,,,,,,,,,,,,,,,,,,,,,,,,,,,,,,1181.5038495,1182.5285916000003,1180.4647122000006,1180.4647122000006,1180.4647122000006,1180.4647122000006,old_stationery_39.png,289,3.0,1.0414043999999194,,,049,11,2025-02-13_14h00.05.288,Surprise recog test,2023.1.3,59.95282911387513,
289,0,289,0,,,,,,,,,,,,,,,,,,,,,,,,,,,,,,,,,,1184.0220137000006,1185.0415509000004,1182.5285916000003,1182.5285916000003,1182.5285916000003,1182.5285916000003,old_stationery_4.png,290,2.0,1.494678600000043,,,049,11,2025-02-13_14h00.05.288,Surprise recog test,2023.1.3,59.95282911387513,
290,0,290,0,,,,,,,,,,,,,,,,,,,,,,,,,,,,,,,,,,1186.0538840999998,1187.0822599000003,1185.0415509000004,1185.0415509000004,1185.0415509000004,1185.0415509000004,old_sceneOut_20.png,291,4.0,1.0133098999995127,,,049,11,2025-02-13_14h00.05.288,Surprise recog test,2023.1.3,59.95282911387513,
291,0,291,0,,,,,,,,,,,,,,,,,,,,,,,,,,,,,,,,,,1188.0452559000005,1189.0558274000005,1187.0822599000003,1187.0822599000003,1187.0822599000003,1187.0822599000003,new_fruit_40.png,292,4.0,0.9611082000001261,,,049,11,2025-02-13_14h00.05.288,Surprise recog test,2023.1.3,59.95282911387513,
292,0,292,0,,,,,,,,,,,,,,,,,,,,,,,,,,,,,,,,,,1190.5163676000002,1191.5340879000005,1189.0558274000005,1189.0558274000005,1189.0558274000005,1189.0558274000005,old_fruit_15.png,293,1.0,1.4571779000007155,,,049,11,2025-02-13_14h00.05.288,Surprise recog test,2023.1.3,59.95282911387513,
293,0,293,0,,,,,,,,,,,,,,,,,,,,,,,,,,,,,,,,,,1192.1646507000005,1193.1885026999998,1191.5340879000005,1191.5340879000005,1191.5340879000005,1191.5340879000005,old_stationery_17.png,294,4.0,0.6300832999995691,,,049,11,2025-02-13_14h00.05.288,Surprise recog test,2023.1.3,59.95282911387513,
294,0,294,0,,,,,,,,,,,,,,,,,,,,,,,,,,,,,,,,,,1195.2582909000002,1196.2900733000006,1193.1885026999998,1193.1885026999998,1193.1885026999998,1193.1885026999998,new_sceneOut_16.png,295,4.0,2.07237620000069,,,049,11,2025-02-13_14h00.05.288,Surprise recog test,2023.1.3,59.95282911387513,
295,0,295,0,,,,,,,,,,,,,,,,,,,,,,,,,,,,,,,,,,1196.8723165000001,1197.8931429000004,1196.2900733000006,1196.2900733000006,1196.2900733000006,1196.2900733000006,old_sceneOut_43.png,296,4.0,0.5837196000002223,,,049,11,2025-02-13_14h00.05.288,Surprise recog test,2023.1.3,59.95282911387513,
296,0,296,0,,,,,,,,,,,,,,,,,,,,,,,,,,,,,,,,,,1199.1256334,,1197.8931429000004,1197.8931429000004,1197.8931429000004,1197.8931429000004,old_stationery_40.png,297,4.0,1.2357957000003807,,,049,11,2025-02-13_14h00.05.288,Surprise recog test,2023.1.3,59.95282911387513,
297,0,297,0,,,,,,,,,,,,,,,,,,,,,,,,,,,,,,,,,,1200.8179643000003,1201.8412428000001,1200.1585261999999,1200.1585261999999,1200.1585261999999,1200.1585261999999,new_sceneIn_16.png,298,4.0,0.6606763999998293,,,049,11,2025-02-13_14h00.05.288,Surprise recog test,2023.1.3,59.95282911387513,
298,0,298,0,,,,,,,,,,,,,,,,,,,,,,,,,,,,,,,,,,1202.3879207999998,1203.4079181000006,1201.8412428000001,1201.8412428000001,1201.8412428000001,1201.8412428000001,new_sceneOut_24.png,299,4.0,0.5449093000006542,,,049,11,2025-02-13_14h00.05.288,Surprise recog test,2023.1.3,59.95282911387513,
299,0,299,0,,,,,,,,,,,,,,,,,,,,,,,,,,,,,,,,,,1203.9979508000006,1205.0310269000001,1203.4079181000006,1203.4079181000006,1203.4079181000006,1203.4079181000006,old_sceneOut_50.png,300,4.0,0.5928008999999292,,,049,11,2025-02-13_14h00.05.288,Surprise recog test,2023.1.3,59.95282911387513,
300,0,300,0,,,,,,,,,,,,,,,,,,,,,,,,,,,,,,,,,,1206.0105907000006,1207.0196552000007,1205.0310269000001,1205.0310269000001,1205.0310269000001,1205.0310269000001,new_stationery_19.png,301,4.0,0.9823563999998441,,,049,11,2025-02-13_14h00.05.288,Surprise recog test,2023.1.3,59.95282911387513,
301,0,301,0,,,,,,,,,,,,,,,,,,,,,,,,,,,,,,,,,,1207.6133045000006,1208.6212187,1207.0196552000007,1207.0196552000007,1207.0196552000007,1207.0196552000007,old_sceneIn_45.png,302,4.0,0.5886577000001125,,,049,11,2025-02-13_14h00.05.288,Surprise recog test,2023.1.3,59.95282911387513,
302,0,302,0,,,,,,,,,,,,,,,,,,,,,,,,,,,,,,,,,,1209.1769836000003,1210.2020762000002,1208.6212187,1208.6212187,1208.6212187,1208.6212187,old_sceneOut_27.png,303,4.0,0.5516015000002881,,,049,11,2025-02-13_14h00.05.288,Surprise recog test,2023.1.3,59.95282911387513,
303,0,303,0,,,,,,,,,,,,,,,,,,,,,,,,,,,,,,,,,,1211.8850608000002,,1210.2020762000002,1210.2020762000002,1210.2020762000002,1210.2020762000002,new_fruit_18.png,304,1.0,1.6836084999995364,,,049,11,2025-02-13_14h00.05.288,Surprise recog test,2023.1.3,59.95282911387513,
304,0,304,0,,,,,,,,,,,,,,,,,,,,,,,,,,,,,,,,,,1214.0134336,1215.0326499000003,1212.9150623000005,1212.9150623000005,1212.9150623000005,1212.9150623000005,new_fruit_19.png,305,2.0,1.098263400000178,,,049,11,2025-02-13_14h00.05.288,Surprise recog test,2023.1.3,59.95282911387513,
305,0,305,0,,,,,,,,,,,,,,,,,,,,,,,,,,,,,,,,,,1217.1326272000006,1218.1567268,1215.0326499000003,1215.0326499000003,1215.0326499000003,1215.0326499000003,new_sceneIn_39.png,306,5.0,2.093609800000195,,,049,11,2025-02-13_14h00.05.288,Surprise recog test,2023.1.3,59.95282911387513,
306,0,306,0,,,,,,,,,,,,,,,,,,,,,,,,,,,,,,,,,,1218.9341916000003,1219.9450449000005,1218.1567268,1218.1567268,1218.1567268,1218.1567268,old_stationery_15.png,307,5.0,0.7797629999995479,,,049,11,2025-02-13_14h00.05.288,Surprise recog test,2023.1.3,59.95282911387513,
307,0,307,0,,,,,,,,,,,,,,,,,,,,,,,,,,,,,,,,,,1222.3199965000003,1223.3339530000003,1219.9450449000005,1219.9450449000005,1219.9450449000005,1219.9450449000005,old_stationery_10.png,308,5.0,2.3710682999999335,,,049,11,2025-02-13_14h00.05.288,Surprise recog test,2023.1.3,59.95282911387513,
308,0,308,0,,,,,,,,,,,,,,,,,,,,,,,,,,,,,,,,,,1224.7724538000002,1225.7812967999998,1223.3339530000003,1223.3339530000003,1223.3339530000003,1223.3339530000003,old_fruit_9.png,309,1.0,1.434286499999871,,,049,11,2025-02-13_14h00.05.288,Surprise recog test,2023.1.3,59.95282911387513,
309,0,309,0,,,,,,,,,,,,,,,,,,,,,,,,,,,,,,,,,,1227.3145130000003,,1225.7812967999998,1225.7812967999998,1225.7812967999998,1225.7812967999998,old_sceneIn_11.png,310,1.0,1.5285918999998103,,,049,11,2025-02-13_14h00.05.288,Surprise recog test,2023.1.3,59.95282911387513,
310,0,310,0,,,,,,,,,,,,,,,,,,,,,,,,,,,,,,,,,,1233.0397266,1234.0717818000003,1228.3507676999998,1228.3507676999998,1228.3507676999998,1228.3507676999998,new_sceneIn_47.png,311,1.0,4.690018299999792,,,049,11,2025-02-13_14h00.05.288,Surprise recog test,2023.1.3,59.95282911387513,
311,0,311,0,,,,,,,,,,,,,,,,,,,,,,,,,,,,,,,,,,1237.9493091000004,1238.9691301000003,1234.0717818000003,1234.0717818000003,1234.0717818000003,1234.0717818000003,old_sceneOut_6.png,312,4.0,3.87825359999988,,,049,11,2025-02-13_14h00.05.288,Surprise recog test,2023.1.3,59.95282911387513,
312,0,312,0,,,,,,,,,,,,,,,,,,,,,,,,,,,,,,,,,,1240.3063350000002,1241.3297633000002,1238.9691301000003,1238.9691301000003,1238.9691301000003,1238.9691301000003,old_fruit_7.png,313,2.0,1.3360222000001158,,,049,11,2025-02-13_14h00.05.288,Surprise recog test,2023.1.3,59.95282911387513,
313,0,313,0,,,,,,,,,,,,,,,,,,,,,,,,,,,,,,,,,,1243.0011498000003,1244.0262033,1241.3297633000002,1241.3297633000002,1241.3297633000002,1241.3297633000002,old_fruit_16.png,314,1.0,1.669334300000628,,,049,11,2025-02-13_14h00.05.288,Surprise recog test,2023.1.3,59.95282911387513,
314,0,314,0,,,,,,,,,,,,,,,,,,,,,,,,,,,,,,,,,,1244.8755657000002,1245.8948239000001,1244.0262033,1244.0262033,1244.0262033,1244.0262033,new_stationery_47.png,315,4.0,0.8507936999994854,,,049,11,2025-02-13_14h00.05.288,Surprise recog test,2023.1.3,59.95282911387513,
315,0,315,0,,,,,,,,,,,,,,,,,,,,,,,,,,,,,,,,,,1246.6792532999998,1247.7004735,1245.8948239000001,1245.8948239000001,1245.8948239000001,1245.8948239000001,new_fruit_43.png,316,4.0,0.7831516000005649,,,049,11,2025-02-13_14h00.05.288,Surprise recog test,2023.1.3,59.95282911387513,
316,0,316,0,,,,,,,,,,,,,,,,,,,,,,,,,,,,,,,,,,1248.3492455000005,,1247.7004735,1247.7004735,1247.7004735,1247.7004735,new_sceneIn_45.png,317,4.0,0.651658600000701,,,049,11,2025-02-13_14h00.05.288,Surprise recog test,2023.1.3,59.95282911387513,
317,0,317,0,,,,,,,,,,,,,,,,,,,,,,,,,,,,,,,,,,1249.9006009000004,,1249.3769846000005,1249.3769846000005,1249.3769846000005,1249.3769846000005,old_sceneOut_26.png,318,4.0,0.5237665000004199,,,049,11,2025-02-13_14h00.05.288,Surprise recog test,2023.1.3,59.95282911387513,
318,0,318,0,,,,,,,,,,,,,,,,,,,,,,,,,,,,,,,,,,1252.1345464000005,1253.1517617999998,1250.9321866999999,1250.9321866999999,1250.9321866999999,1250.9321866999999,new_fruit_49.png,319,2.0,1.2059299000002284,,,049,11,2025-02-13_14h00.05.288,Surprise recog test,2023.1.3,59.95282911387513,
319,0,319,0,,,,,,,,,,,,,,,,,,,,,,,,,,,,,,,,,,1254.4220908000007,,1253.1517617999998,1253.1517617999998,1253.1517617999998,1253.1517617999998,old_fruit_13.png,320,2.0,1.2722663000004104,,,049,11,2025-02-13_14h00.05.288,Surprise recog test,2023.1.3,59.95282911387513,
320,0,320,0,,,,,,,,,,,,,,,,,,,,,,,,,,,,,,,,,,1256.2860571,1257.3089353000005,1255.4400168000002,1255.4400168000002,1255.4400168000002,1255.4400168000002,new_sceneIn_14.png,321,4.0,0.8424515000006068,,,049,11,2025-02-13_14h00.05.288,Surprise recog test,2023.1.3,59.95282911387513,
321,0,321,0,,,,,,,,,,,,,,,,,,,,,,,,,,,,,,,,,,1258.0387546000002,1259.0449005,1257.3089353000005,1257.3089353000005,1257.3089353000005,1257.3089353000005,old_stationery_38.png,322,4.0,0.730913800000053,,,049,11,2025-02-13_14h00.05.288,Surprise recog test,2023.1.3,59.95282911387513,
322,0,322,0,,,,,,,,,,,,,,,,,,,,,,,,,,,,,,,,,,1259.5100191000001,,1259.0449005,1259.0449005,1259.0449005,1259.0449005,new_stationery_2.png,323,4.0,0.46104530000047816,,,049,11,2025-02-13_14h00.05.288,Surprise recog test,2023.1.3,59.95282911387513,
323,0,323,0,,,,,,,,,,,,,,,,,,,,,,,,,,,,,,,,,,1260.9757774,1261.9819859,1260.531317,1260.531317,1260.531317,1260.531317,new_sceneIn_15.png,324,4.0,0.4396264999995765,,,049,11,2025-02-13_14h00.05.288,Surprise recog test,2023.1.3,59.95282911387513,
324,0,324,0,,,,,,,,,,,,,,,,,,,,,,,,,,,,,,,,,,1262.4630462000005,,1261.9819859,1261.9819859,1261.9819859,1261.9819859,new_sceneIn_30.png,325,4.0,0.47420580000016344,,,049,11,2025-02-13_14h00.05.288,Surprise recog test,2023.1.3,59.95282911387513,
325,0,325,0,,,,,,,,,,,,,,,,,,,,,,,,,,,,,,,,,,1264.2132048000003,,1263.4937785000002,1263.4937785000002,1263.4937785000002,1263.4937785000002,old_sceneIn_31.png,326,4.0,0.7200441000004503,,,049,11,2025-02-13_14h00.05.288,Surprise recog test,2023.1.3,59.95282911387513,
326,0,326,0,,,,,,,,,,,,,,,,,,,,,,,,,,,,,,,,,,1266.6133145000003,1267.6331412999998,1265.2467203000006,1265.2467203000006,1265.2467203000006,1265.2467203000006,old_fruit_4.png,327,4.0,1.3665784999993775,,,049,11,2025-02-13_14h00.05.288,Surprise recog test,2023.1.3,59.95282911387513,
327,0,327,0,,,,,,,,,,,,,,,,,,,,,,,,,,,,,,,,,,1268.3286939,1269.3440722000005,1267.6331412999998,1267.6331412999998,1267.6331412999998,1267.6331412999998,new_sceneIn_12.png,328,4.0,0.6966529000001174,,,049,11,2025-02-13_14h00.05.288,Surprise recog test,2023.1.3,59.95282911387513,
328,0,328,0,,,,,,,,,,,,,,,,,,,,,,,,,,,,,,,,,,1269.9467474000003,1270.9522974000001,1269.3440722000005,1269.3440722000005,1269.3440722000005,1269.3440722000005,old_sceneIn_40.png,329,4.0,0.6021224000005532,,,049,11,2025-02-13_14h00.05.288,Surprise recog test,2023.1.3,59.95282911387513,
329,0,329,0,,,,,,,,,,,,,,,,,,,,,,,,,,,,,,,,,,1271.6149311,1272.6372562000006,1270.9522974000001,1270.9522974000001,1270.9522974000001,1270.9522974000001,old_sceneOut_19.png,330,4.0,0.6585589999995136,,,049,11,2025-02-13_14h00.05.288,Surprise recog test,2023.1.3,59.95282911387513,
330,0,330,0,,,,,,,,,,,,,,,,,,,,,,,,,,,,,,,,,,1274.1066704000004,1275.1370848000006,1272.6372562000006,1272.6372562000006,1272.6372562000006,1272.6372562000006,old_fruit_36.png,331,1.0,1.4718252000002394,,,049,11,2025-02-13_14h00.05.288,Surprise recog test,2023.1.3,59.95282911387513,
331,0,331,0,,,,,,,,,,,,,,,,,,,,,,,,,,,,,,,,,,1275.7471547000005,1276.7613142,1275.1370848000006,1275.1370848000006,1275.1370848000006,1275.1370848000006,new_sceneIn_33.png,332,4.0,0.6120801000006395,,,049,11,2025-02-13_14h00.05.288,Surprise recog test,2023.1.3,59.95282911387513,
332,0,332,0,,,,,,,,,,,,,,,,,,,,,,,,,,,,,,,,,,1277.7629253000005,1278.7832254000004,1276.7613142,1276.7613142,1276.7613142,1276.7613142,old_sceneIn_28.png,333,3.0,0.9958157000000938,,,049,11,2025-02-13_14h00.05.288,Surprise recog test,2023.1.3,59.95282911387513,
333,0,333,0,,,,,,,,,,,,,,,,,,,,,,,,,,,,,,,,,,1279.7223533000006,1280.7399761000006,1278.7832254000004,1278.7832254000004,1278.7832254000004,1278.7832254000004,new_sceneOut_25.png,334,4.0,0.9391752999999881,,,049,11,2025-02-13_14h00.05.288,Surprise recog test,2023.1.3,59.95282911387513,
334,0,334,0,,,,,,,,,,,,,,,,,,,,,,,,,,,,,,,,,,1281.8405594000005,1282.8619925000003,1280.7399761000006,1280.7399761000006,1280.7399761000006,1280.7399761000006,new_stationery_34.png,335,5.0,1.1023679999998421,,,049,11,2025-02-13_14h00.05.288,Surprise recog test,2023.1.3,59.95282911387513,
335,0,335,0,,,,,,,,,,,,,,,,,,,,,,,,,,,,,,,,,,1284.2554767000001,1285.2680369999998,1282.8619925000003,1282.8619925000003,1282.8619925000003,1282.8619925000003,old_fruit_31.png,336,1.0,1.396244200000183,,,049,11,2025-02-13_14h00.05.288,Surprise recog test,2023.1.3,59.95282911387513,
336,0,336,0,,,,,,,,,,,,,,,,,,,,,,,,,,,,,,,,,,1286.5422341000003,1287.5681335999998,1285.2680369999998,1285.2680369999998,1285.2680369999998,1285.2680369999998,new_fruit_17.png,337,1.0,1.267706900000121,,,049,11,2025-02-13_14h00.05.288,Surprise recog test,2023.1.3,59.95282911387513,
337,0,337,0,,,,,,,,,,,,,,,,,,,,,,,,,,,,,,,,,,1289.5587266000002,1290.5807640000003,1287.5681335999998,1287.5681335999998,1287.5681335999998,1287.5681335999998,new_sceneOut_2.png,338,3.0,1.9939949999998134,,,049,11,2025-02-13_14h00.05.288,Surprise recog test,2023.1.3,59.95282911387513,
338,0,338,0,,,,,,,,,,,,,,,,,,,,,,,,,,,,,,,,,,1292.1413968000006,1293.1724675000005,1290.5807640000003,1290.5807640000003,1290.5807640000003,1290.5807640000003,old_fruit_44.png,339,2.0,1.5579266000004282,,,049,11,2025-02-13_14h00.05.288,Surprise recog test,2023.1.3,59.95282911387513,
339,0,339,0,,,,,,,,,,,,,,,,,,,,,,,,,,,,,,,,,,1293.9218732,,1293.1724675000005,1293.1724675000005,1293.1724675000005,1293.1724675000005,old_stationery_41.png,340,4.0,0.7502210000002378,,,049,11,2025-02-13_14h00.05.288,Surprise recog test,2023.1.3,59.95282911387513,
340,0,340,0,,,,,,,,,,,,,,,,,,,,,,,,,,,,,,,,,,1295.6887424000006,,1294.9480549,1294.9480549,1294.9480549,1294.9480549,new_sceneOut_42.png,341,3.0,0.7415702999996938,,,049,11,2025-02-13_14h00.05.288,Surprise recog test,2023.1.3,59.95282911387513,
341,0,341,0,,,,,,,,,,,,,,,,,,,,,,,,,,,,,,,,,,1297.8723713999998,1298.8919856000002,1296.7215063000003,1296.7215063000003,1296.7215063000003,1296.7215063000003,old_stationery_12.png,342,4.0,1.1504041999996844,,,049,11,2025-02-13_14h00.05.288,Surprise recog test,2023.1.3,59.95282911387513,
342,0,342,0,,,,,,,,,,,,,,,,,,,,,,,,,,,,,,,,,,1299.4827720000003,1300.5091618000006,1298.8919856000002,1298.8919856000002,1298.8919856000002,1298.8919856000002,new_sceneOut_30.png,343,4.0,0.5932570000004489,,,049,11,2025-02-13_14h00.05.288,Surprise recog test,2023.1.3,59.95282911387513,
343,0,343,0,,,,,,,,,,,,,,,,,,,,,,,,,,,,,,,,,,1300.9603510000006,,1300.5091618000006,1300.5091618000006,1300.5091618000006,1300.5091618000006,new_sceneOut_17.png,344,4.0,0.4520452999995541,,,049,11,2025-02-13_14h00.05.288,Surprise recog test,2023.1.3,59.95282911387513,
344,0,344,0,,,,,,,,,,,,,,,,,,,,,,,,,,,,,,,,,,1302.4656722999998,1303.4794861,1301.9917370000003,1301.9917370000003,1301.9917370000003,1301.9917370000003,new_sceneIn_21.png,345,4.0,0.47521510000024136,,,049,11,2025-02-13_14h00.05.288,Surprise recog test,2023.1.3,59.95282911387513,
345,0,345,0,,,,,,,,,,,,,,,,,,,,,,,,,,,,,,,,,,1303.9917913999998,1305.0052637,1303.4794861,1303.4794861,1303.4794861,1303.4794861,old_sceneIn_13.png,346,4.0,0.5081261000004815,,,049,11,2025-02-13_14h00.05.288,Surprise recog test,2023.1.3,59.95282911387513,
346,0,346,0,,,,,,,,,,,,,,,,,,,,,,,,,,,,,,,,,,1305.5271647,1306.5481516999998,1305.0052637,1305.0052637,1305.0052637,1305.0052637,new_sceneOut_22.png,347,4.0,0.5218273000000409,,,049,11,2025-02-13_14h00.05.288,Surprise recog test,2023.1.3,59.95282911387513,
347,0,347,0,,,,,,,,,,,,,,,,,,,,,,,,,,,,,,,,,,1307.5511877,1308.5843708000002,1306.5481516999998,1306.5481516999998,1306.5481516999998,1306.5481516999998,new_sceneOut_21.png,348,3.0,1.0059040000005552,,,049,11,2025-02-13_14h00.05.288,Surprise recog test,2023.1.3,59.95282911387513,
348,0,348,0,,,,,,,,,,,,,,,,,,,,,,,,,,,,,,,,,,1309.3806104000005,1310.4056856000007,1308.5843708000002,1308.5843708000002,1308.5843708000002,1308.5843708000002,new_fruit_11.png,349,4.0,0.7913229000005231,,,049,11,2025-02-13_14h00.05.288,Surprise recog test,2023.1.3,59.95282911387513,
349,0,349,0,,,,,,,,,,,,,,,,,,,,,,,,,,,,,,,,,,1310.9169499,1311.9329386,1310.4056856000007,1310.4056856000007,1310.4056856000007,1310.4056856000007,new_sceneOut_45.png,350,4.0,0.5154200999995737,,,049,11,2025-02-13_14h00.05.288,Surprise recog test,2023.1.3,59.95282911387513,
350,0,350,0,,,,,,,,,,,,,,,,,,,,,,,,,,,,,,,,,,1314.2599616000007,1315.2801498,1311.9329386,1311.9329386,1311.9329386,1311.9329386,old_sceneIn_2.png,351,2.0,2.3297043000002304,,,049,11,2025-02-13_14h00.05.288,Surprise recog test,2023.1.3,59.95282911387513,
351,0,351,0,,,,,,,,,,,,,,,,,,,,,,,,,,,,,,,,,,1316.1681165999998,1317.1896699,1315.2801498,1315.2801498,1315.2801498,1315.2801498,old_stationery_37.png,352,4.0,0.8831472000001668,,,049,11,2025-02-13_14h00.05.288,Surprise recog test,2023.1.3,59.95282911387513,
352,0,352,0,,,,,,,,,,,,,,,,,,,,,,,,,,,,,,,,,,1317.9292346000002,1318.9457767000004,1317.1896699,1317.1896699,1317.1896699,1317.1896699,old_stationery_32.png,353,4.0,0.7391702000004443,,,049,11,2025-02-13_14h00.05.288,Surprise recog test,2023.1.3,59.95282911387513,
353,0,353,0,,,,,,,,,,,,,,,,,,,,,,,,,,,,,,,,,,1320.3426184,,1318.9457767000004,1318.9457767000004,1318.9457767000004,1318.9457767000004,old_stationery_1.png,354,1.0,1.3917223999997077,,,049,11,2025-02-13_14h00.05.288,Surprise recog test,2023.1.3,59.95282911387513,
354,0,354,0,,,,,,,,,,,,,,,,,,,,,,,,,,,,,,,,,,1322.1250157000004,1323.1328670000003,1321.3715516000002,1321.3715516000002,1321.3715516000002,1321.3715516000002,old_sceneIn_50.png,355,4.0,0.7519136000000799,,,049,11,2025-02-13_14h00.05.288,Surprise recog test,2023.1.3,59.95282911387513,
355,0,355,0,,,,,,,,,,,,,,,,,,,,,,,,,,,,,,,,,,1323.740941,1324.7506428000006,1323.1328670000003,1323.1328670000003,1323.1328670000003,1323.1328670000003,new_sceneIn_32.png,356,4.0,0.6039001999997708,,,049,11,2025-02-13_14h00.05.288,Surprise recog test,2023.1.3,59.95282911387513,
356,0,356,0,,,,,,,,,,,,,,,,,,,,,,,,,,,,,,,,,,1325.9160087999999,1326.9487599000004,1324.7506428000006,1324.7506428000006,1324.7506428000006,1324.7506428000006,old_fruit_40.png,357,1.0,1.1611148000001776,,,049,11,2025-02-13_14h00.05.288,Surprise recog test,2023.1.3,59.95282911387513,
357,0,357,0,,,,,,,,,,,,,,,,,,,,,,,,,,,,,,,,,,1327.9512946000004,1328.9707382000006,1326.9487599000004,1326.9487599000004,1326.9487599000004,1326.9487599000004,new_stationery_6.png,358,4.0,1.003131399999802,,,049,11,2025-02-13_14h00.05.288,Surprise recog test,2023.1.3,59.95282911387513,
358,0,358,0,,,,,,,,,,,,,,,,,,,,,,,,,,,,,,,,,,1329.7323468000004,1330.7446197999998,1328.9707382000006,1328.9707382000006,1328.9707382000006,1328.9707382000006,new_stationery_21.png,359,4.0,0.7579101999999693,,,049,11,2025-02-13_14h00.05.288,Surprise recog test,2023.1.3,59.95282911387513,
