trial_loop.thisRepN,trial_loop.thisTrialN,trial_loop.thisN,trial_loop.thisIndex,VAS_slider.started,VAS_text.started,VAS_notstressed_text.started,VAS_stressed_text.started,continue_input.started,continue_text.started,label0.started,label10.started,label20.started,label30.started,label40.started,label50.started,label60.started,label70.started,label80.started,label90.started,label100.started,VAS_slider.response,VAS_slider.rt,VAS_slider.history,Answer_VAS,continue_input.keys,instruction_text.started,continue_text_2.started,continue_input_2.started,continue_input_2.keys,continue_input_2.rt,continue_input_2.duration,example_text.started,example_slider_2.started,example_image.started,example_slider_2.response,example_slider_2.rt,fixcross.started,fixcross.stopped,front_square.started,stim_images.started,trial_inst_images.started,slider_images.started,slider_images.stopped,thisImg,trial_count,slider_images.response,slider_images.rt,outro.started,participant,condition,date,expName,psychopyVersion,frameRate,
,,,,522.9990969999926,522.9990969999926,522.9990969999926,522.9990969999926,522.9990969999926,522.9990969999926,522.9990969999926,522.9990969999926,522.9990969999926,522.9990969999926,522.9990969999926,522.9990969999926,522.9990969999926,522.9990969999926,522.9990969999926,522.9990969999926,522.9990969999926,1.0166666666666668,16.432266699965112,"[(1.0166666666666668, 16.432266699965112)]",1.0166666666666668,None,,,,,,,,,,,,,,,,,,,,,,,,051,00,2025-02-18_15h36.50.995,Surprise recog test,2023.1.3,59.983936291273054,
,,,,,,,,,,,,,,,,,,,,,,,,,,539.4644475000096,539.4644475000096,539.4644475000096,space,24.26568309997674,None,,,,,,,,,,,,,,,,,,051,00,2025-02-18_15h36.50.995,Surprise recog test,2023.1.3,59.983936291273054,
0,0,0,0,,,,,,,,,,,,,,,,,,,,,,,,,,,,,563.8621659000055,563.8621659000055,563.8621659000055,5.0,16.75099680002313,586.5485920999781,581.5752651999937,581.5752651999937,581.5752651999937,581.5752651999937,581.5752651999937,586.5351379999775,new_fruit_3.png,1,None,None,,051,00,2025-02-18_15h36.50.995,Surprise recog test,2023.1.3,59.983936291273054,
1,0,1,0,,,,,,,,,,,,,,,,,,,,,,,,,,,,,,,,,,589.8301878999919,590.8430401000078,587.5564277999802,587.5564277999802,587.5564277999802,587.5564277999802,,old_fruit_29.png,2,3.0,2.2719537999946624,,051,00,2025-02-18_15h36.50.995,Surprise recog test,2023.1.3,59.983936291273054,
2,0,2,0,,,,,,,,,,,,,,,,,,,,,,,,,,,,,,,,,,593.5931472000084,594.624608699989,590.8430401000078,590.8430401000078,590.8430401000078,590.8430401000078,,new_fruit_12.png,3,2.0,2.7463610999984667,,051,00,2025-02-18_15h36.50.995,Surprise recog test,2023.1.3,59.983936291273054,
3,0,3,0,,,,,,,,,,,,,,,,,,,,,,,,,,,,,,,,,,598.4117977999849,,594.624608699989,594.624608699989,594.624608699989,594.624608699989,,old_sceneOut_26.png,4,4.0,3.7887896000174806,,051,00,2025-02-18_15h36.50.995,Surprise recog test,2023.1.3,59.983936291273054,
4,0,4,0,,,,,,,,,,,,,,,,,,,,,,,,,,,,,,,,,,602.0978999999934,,599.4311464999919,599.4311464999919,599.4311464999919,599.4311464999919,,old_stationery_10.png,5,5.0,2.661929499998223,,051,00,2025-02-18_15h36.50.995,Surprise recog test,2023.1.3,59.983936291273054,
5,0,5,0,,,,,,,,,,,,,,,,,,,,,,,,,,,,,,,,,,604.3687337000156,605.3891120000044,603.1198772999924,603.1198772999924,603.1198772999924,603.1198772999924,,old_stationery_30.png,6,5.0,1.2451861000154167,,051,00,2025-02-18_15h36.50.995,Surprise recog test,2023.1.3,59.983936291273054,
6,0,6,0,,,,,,,,,,,,,,,,,,,,,,,,,,,,,,,,,,610.3851799999829,,605.3891120000044,605.3891120000044,605.3891120000044,605.3891120000044,610.3705063000089,old_sceneOut_17.png,7,None,None,,051,00,2025-02-18_15h36.50.995,Surprise recog test,2023.1.3,59.983936291273054,
7,0,7,0,,,,,,,,,,,,,,,,,,,,,,,,,,,,,,,,,,614.2908121999935,,611.3930133000249,611.3930133000249,611.3930133000249,611.3930133000249,,old_sceneIn_6.png,8,5.0,2.8940170999849215,,051,00,2025-02-18_15h36.50.995,Surprise recog test,2023.1.3,59.983936291273054,
8,0,8,0,,,,,,,,,,,,,,,,,,,,,,,,,,,,,,,,,,617.7351278999704,618.7593504000106,615.3144271000056,615.3144271000056,615.3144271000056,615.3144271000056,,old_sceneOut_3.png,9,3.0,2.4169278999906965,,051,00,2025-02-18_15h36.50.995,Surprise recog test,2023.1.3,59.983936291273054,
9,0,9,0,,,,,,,,,,,,,,,,,,,,,,,,,,,,,,,,,,621.7623797999695,622.7817263000179,618.7593504000106,618.7593504000106,618.7593504000106,618.7593504000106,,new_sceneIn_17.png,10,4.0,3.0052076000138186,,051,00,2025-02-18_15h36.50.995,Surprise recog test,2023.1.3,59.983936291273054,
10,0,10,0,,,,,,,,,,,,,,,,,,,,,,,,,,,,,,,,,,624.18020230002,625.2044221999822,622.7817263000179,622.7817263000179,622.7817263000179,622.7817263000179,,new_sceneOut_22.png,11,4.0,1.4001121000037529,,051,00,2025-02-18_15h36.50.995,Surprise recog test,2023.1.3,59.983936291273054,
11,0,11,0,,,,,,,,,,,,,,,,,,,,,,,,,,,,,,,,,,626.724824999983,627.7522094000014,625.2044221999822,625.2044221999822,625.2044221999822,625.2044221999822,,new_sceneIn_39.png,12,4.0,1.5238113999948837,,051,00,2025-02-18_15h36.50.995,Surprise recog test,2023.1.3,59.983936291273054,
12,0,12,0,,,,,,,,,,,,,,,,,,,,,,,,,,,,,,,,,,629.4085479999776,630.4387611999991,627.7522094000014,627.7522094000014,627.7522094000014,627.7522094000014,,old_sceneIn_30.png,13,4.0,1.6558155000093393,,051,00,2025-02-18_15h36.50.995,Surprise recog test,2023.1.3,59.983936291273054,
13,0,13,0,,,,,,,,,,,,,,,,,,,,,,,,,,,,,,,,,,632.3119363000151,633.3291089999839,630.4387611999991,630.4387611999991,630.4387611999991,630.4387611999991,,new_stationery_17.png,14,2.0,1.8756418999982998,,051,00,2025-02-18_15h36.50.995,Surprise recog test,2023.1.3,59.983936291273054,
14,0,14,0,,,,,,,,,,,,,,,,,,,,,,,,,,,,,,,,,,635.722755099996,636.7317989000003,633.3291089999839,633.3291089999839,633.3291089999839,633.3291089999839,,new_sceneIn_21.png,15,4.0,2.3834182000136934,,051,00,2025-02-18_15h36.50.995,Surprise recog test,2023.1.3,59.983936291273054,
15,0,15,0,,,,,,,,,,,,,,,,,,,,,,,,,,,,,,,,,,638.6583159000147,639.6682692000177,636.7317989000003,636.7317989000003,636.7317989000003,636.7317989000003,,old_fruit_15.png,16,3.0,1.9213023000047542,,051,00,2025-02-18_15h36.50.995,Surprise recog test,2023.1.3,59.983936291273054,
16,0,16,0,,,,,,,,,,,,,,,,,,,,,,,,,,,,,,,,,,642.3271072999923,643.3530457000015,639.6682692000177,639.6682692000177,639.6682692000177,639.6682692000177,,old_fruit_46.png,17,4.0,2.6543631000095047,,051,00,2025-02-18_15h36.50.995,Surprise recog test,2023.1.3,59.983936291273054,
17,0,17,0,,,,,,,,,,,,,,,,,,,,,,,,,,,,,,,,,,645.7477613000083,646.7685062999954,643.3530457000015,643.3530457000015,643.3530457000015,643.3530457000015,,old_stationery_20.png,18,3.0,2.396252500009723,,051,00,2025-02-18_15h36.50.995,Surprise recog test,2023.1.3,59.983936291273054,
18,0,18,0,,,,,,,,,,,,,,,,,,,,,,,,,,,,,,,,,,647.8028394000139,,646.7685062999954,646.7685062999954,646.7685062999954,646.7685062999954,,old_fruit_20.png,19,3.0,1.0370423999847844,,051,00,2025-02-18_15h36.50.995,Surprise recog test,2023.1.3,59.983936291273054,
19,0,19,0,,,,,,,,,,,,,,,,,,,,,,,,,,,,,,,,,,650.4692258000141,651.4769539000117,648.8358672999893,648.8358672999893,648.8358672999893,648.8358672999893,,old_stationery_37.png,20,3.0,1.6355231999768876,,051,00,2025-02-18_15h36.50.995,Surprise recog test,2023.1.3,59.983936291273054,
20,0,20,0,,,,,,,,,,,,,,,,,,,,,,,,,,,,,,,,,,653.4793571999762,654.4932682000217,651.4769539000117,651.4769539000117,651.4769539000117,651.4769539000117,,old_sceneOut_14.png,21,4.0,1.9972666999674402,,051,00,2025-02-18_15h36.50.995,Surprise recog test,2023.1.3,59.983936291273054,
21,0,21,0,,,,,,,,,,,,,,,,,,,,,,,,,,,,,,,,,,656.6902241000207,657.7120115999714,654.4932682000217,654.4932682000217,654.4932682000217,654.4932682000217,,old_stationery_49.png,22,2.0,2.1905516000115313,,051,00,2025-02-18_15h36.50.995,Surprise recog test,2023.1.3,59.983936291273054,
22,0,22,0,,,,,,,,,,,,,,,,,,,,,,,,,,,,,,,,,,659.2922494999948,660.3060747999698,657.7120115999714,657.7120115999714,657.7120115999714,657.7120115999714,,old_sceneIn_40.png,23,3.0,1.5779798000003211,,051,00,2025-02-18_15h36.50.995,Surprise recog test,2023.1.3,59.983936291273054,
23,0,23,0,,,,,,,,,,,,,,,,,,,,,,,,,,,,,,,,,,661.9776213999721,663.000860399974,660.3060747999698,660.3060747999698,660.3060747999698,660.3060747999698,,new_sceneOut_42.png,24,4.0,1.6707758999546058,,051,00,2025-02-18_15h36.50.995,Surprise recog test,2023.1.3,59.983936291273054,
24,0,24,0,,,,,,,,,,,,,,,,,,,,,,,,,,,,,,,,,,665.0214994999697,666.0349315999774,663.000860399974,663.000860399974,663.000860399974,663.000860399974,,old_sceneIn_44.png,25,4.0,2.024046200036537,,051,00,2025-02-18_15h36.50.995,Surprise recog test,2023.1.3,59.983936291273054,
25,0,25,0,,,,,,,,,,,,,,,,,,,,,,,,,,,,,,,,,,667.5881503999699,668.6241889999947,666.0349315999774,666.0349315999774,666.0349315999774,666.0349315999774,,old_stationery_9.png,26,3.0,1.5455640000291169,,051,00,2025-02-18_15h36.50.995,Surprise recog test,2023.1.3,59.983936291273054,
26,0,26,0,,,,,,,,,,,,,,,,,,,,,,,,,,,,,,,,,,669.5202207000111,,668.6241889999947,668.6241889999947,668.6241889999947,668.6241889999947,,new_fruit_36.png,27,3.0,0.8998011000221595,,051,00,2025-02-18_15h36.50.995,Surprise recog test,2023.1.3,59.983936291273054,
27,0,27,0,,,,,,,,,,,,,,,,,,,,,,,,,,,,,,,,,,671.3545264999848,672.3741155000171,670.5419582999893,670.5419582999893,670.5419582999893,670.5419582999893,,new_fruit_46.png,28,3.0,0.8082818000111729,,051,00,2025-02-18_15h36.50.995,Surprise recog test,2023.1.3,59.983936291273054,
28,0,28,0,,,,,,,,,,,,,,,,,,,,,,,,,,,,,,,,,,674.1785799000063,675.2040708999848,672.3741155000171,672.3741155000171,672.3741155000171,672.3741155000171,,new_fruit_40.png,29,4.0,1.8066023000283167,,051,00,2025-02-18_15h36.50.995,Surprise recog test,2023.1.3,59.983936291273054,
29,0,29,0,,,,,,,,,,,,,,,,,,,,,,,,,,,,,,,,,,676.5486293999711,677.5666274999967,675.2040708999848,675.2040708999848,675.2040708999848,675.2040708999848,,new_sceneOut_8.png,30,4.0,1.345644600049127,,051,00,2025-02-18_15h36.50.995,Surprise recog test,2023.1.3,59.983936291273054,
30,0,30,0,,,,,,,,,,,,,,,,,,,,,,,,,,,,,,,,,,678.7440180000267,,677.5666274999967,677.5666274999967,677.5666274999967,677.5666274999967,,old_fruit_42.png,31,3.0,1.1763004999957047,,051,00,2025-02-18_15h36.50.995,Surprise recog test,2023.1.3,59.983936291273054,
31,0,31,0,,,,,,,,,,,,,,,,,,,,,,,,,,,,,,,,,,680.5637374999933,,679.777236199996,679.777236199996,679.777236199996,679.777236199996,,old_fruit_25.png,32,3.0,0.7897458000225015,,051,00,2025-02-18_15h36.50.995,Surprise recog test,2023.1.3,59.983936291273054,
32,0,32,0,,,,,,,,,,,,,,,,,,,,,,,,,,,,,,,,,,683.0601521999924,684.0824097999721,681.5968601999921,681.5968601999921,681.5968601999921,681.5968601999921,,old_sceneIn_48.png,33,4.0,1.4626424000016414,,051,00,2025-02-18_15h36.50.995,Surprise recog test,2023.1.3,59.983936291273054,
33,0,33,0,,,,,,,,,,,,,,,,,,,,,,,,,,,,,,,,,,686.2442937999731,687.2719625000027,684.0824097999721,684.0824097999721,684.0824097999721,684.0824097999721,,old_fruit_36.png,34,3.0,2.1634614000213332,,051,00,2025-02-18_15h36.50.995,Surprise recog test,2023.1.3,59.983936291273054,
34,0,34,0,,,,,,,,,,,,,,,,,,,,,,,,,,,,,,,,,,688.2832551000174,689.2928244000068,687.2719625000027,687.2719625000027,687.2719625000027,687.2719625000027,,new_fruit_31.png,35,3.0,1.0114755000104196,,051,00,2025-02-18_15h36.50.995,Surprise recog test,2023.1.3,59.983936291273054,
35,0,35,0,,,,,,,,,,,,,,,,,,,,,,,,,,,,,,,,,,690.7731220999849,691.8070747000165,689.2928244000068,689.2928244000068,689.2928244000068,689.2928244000068,,new_sceneOut_10.png,36,3.0,1.476696100027766,,051,00,2025-02-18_15h36.50.995,Surprise recog test,2023.1.3,59.983936291273054,
36,0,36,0,,,,,,,,,,,,,,,,,,,,,,,,,,,,,,,,,,692.6889528000029,,691.8070747000165,691.8070747000165,691.8070747000165,691.8070747000165,,old_fruit_35.png,37,3.0,0.8821193000185303,,051,00,2025-02-18_15h36.50.995,Surprise recog test,2023.1.3,59.983936291273054,
37,0,37,0,,,,,,,,,,,,,,,,,,,,,,,,,,,,,,,,,,694.5048882000265,695.5268383999937,693.7124819000019,693.7124819000019,693.7124819000019,693.7124819000019,,new_sceneOut_33.png,38,3.0,0.7833623999613337,,051,00,2025-02-18_15h36.50.995,Surprise recog test,2023.1.3,59.983936291273054,
38,0,38,0,,,,,,,,,,,,,,,,,,,,,,,,,,,,,,,,,,697.0204066999722,698.0459251999855,695.5268383999937,695.5268383999937,695.5268383999937,695.5268383999937,,new_sceneIn_26.png,39,4.0,1.4948438999708742,,051,00,2025-02-18_15h36.50.995,Surprise recog test,2023.1.3,59.983936291273054,
39,0,39,0,,,,,,,,,,,,,,,,,,,,,,,,,,,,,,,,,,699.2466300000087,,698.0459251999855,698.0459251999855,698.0459251999855,698.0459251999855,,old_sceneOut_15.png,40,4.0,1.2007998999906704,,051,00,2025-02-18_15h36.50.995,Surprise recog test,2023.1.3,59.983936291273054,
40,0,40,0,,,,,,,,,,,,,,,,,,,,,,,,,,,,,,,,,,701.2104148999788,702.2328816999798,700.2791067999788,700.2791067999788,700.2791067999788,700.2791067999788,,new_stationery_19.png,41,3.0,0.9336086999974214,,051,00,2025-02-18_15h36.50.995,Surprise recog test,2023.1.3,59.983936291273054,
41,0,41,0,,,,,,,,,,,,,,,,,,,,,,,,,,,,,,,,,,704.0426691999892,705.0637633000151,702.2328816999798,702.2328816999798,702.2328816999798,702.2328816999798,,new_sceneIn_35.png,42,4.0,1.8119261999963783,,051,00,2025-02-18_15h36.50.995,Surprise recog test,2023.1.3,59.983936291273054,
42,0,42,0,,,,,,,,,,,,,,,,,,,,,,,,,,,,,,,,,,707.5494552999735,708.5677204999956,705.0637633000151,705.0637633000151,705.0637633000151,705.0637633000151,,new_stationery_50.png,43,4.0,2.4858348999987356,,051,00,2025-02-18_15h36.50.995,Surprise recog test,2023.1.3,59.983936291273054,
43,0,43,0,,,,,,,,,,,,,,,,,,,,,,,,,,,,,,,,,,711.552309199993,712.5720341000124,708.5677204999956,708.5677204999956,708.5677204999956,708.5677204999956,,old_sceneOut_41.png,44,3.0,2.981250300013926,,051,00,2025-02-18_15h36.50.995,Surprise recog test,2023.1.3,59.983936291273054,
44,0,44,0,,,,,,,,,,,,,,,,,,,,,,,,,,,,,,,,,,714.5983384000137,715.6252749999985,712.5720341000124,712.5720341000124,712.5720341000124,712.5720341000124,,old_sceneOut_44.png,45,3.0,2.0261782000306994,,051,00,2025-02-18_15h36.50.995,Surprise recog test,2023.1.3,59.983936291273054,
45,0,45,0,,,,,,,,,,,,,,,,,,,,,,,,,,,,,,,,,,716.3326944999862,717.3567994000041,715.6252749999985,715.6252749999985,715.6252749999985,715.6252749999985,,old_fruit_49.png,46,3.0,0.7062451000092551,,051,00,2025-02-18_15h36.50.995,Surprise recog test,2023.1.3,59.983936291273054,
46,0,46,0,,,,,,,,,,,,,,,,,,,,,,,,,,,,,,,,,,718.0766350000049,,717.3567994000041,717.3567994000041,717.3567994000041,717.3567994000041,,old_fruit_1.png,47,3.0,0.7187324999831617,,051,00,2025-02-18_15h36.50.995,Surprise recog test,2023.1.3,59.983936291273054,
47,0,47,0,,,,,,,,,,,,,,,,,,,,,,,,,,,,,,,,,,719.9522785000154,720.9812327999971,719.1118070000084,719.1118070000084,719.1118070000084,719.1118070000084,,old_sceneOut_46.png,48,3.0,0.8429159999941476,,051,00,2025-02-18_15h36.50.995,Surprise recog test,2023.1.3,59.983936291273054,
48,0,48,0,,,,,,,,,,,,,,,,,,,,,,,,,,,,,,,,,,723.2824785999837,,720.9812327999971,720.9812327999971,720.9812327999971,720.9812327999971,,old_sceneIn_47.png,49,4.0,2.303533600002993,,051,00,2025-02-18_15h36.50.995,Surprise recog test,2023.1.3,59.983936291273054,
49,0,49,0,,,,,,,,,,,,,,,,,,,,,,,,,,,,,,,,,,725.8164400000242,,724.3150756999967,724.3150756999967,724.3150756999967,724.3150756999967,,old_sceneIn_28.png,50,3.0,1.5010882000206038,,051,00,2025-02-18_15h36.50.995,Surprise recog test,2023.1.3,59.983936291273054,
50,0,50,0,,,,,,,,,,,,,,,,,,,,,,,,,,,,,,,,,,727.6021676000091,,726.8526684999815,726.8526684999815,726.8526684999815,726.8526684999815,,old_sceneOut_24.png,51,3.0,0.7522100000060163,,051,00,2025-02-18_15h36.50.995,Surprise recog test,2023.1.3,59.983936291273054,
51,0,51,0,,,,,,,,,,,,,,,,,,,,,,,,,,,,,,,,,,729.4776752999751,730.489299000008,728.6234898000257,728.6234898000257,728.6234898000257,728.6234898000257,,old_stationery_32.png,52,3.0,0.8488814000156708,,051,00,2025-02-18_15h36.50.995,Surprise recog test,2023.1.3,59.983936291273054,
52,0,52,0,,,,,,,,,,,,,,,,,,,,,,,,,,,,,,,,,,731.3273453000002,732.3567947000265,730.489299000008,730.489299000008,730.489299000008,730.489299000008,,old_sceneOut_32.png,53,3.0,0.8314279000042006,,051,00,2025-02-18_15h36.50.995,Surprise recog test,2023.1.3,59.983936291273054,
53,0,53,0,,,,,,,,,,,,,,,,,,,,,,,,,,,,,,,,,,733.9962716000155,735.0261517000035,732.3567947000265,732.3567947000265,732.3567947000265,732.3567947000265,,new_sceneIn_31.png,54,4.0,1.6423584999865852,,051,00,2025-02-18_15h36.50.995,Surprise recog test,2023.1.3,59.983936291273054,
54,0,54,0,,,,,,,,,,,,,,,,,,,,,,,,,,,,,,,,,,736.5090604000143,,735.0261517000035,735.0261517000035,735.0261517000035,735.0261517000035,,old_sceneIn_9.png,55,3.0,1.4831838000100106,,051,00,2025-02-18_15h36.50.995,Surprise recog test,2023.1.3,59.983936291273054,
55,0,55,0,,,,,,,,,,,,,,,,,,,,,,,,,,,,,,,,,,738.3265090999776,,737.527330700017,737.527330700017,737.527330700017,737.527330700017,,old_stationery_33.png,56,3.0,0.7956382000120357,,051,00,2025-02-18_15h36.50.995,Surprise recog test,2023.1.3,59.983936291273054,
56,0,56,0,,,,,,,,,,,,,,,,,,,,,,,,,,,,,,,,,,741.3409055999946,742.3655628999695,739.3603624000098,739.3603624000098,739.3603624000098,739.3603624000098,,old_stationery_24.png,57,2.0,1.9821357000037096,,051,00,2025-02-18_15h36.50.995,Surprise recog test,2023.1.3,59.983936291273054,
57,0,57,0,,,,,,,,,,,,,,,,,,,,,,,,,,,,,,,,,,743.4600719999871,744.4830586999888,742.3655628999695,742.3655628999695,742.3655628999695,742.3655628999695,,old_sceneIn_49.png,58,3.0,1.0966677999822423,,051,00,2025-02-18_15h36.50.995,Surprise recog test,2023.1.3,59.983936291273054,
58,0,58,0,,,,,,,,,,,,,,,,,,,,,,,,,,,,,,,,,,746.2389733999735,747.2707732999697,744.4830586999888,744.4830586999888,744.4830586999888,744.4830586999888,,new_stationery_5.png,59,3.0,1.7574325000168756,,051,00,2025-02-18_15h36.50.995,Surprise recog test,2023.1.3,59.983936291273054,
59,0,59,0,,,,,,,,,,,,,,,,,,,,,,,,,,,,,,,,,,749.9754420000245,751.0048167000059,747.2707732999697,747.2707732999697,747.2707732999697,747.2707732999697,,old_sceneOut_37.png,60,2.0,2.70555360004073,,051,00,2025-02-18_15h36.50.995,Surprise recog test,2023.1.3,59.983936291273054,
60,0,60,0,,,,,,,,,,,,,,,,,,,,,,,,,,,,,,,,,,752.6879032999859,753.7062499999884,751.0048167000059,751.0048167000059,751.0048167000059,751.0048167000059,,new_sceneOut_43.png,61,3.0,1.6859643000061624,,051,00,2025-02-18_15h36.50.995,Surprise recog test,2023.1.3,59.983936291273054,
61,0,61,0,,,,,,,,,,,,,,,,,,,,,,,,,,,,,,,,,,755.9558604999911,756.9775727000087,753.7062499999884,753.7062499999884,753.7062499999884,753.7062499999884,,new_fruit_4.png,62,3.0,2.24656999995932,,051,00,2025-02-18_15h36.50.995,Surprise recog test,2023.1.3,59.983936291273054,
62,0,62,0,,,,,,,,,,,,,,,,,,,,,,,,,,,,,,,,,,758.4633984999964,759.4914768000017,756.9775727000087,756.9775727000087,756.9775727000087,756.9775727000087,,old_stationery_35.png,63,2.0,1.4851095999474637,,051,00,2025-02-18_15h36.50.995,Surprise recog test,2023.1.3,59.983936291273054,
63,0,63,0,,,,,,,,,,,,,,,,,,,,,,,,,,,,,,,,,,760.590297000017,761.6123709999956,759.4914768000017,759.4914768000017,759.4914768000017,759.4914768000017,,new_sceneOut_40.png,64,2.0,1.098717300046701,,051,00,2025-02-18_15h36.50.995,Surprise recog test,2023.1.3,59.983936291273054,
64,0,64,0,,,,,,,,,,,,,,,,,,,,,,,,,,,,,,,,,,762.4314345999737,,761.6123709999956,761.6123709999956,761.6123709999956,761.6123709999956,,new_stationery_33.png,65,2.0,0.8210627000080422,,051,00,2025-02-18_15h36.50.995,Surprise recog test,2023.1.3,59.983936291273054,
65,0,65,0,,,,,,,,,,,,,,,,,,,,,,,,,,,,,,,,,,764.4040335000027,765.4345937999897,763.451379999984,763.451379999984,763.451379999984,763.451379999984,,new_fruit_5.png,66,2.0,0.946079200017266,,051,00,2025-02-18_15h36.50.995,Surprise recog test,2023.1.3,59.983936291273054,
66,0,66,0,,,,,,,,,,,,,,,,,,,,,,,,,,,,,,,,,,767.1555437999777,768.1705451000016,765.4345937999897,765.4345937999897,765.4345937999897,765.4345937999897,,old_fruit_12.png,67,2.0,1.721169300028123,,051,00,2025-02-18_15h36.50.995,Surprise recog test,2023.1.3,59.983936291273054,
67,0,67,0,,,,,,,,,,,,,,,,,,,,,,,,,,,,,,,,,,771.1255607000203,772.1567707000067,768.1705451000016,768.1705451000016,768.1705451000016,768.1705451000016,,new_stationery_15.png,68,3.0,2.9493519999668933,,051,00,2025-02-18_15h36.50.995,Surprise recog test,2023.1.3,59.983936291273054,
68,0,68,0,,,,,,,,,,,,,,,,,,,,,,,,,,,,,,,,,,773.6905967000057,,772.1567707000067,772.1567707000067,772.1567707000067,772.1567707000067,,old_stationery_14.png,69,2.0,1.536657600023318,,051,00,2025-02-18_15h36.50.995,Surprise recog test,2023.1.3,59.983936291273054,
69,0,69,0,,,,,,,,,,,,,,,,,,,,,,,,,,,,,,,,,,776.0730026999954,777.0925776999793,774.7110865999712,774.7110865999712,774.7110865999712,774.7110865999712,,new_fruit_49.png,70,2.0,1.3581744999974035,,051,00,2025-02-18_15h36.50.995,Surprise recog test,2023.1.3,59.983936291273054,
70,0,70,0,,,,,,,,,,,,,,,,,,,,,,,,,,,,,,,,,,778.6281377000269,,777.0925776999793,777.0925776999793,777.0925776999793,777.0925776999793,,new_fruit_50.png,71,3.0,1.5392717000213452,,051,00,2025-02-18_15h36.50.995,Surprise recog test,2023.1.3,59.983936291273054,
71,0,71,0,,,,,,,,,,,,,,,,,,,,,,,,,,,,,,,,,,783.0200804999913,784.0495552999782,779.648897600011,779.648897600011,779.648897600011,779.648897600011,,old_stationery_47.png,72,4.0,3.3672445999691263,,051,00,2025-02-18_15h36.50.995,Surprise recog test,2023.1.3,59.983936291273054,
72,0,72,0,,,,,,,,,,,,,,,,,,,,,,,,,,,,,,,,,,786.6419440999744,787.6570298000006,784.0495552999782,784.0495552999782,784.0495552999782,784.0495552999782,,old_fruit_38.png,73,3.0,2.59509119996801,,051,00,2025-02-18_15h36.50.995,Surprise recog test,2023.1.3,59.983936291273054,
73,0,73,0,,,,,,,,,,,,,,,,,,,,,,,,,,,,,,,,,,790.4133529000101,791.422175500018,787.6570298000006,787.6570298000006,787.6570298000006,787.6570298000006,,old_sceneOut_20.png,74,3.0,2.7521165999933146,,051,00,2025-02-18_15h36.50.995,Surprise recog test,2023.1.3,59.983936291273054,
74,0,74,0,,,,,,,,,,,,,,,,,,,,,,,,,,,,,,,,,,793.1991444000159,794.2110845000134,791.422175500018,791.422175500018,791.422175500018,791.422175500018,,old_sceneIn_38.png,75,4.0,1.772923999989871,,051,00,2025-02-18_15h36.50.995,Surprise recog test,2023.1.3,59.983936291273054,
75,0,75,0,,,,,,,,,,,,,,,,,,,,,,,,,,,,,,,,,,795.6720847000252,796.6792347999872,794.2110845000134,794.2110845000134,794.2110845000134,794.2110845000134,,old_fruit_14.png,76,3.0,1.4539955999935046,,051,00,2025-02-18_15h36.50.995,Surprise recog test,2023.1.3,59.983936291273054,
76,0,76,0,,,,,,,,,,,,,,,,,,,,,,,,,,,,,,,,,,797.6289738999913,798.6596907000057,796.6792347999872,796.6792347999872,796.6792347999872,796.6792347999872,,new_sceneOut_24.png,77,3.0,0.9457991999806836,,051,00,2025-02-18_15h36.50.995,Surprise recog test,2023.1.3,59.983936291273054,
77,0,77,0,,,,,,,,,,,,,,,,,,,,,,,,,,,,,,,,,,800.5093297000276,801.5235339999781,798.6596907000057,798.6596907000057,798.6596907000057,798.6596907000057,,old_stationery_38.png,78,3.0,1.8461496999952942,,051,00,2025-02-18_15h36.50.995,Surprise recog test,2023.1.3,59.983936291273054,
78,0,78,0,,,,,,,,,,,,,,,,,,,,,,,,,,,,,,,,,,802.2986801000079,,801.5235339999781,801.5235339999781,801.5235339999781,801.5235339999781,,new_fruit_44.png,79,3.0,0.7723739999928512,,051,00,2025-02-18_15h36.50.995,Surprise recog test,2023.1.3,59.983936291273054,
79,0,79,0,,,,,,,,,,,,,,,,,,,,,,,,,,,,,,,,,,806.0371042999905,807.0543995000189,803.3154047999997,803.3154047999997,803.3154047999997,803.3154047999997,,old_sceneOut_12.png,80,3.0,2.7173887999961153,,051,00,2025-02-18_15h36.50.995,Surprise recog test,2023.1.3,59.983936291273054,
80,0,80,0,,,,,,,,,,,,,,,,,,,,,,,,,,,,,,,,,,809.283482400002,810.3030170000275,807.0543995000189,807.0543995000189,807.0543995000189,807.0543995000189,,new_fruit_34.png,81,4.0,2.219030299980659,,051,00,2025-02-18_15h36.50.995,Surprise recog test,2023.1.3,59.983936291273054,
81,0,81,0,,,,,,,,,,,,,,,,,,,,,,,,,,,,,,,,,,812.9297638999997,813.9451583999908,810.3030170000275,810.3030170000275,810.3030170000275,810.3030170000275,,old_sceneIn_17.png,82,3.0,2.6255987000185996,,051,00,2025-02-18_15h36.50.995,Surprise recog test,2023.1.3,59.983936291273054,
82,0,82,0,,,,,,,,,,,,,,,,,,,,,,,,,,,,,,,,,,815.7428740999894,,813.9451583999908,813.9451583999908,813.9451583999908,813.9451583999908,,old_stationery_7.png,83,2.0,1.7938880999572575,,051,00,2025-02-18_15h36.50.995,Surprise recog test,2023.1.3,59.983936291273054,
83,0,83,0,,,,,,,,,,,,,,,,,,,,,,,,,,,,,,,,,,819.470510300016,820.4988716000225,816.7762402999797,816.7762402999797,816.7762402999797,816.7762402999797,,new_sceneIn_37.png,84,4.0,2.6927012999658473,,051,00,2025-02-18_15h36.50.995,Surprise recog test,2023.1.3,59.983936291273054,
84,0,84,0,,,,,,,,,,,,,,,,,,,,,,,,,,,,,,,,,,823.3950253999792,824.4004898999701,820.4988716000225,820.4988716000225,820.4988716000225,820.4988716000225,,new_fruit_37.png,85,3.0,2.8958079000003636,,051,00,2025-02-18_15h36.50.995,Surprise recog test,2023.1.3,59.983936291273054,
85,0,85,0,,,,,,,,,,,,,,,,,,,,,,,,,,,,,,,,,,825.2397646000027,826.2526748999953,824.4004898999701,824.4004898999701,824.4004898999701,824.4004898999701,,new_fruit_9.png,86,3.0,0.8346906999940984,,051,00,2025-02-18_15h36.50.995,Surprise recog test,2023.1.3,59.983936291273054,
86,0,86,0,,,,,,,,,,,,,,,,,,,,,,,,,,,,,,,,,,829.2666860999889,830.2718683999847,826.2526748999953,826.2526748999953,826.2526748999953,826.2526748999953,,new_sceneOut_27.png,87,4.0,3.0049141999916174,,051,00,2025-02-18_15h36.50.995,Surprise recog test,2023.1.3,59.983936291273054,
87,0,87,0,,,,,,,,,,,,,,,,,,,,,,,,,,,,,,,,,,833.3033244999824,834.308442700014,830.2718683999847,830.2718683999847,830.2718683999847,830.2718683999847,,old_sceneOut_13.png,88,4.0,3.022481099993456,,051,00,2025-02-18_15h36.50.995,Surprise recog test,2023.1.3,59.983936291273054,
88,0,88,0,,,,,,,,,,,,,,,,,,,,,,,,,,,,,,,,,,837.3900820999988,838.3953745000181,834.308442700014,834.308442700014,834.308442700014,834.308442700014,,old_stationery_23.png,89,4.0,3.0716212000115775,,051,00,2025-02-18_15h36.50.995,Surprise recog test,2023.1.3,59.983936291273054,
89,0,89,0,,,,,,,,,,,,,,,,,,,,,,,,,,,,,,,,,,841.3265972000081,842.3315686999704,838.3953745000181,838.3953745000181,838.3953745000181,838.3953745000181,,new_sceneIn_48.png,90,3.0,2.9213579000206664,,051,00,2025-02-18_15h36.50.995,Surprise recog test,2023.1.3,59.983936291273054,
90,0,90,0,,,,,,,,,,,,,,,,,,,,,,,,,,,,,,,,,,845.8637137999758,846.8689114999725,842.3315686999704,842.3315686999704,842.3315686999704,842.3315686999704,,new_fruit_21.png,91,4.0,3.5222034999751486,,051,00,2025-02-18_15h36.50.995,Surprise recog test,2023.1.3,59.983936291273054,
91,0,91,0,,,,,,,,,,,,,,,,,,,,,,,,,,,,,,,,,,849.6168560999795,850.6229980000062,846.8689114999725,846.8689114999725,846.8689114999725,846.8689114999725,,new_sceneOut_19.png,92,4.0,2.7384158999775536,,051,00,2025-02-18_15h36.50.995,Surprise recog test,2023.1.3,59.983936291273054,
92,0,92,0,,,,,,,,,,,,,,,,,,,,,,,,,,,,,,,,,,854.1872455999837,855.1924028000212,850.6229980000062,850.6229980000062,850.6229980000062,850.6229980000062,,new_sceneIn_32.png,93,3.0,3.5563150999951176,,051,00,2025-02-18_15h36.50.995,Surprise recog test,2023.1.3,59.983936291273054,
93,0,93,0,,,,,,,,,,,,,,,,,,,,,,,,,,,,,,,,,,857.0062522999942,858.011338900018,855.1924028000212,855.1924028000212,855.1924028000212,855.1924028000212,,old_stationery_19.png,94,2.0,1.8036885000183247,,051,00,2025-02-18_15h36.50.995,Surprise recog test,2023.1.3,59.983936291273054,
94,0,94,0,,,,,,,,,,,,,,,,,,,,,,,,,,,,,,,,,,860.3925665999996,861.3973034999799,858.011338900018,858.011338900018,858.011338900018,858.011338900018,,old_fruit_3.png,95,3.0,2.3709159999853,,051,00,2025-02-18_15h36.50.995,Surprise recog test,2023.1.3,59.983936291273054,
95,0,95,0,,,,,,,,,,,,,,,,,,,,,,,,,,,,,,,,,,863.5450058999704,864.5515406000195,861.3973034999799,861.3973034999799,861.3973034999799,861.3973034999799,,new_stationery_26.png,96,3.0,2.137296100030653,,051,00,2025-02-18_15h36.50.995,Surprise recog test,2023.1.3,59.983936291273054,
96,0,96,0,,,,,,,,,,,,,,,,,,,,,,,,,,,,,,,,,,866.8477435000241,867.8577084999997,864.5515406000195,864.5515406000195,864.5515406000195,864.5515406000195,,old_sceneOut_39.png,97,4.0,2.289160000043921,,051,00,2025-02-18_15h36.50.995,Surprise recog test,2023.1.3,59.983936291273054,
97,0,97,0,,,,,,,,,,,,,,,,,,,,,,,,,,,,,,,,,,869.5667945999885,870.5758868000121,867.8577084999997,867.8577084999997,867.8577084999997,867.8577084999997,,new_stationery_43.png,98,4.0,1.699102699989453,,051,00,2025-02-18_15h36.50.995,Surprise recog test,2023.1.3,59.983936291273054,
98,0,98,0,,,,,,,,,,,,,,,,,,,,,,,,,,,,,,,,,,872.402030600002,873.4236243999912,870.5758868000121,870.5758868000121,870.5758868000121,870.5758868000121,,old_sceneOut_9.png,99,3.0,1.82121870003175,,051,00,2025-02-18_15h36.50.995,Surprise recog test,2023.1.3,59.983936291273054,
99,0,99,0,,,,,,,,,,,,,,,,,,,,,,,,,,,,,,,,,,875.307459099975,,873.4236243999912,873.4236243999912,873.4236243999912,873.4236243999912,,old_fruit_8.png,100,3.0,1.8874491999740712,,051,00,2025-02-18_15h36.50.995,Surprise recog test,2023.1.3,59.983936291273054,
100,0,100,0,,,,,,,,,,,,,,,,,,,,,,,,,,,,,,,,,,877.9025596000138,878.9265605999972,876.3265946999891,876.3265946999891,876.3265946999891,876.3265946999891,,new_sceneOut_36.png,101,4.0,1.5715122999972664,,051,00,2025-02-18_15h36.50.995,Surprise recog test,2023.1.3,59.983936291273054,
101,0,101,0,,,,,,,,,,,,,,,,,,,,,,,,,,,,,,,,,,879.8797638000106,,878.9265605999972,878.9265605999972,878.9265605999972,878.9265605999972,,new_sceneIn_15.png,102,4.0,0.95360539999092,,051,00,2025-02-18_15h36.50.995,Surprise recog test,2023.1.3,59.983936291273054,
102,0,102,0,,,,,,,,,,,,,,,,,,,,,,,,,,,,,,,,,,881.9913824999821,883.0033689999836,880.8997437999933,880.8997437999933,880.8997437999933,880.8997437999933,,new_sceneIn_33.png,103,4.0,1.0875880000530742,,051,00,2025-02-18_15h36.50.995,Surprise recog test,2023.1.3,59.983936291273054,
103,0,103,0,,,,,,,,,,,,,,,,,,,,,,,,,,,,,,,,,,883.7326180000091,,883.0033689999836,883.0033689999836,883.0033689999836,883.0033689999836,,old_sceneOut_31.png,104,4.0,0.7254058999824338,,051,00,2025-02-18_15h36.50.995,Surprise recog test,2023.1.3,59.983936291273054,
104,0,104,0,,,,,,,,,,,,,,,,,,,,,,,,,,,,,,,,,,886.7203556000022,887.7458605999709,884.7606269000098,884.7606269000098,884.7606269000098,884.7606269000098,,old_sceneIn_35.png,105,4.0,1.958532600023318,,051,00,2025-02-18_15h36.50.995,Surprise recog test,2023.1.3,59.983936291273054,
105,0,105,0,,,,,,,,,,,,,,,,,,,,,,,,,,,,,,,,,,888.817725699977,889.8360481999698,887.7458605999709,887.7458605999709,887.7458605999709,887.7458605999709,,new_sceneIn_44.png,106,4.0,1.0735554000129923,,051,00,2025-02-18_15h36.50.995,Surprise recog test,2023.1.3,59.983936291273054,
106,0,106,0,,,,,,,,,,,,,,,,,,,,,,,,,,,,,,,,,,890.847522200027,891.8594121999922,889.8360481999698,889.8360481999698,889.8360481999698,889.8360481999698,,old_sceneOut_47.png,107,4.0,1.0137181999743916,,051,00,2025-02-18_15h36.50.995,Surprise recog test,2023.1.3,59.983936291273054,
107,0,107,0,,,,,,,,,,,,,,,,,,,,,,,,,,,,,,,,,,893.7784123999882,894.7996970000095,891.8594121999922,891.8594121999922,891.8594121999922,891.8594121999922,,new_stationery_47.png,108,3.0,1.91554170002928,,051,00,2025-02-18_15h36.50.995,Surprise recog test,2023.1.3,59.983936291273054,
108,0,108,0,,,,,,,,,,,,,,,,,,,,,,,,,,,,,,,,,,896.7146873999736,897.7430540000205,894.7996970000095,894.7996970000095,894.7996970000095,894.7996970000095,,new_stationery_41.png,109,3.0,1.9092339999624528,,051,00,2025-02-18_15h36.50.995,Surprise recog test,2023.1.3,59.983936291273054,
109,0,109,0,,,,,,,,,,,,,,,,,,,,,,,,,,,,,,,,,,899.2100429999991,900.2307618000195,897.7430540000205,897.7430540000205,897.7430540000205,897.7430540000205,,new_sceneIn_19.png,110,4.0,1.4692458999925293,,051,00,2025-02-18_15h36.50.995,Surprise recog test,2023.1.3,59.983936291273054,
110,0,110,0,,,,,,,,,,,,,,,,,,,,,,,,,,,,,,,,,,901.8061860000016,902.8240378000191,900.2307618000195,900.2307618000195,900.2307618000195,900.2307618000195,,old_fruit_37.png,111,3.0,1.5785822999896482,,051,00,2025-02-18_15h36.50.995,Surprise recog test,2023.1.3,59.983936291273054,
111,0,111,0,,,,,,,,,,,,,,,,,,,,,,,,,,,,,,,,,,904.7793112000218,905.7870110999793,902.8240378000191,902.8240378000191,902.8240378000191,902.8240378000191,,old_stationery_5.png,112,3.0,1.9518654000130482,,051,00,2025-02-18_15h36.50.995,Surprise recog test,2023.1.3,59.983936291273054,
112,0,112,0,,,,,,,,,,,,,,,,,,,,,,,,,,,,,,,,,,907.4339975999901,,905.7870110999793,905.7870110999793,905.7870110999793,905.7870110999793,,new_fruit_43.png,113,3.0,1.6415005999733694,,051,00,2025-02-18_15h36.50.995,Surprise recog test,2023.1.3,59.983936291273054,
113,0,113,0,,,,,,,,,,,,,,,,,,,,,,,,,,,,,,,,,,911.2405920000165,912.2728797000018,908.4557752999826,908.4557752999826,908.4557752999826,908.4557752999826,,new_fruit_29.png,114,3.0,2.7808509999886155,,051,00,2025-02-18_15h36.50.995,Surprise recog test,2023.1.3,59.983936291273054,
114,0,114,0,,,,,,,,,,,,,,,,,,,,,,,,,,,,,,,,,,913.8948428999865,914.9215848000022,912.2728797000018,912.2728797000018,912.2728797000018,912.2728797000018,,old_stationery_34.png,115,2.0,1.625322400010191,,051,00,2025-02-18_15h36.50.995,Surprise recog test,2023.1.3,59.983936291273054,
115,0,115,0,,,,,,,,,,,,,,,,,,,,,,,,,,,,,,,,,,916.3927043000003,,914.9215848000022,914.9215848000022,914.9215848000022,914.9215848000022,,old_fruit_5.png,116,3.0,1.472879400011152,,051,00,2025-02-18_15h36.50.995,Surprise recog test,2023.1.3,59.983936291273054,
116,0,116,0,,,,,,,,,,,,,,,,,,,,,,,,,,,,,,,,,,919.0952977999696,,917.4267787999706,917.4267787999706,917.4267787999706,917.4267787999706,,new_fruit_8.png,117,3.0,1.6717520999955013,,051,00,2025-02-18_15h36.50.995,Surprise recog test,2023.1.3,59.983936291273054,
117,0,117,0,,,,,,,,,,,,,,,,,,,,,,,,,,,,,,,,,,921.4200591000263,922.431936500012,920.1261672999826,920.1261672999826,920.1261672999826,920.1261672999826,,new_sceneIn_6.png,118,4.0,1.2925832999753766,,051,00,2025-02-18_15h36.50.995,Surprise recog test,2023.1.3,59.983936291273054,
118,0,118,0,,,,,,,,,,,,,,,,,,,,,,,,,,,,,,,,,,924.497104900016,925.5057849999866,922.431936500012,922.431936500012,922.431936500012,922.431936500012,,old_stationery_22.png,119,2.0,2.062418700021226,,051,00,2025-02-18_15h36.50.995,Surprise recog test,2023.1.3,59.983936291273054,
119,0,119,0,,,,,,,,,,,,,,,,,,,,,,,,,,,,,,,,,,928.2013570999843,,925.5057849999866,925.5057849999866,925.5057849999866,925.5057849999866,,new_stationery_10.png,120,3.0,2.693091400025878,,051,00,2025-02-18_15h36.50.995,Surprise recog test,2023.1.3,59.983936291273054,
120,0,120,0,,,,,,,,,,,,,,,,,,,,,,,,,,,,,,,,,,931.9672306000139,932.9733407999738,929.2453256999725,929.2453256999725,929.2453256999725,929.2453256999725,,new_stationery_46.png,121,4.0,2.7276581000187434,,051,00,2025-02-18_15h36.50.995,Surprise recog test,2023.1.3,59.983936291273054,
121,0,121,0,,,,,,,,,,,,,,,,,,,,,,,,,,,,,,,,,,935.2973393999855,936.3106404999853,932.9733407999738,932.9733407999738,932.9733407999738,932.9733407999738,,old_sceneIn_22.png,122,3.0,2.320268000010401,,051,00,2025-02-18_15h36.50.995,Surprise recog test,2023.1.3,59.983936291273054,
122,0,122,0,,,,,,,,,,,,,,,,,,,,,,,,,,,,,,,,,,938.8910320000141,939.9125756999711,936.3106404999853,936.3106404999853,936.3106404999853,936.3106404999853,,new_sceneIn_14.png,123,4.0,2.5754409999935888,,051,00,2025-02-18_15h36.50.995,Surprise recog test,2023.1.3,59.983936291273054,
123,0,123,0,,,,,,,,,,,,,,,,,,,,,,,,,,,,,,,,,,942.2844656999805,943.3163903999957,939.9125756999711,939.9125756999711,939.9125756999711,939.9125756999711,,new_stationery_8.png,124,4.0,2.373541499953717,,051,00,2025-02-18_15h36.50.995,Surprise recog test,2023.1.3,59.983936291273054,
124,0,124,0,,,,,,,,,,,,,,,,,,,,,,,,,,,,,,,,,,944.7989764999948,,943.3163903999957,943.3163903999957,943.3163903999957,943.3163903999957,,new_stationery_35.png,125,4.0,1.4857267999905162,,051,00,2025-02-18_15h36.50.995,Surprise recog test,2023.1.3,59.983936291273054,
125,0,125,0,,,,,,,,,,,,,,,,,,,,,,,,,,,,,,,,,,947.9369240999804,948.9670560000231,945.831821699976,945.831821699976,945.831821699976,945.831821699976,,old_fruit_17.png,126,3.0,2.1066218999912962,,051,00,2025-02-18_15h36.50.995,Surprise recog test,2023.1.3,59.983936291273054,
126,0,126,0,,,,,,,,,,,,,,,,,,,,,,,,,,,,,,,,,,951.0016222000122,952.0085676999879,948.9670560000231,948.9670560000231,948.9670560000231,948.9670560000231,,new_sceneIn_4.png,127,4.0,2.0341080999933183,,051,00,2025-02-18_15h36.50.995,Surprise recog test,2023.1.3,59.983936291273054,
127,0,127,0,,,,,,,,,,,,,,,,,,,,,,,,,,,,,,,,,,953.7427720000269,954.7762707999791,952.0085676999879,952.0085676999879,952.0085676999879,952.0085676999879,,old_fruit_31.png,128,3.0,1.7306356999906711,,051,00,2025-02-18_15h36.50.995,Surprise recog test,2023.1.3,59.983936291273054,
128,0,128,0,,,,,,,,,,,,,,,,,,,,,,,,,,,,,,,,,,957.0412125000148,958.0476896999753,954.7762707999791,954.7762707999791,954.7762707999791,954.7762707999791,,new_stationery_6.png,129,4.0,2.269041199993808,,051,00,2025-02-18_15h36.50.995,Surprise recog test,2023.1.3,59.983936291273054,
129,0,129,0,,,,,,,,,,,,,,,,,,,,,,,,,,,,,,,,,,959.6610154000227,,958.0476896999753,958.0476896999753,958.0476896999753,958.0476896999753,,old_stationery_42.png,130,2.0,1.607908400008455,,051,00,2025-02-18_15h36.50.995,Surprise recog test,2023.1.3,59.983936291273054,
130,0,130,0,,,,,,,,,,,,,,,,,,,,,,,,,,,,,,,,,,963.1029943000176,964.1327031999826,960.6958970999694,960.6958970999694,960.6958970999694,960.6958970999694,,old_sceneOut_42.png,131,3.0,2.4100366999628022,,051,00,2025-02-18_15h36.50.995,Surprise recog test,2023.1.3,59.983936291273054,
131,0,131,0,,,,,,,,,,,,,,,,,,,,,,,,,,,,,,,,,,965.1863800999708,966.2041675000219,964.1327031999826,964.1327031999826,964.1327031999826,964.1327031999826,,new_sceneOut_6.png,132,3.0,1.0569948999909684,,051,00,2025-02-18_15h36.50.995,Surprise recog test,2023.1.3,59.983936291273054,
132,0,132,0,,,,,,,,,,,,,,,,,,,,,,,,,,,,,,,,,,969.0109357999754,970.0352502000169,966.2041675000219,966.2041675000219,966.2041675000219,966.2041675000219,,old_sceneOut_11.png,133,4.0,2.801641699974425,,051,00,2025-02-18_15h36.50.995,Surprise recog test,2023.1.3,59.983936291273054,
133,0,133,0,,,,,,,,,,,,,,,,,,,,,,,,,,,,,,,,,,971.5957408000249,972.6207442000159,970.0352502000169,970.0352502000169,970.0352502000169,970.0352502000169,,old_sceneIn_10.png,134,3.0,1.5621184000046924,,051,00,2025-02-18_15h36.50.995,Surprise recog test,2023.1.3,59.983936291273054,
134,0,134,0,,,,,,,,,,,,,,,,,,,,,,,,,,,,,,,,,,975.9727101000026,976.9913044999703,972.6207442000159,972.6207442000159,972.6207442000159,972.6207442000159,,new_stationery_39.png,135,4.0,3.3529440999845974,,051,00,2025-02-18_15h36.50.995,Surprise recog test,2023.1.3,59.983936291273054,
135,0,135,0,,,,,,,,,,,,,,,,,,,,,,,,,,,,,,,,,,977.8189929000218,978.8452337000053,976.9913044999703,976.9913044999703,976.9913044999703,976.9913044999703,,new_sceneOut_44.png,136,3.0,0.8294367999769747,,051,00,2025-02-18_15h36.50.995,Surprise recog test,2023.1.3,59.983936291273054,
136,0,136,0,,,,,,,,,,,,,,,,,,,,,,,,,,,,,,,,,,980.1773364000255,,978.8452337000053,978.8452337000053,978.8452337000053,978.8452337000053,,old_stationery_1.png,137,2.0,1.3323743999935687,,051,00,2025-02-18_15h36.50.995,Surprise recog test,2023.1.3,59.983936291273054,
137,0,137,0,,,,,,,,,,,,,,,,,,,,,,,,,,,,,,,,,,982.8052767000045,983.8291433000122,981.2120011000079,981.2120011000079,981.2120011000079,981.2120011000079,,old_sceneOut_2.png,138,3.0,1.5964785999967717,,051,00,2025-02-18_15h36.50.995,Surprise recog test,2023.1.3,59.983936291273054,
138,0,138,0,,,,,,,,,,,,,,,,,,,,,,,,,,,,,,,,,,986.2469892000081,987.2704090999905,983.8291433000122,983.8291433000122,983.8291433000122,983.8291433000122,,old_stationery_12.png,139,1.0,2.4106230000033975,,051,00,2025-02-18_15h36.50.995,Surprise recog test,2023.1.3,59.983936291273054,
139,0,139,0,,,,,,,,,,,,,,,,,,,,,,,,,,,,,,,,,,988.9804207999841,989.9907892000047,987.2704090999905,987.2704090999905,987.2704090999905,987.2704090999905,,new_stationery_2.png,140,2.0,1.7119658999727108,,051,00,2025-02-18_15h36.50.995,Surprise recog test,2023.1.3,59.983936291273054,
140,0,140,0,,,,,,,,,,,,,,,,,,,,,,,,,,,,,,,,,,991.837905500026,,989.9907892000047,989.9907892000047,989.9907892000047,989.9907892000047,,new_sceneOut_18.png,141,4.0,1.843374100048095,,051,00,2025-02-18_15h36.50.995,Surprise recog test,2023.1.3,59.983936291273054,
141,0,141,0,,,,,,,,,,,,,,,,,,,,,,,,,,,,,,,,,,995.7137781999772,996.73599929997,992.8592243000166,992.8592243000166,992.8592243000166,992.8592243000166,,new_sceneOut_4.png,142,4.0,2.8506386000080965,,051,00,2025-02-18_15h36.50.995,Surprise recog test,2023.1.3,59.983936291273054,
142,0,142,0,,,,,,,,,,,,,,,,,,,,,,,,,,,,,,,,,,999.0293578999699,1000.0626278999844,996.73599929997,996.73599929997,996.73599929997,996.73599929997,,old_sceneIn_34.png,143,4.0,2.293835999967996,,051,00,2025-02-18_15h36.50.995,Surprise recog test,2023.1.3,59.983936291273054,
143,0,143,0,,,,,,,,,,,,,,,,,,,,,,,,,,,,,,,,,,1001.6058519000071,1002.6183916999726,1000.0626278999844,1000.0626278999844,1000.0626278999844,1000.0626278999844,,new_sceneIn_50.png,144,3.0,1.5451973000308499,,051,00,2025-02-18_15h36.50.995,Surprise recog test,2023.1.3,59.983936291273054,
144,0,144,0,,,,,,,,,,,,,,,,,,,,,,,,,,,,,,,,,,1003.7454924000194,1004.7577180999797,1002.6183916999726,1002.6183916999726,1002.6183916999726,1002.6183916999726,,old_sceneOut_5.png,145,3.0,1.1190876999753527,,051,00,2025-02-18_15h36.50.995,Surprise recog test,2023.1.3,59.983936291273054,
145,0,145,0,,,,,,,,,,,,,,,,,,,,,,,,,,,,,,,,,,1006.5518143000081,1007.5700805999804,1004.7577180999797,1004.7577180999797,1004.7577180999797,1004.7577180999797,,old_stationery_2.png,146,2.0,1.794789999956265,,051,00,2025-02-18_15h36.50.995,Surprise recog test,2023.1.3,59.983936291273054,
146,0,146,0,,,,,,,,,,,,,,,,,,,,,,,,,,,,,,,,,,1008.866921000008,1009.8875949999783,1007.5700805999804,1007.5700805999804,1007.5700805999804,1007.5700805999804,,old_stationery_18.png,147,2.0,1.290669500012882,,051,00,2025-02-18_15h36.50.995,Surprise recog test,2023.1.3,59.983936291273054,
147,0,147,0,,,,,,,,,,,,,,,,,,,,,,,,,,,,,,,,,,1011.6680568999727,1012.6898239000002,1009.8875949999783,1009.8875949999783,1009.8875949999783,1009.8875949999783,,new_fruit_35.png,148,3.0,1.7766645000083372,,051,00,2025-02-18_15h36.50.995,Surprise recog test,2023.1.3,59.983936291273054,
148,0,148,0,,,,,,,,,,,,,,,,,,,,,,,,,,,,,,,,,,1014.7102443000185,1015.7423218999757,1012.6898239000002,1012.6898239000002,1012.6898239000002,1012.6898239000002,,old_stationery_36.png,149,1.0,2.0225868000416085,,051,00,2025-02-18_15h36.50.995,Surprise recog test,2023.1.3,59.983936291273054,
149,0,149,0,,,,,,,,,,,,,,,,,,,,,,,,,,,,,,,,,,1018.211641300004,1019.242916600022,1015.7423218999757,1015.7423218999757,1015.7423218999757,1015.7423218999757,,new_sceneIn_42.png,150,3.0,2.4714057999663055,,051,00,2025-02-18_15h36.50.995,Surprise recog test,2023.1.3,59.983936291273054,
150,0,150,0,,,,,,,,,,,,,,,,,,,,,,,,,,,,,,,,,,1021.2017040000064,1022.2340523999883,1019.242916600022,1019.242916600022,1019.242916600022,1019.242916600022,,old_stationery_21.png,151,2.0,1.9616149999783374,,051,00,2025-02-18_15h36.50.995,Surprise recog test,2023.1.3,59.983936291273054,
151,0,151,0,,,,,,,,,,,,,,,,,,,,,,,,,,,,,,,,,,1023.9737268000026,1024.9875470999978,1022.2340523999883,1022.2340523999883,1022.2340523999883,1022.2340523999883,,new_stationery_48.png,152,4.0,1.744764800008852,,051,00,2025-02-18_15h36.50.995,Surprise recog test,2023.1.3,59.983936291273054,
152,0,152,0,,,,,,,,,,,,,,,,,,,,,,,,,,,,,,,,,,1028.2169300999958,,1024.9875470999978,1024.9875470999978,1024.9875470999978,1024.9875470999978,,old_stationery_44.png,153,4.0,3.2282175000291318,,051,00,2025-02-18_15h36.50.995,Surprise recog test,2023.1.3,59.983936291273054,
153,0,153,0,,,,,,,,,,,,,,,,,,,,,,,,,,,,,,,,,,1031.0585427000187,1032.0904211999732,1029.2527555999695,1029.2527555999695,1029.2527555999695,1029.2527555999695,,new_fruit_18.png,154,2.0,1.8095828000223264,,051,00,2025-02-18_15h36.50.995,Surprise recog test,2023.1.3,59.983936291273054,
154,0,154,0,,,,,,,,,,,,,,,,,,,,,,,,,,,,,,,,,,1034.0140606000205,1035.0283160000108,1032.0904211999732,1032.0904211999732,1032.0904211999732,1032.0904211999732,,old_sceneIn_8.png,155,4.0,1.9253853000118397,,051,00,2025-02-18_15h36.50.995,Surprise recog test,2023.1.3,59.983936291273054,
155,0,155,0,,,,,,,,,,,,,,,,,,,,,,,,,,,,,,,,,,1036.7572794000152,1037.77283490001,1035.0283160000108,1035.0283160000108,1035.0283160000108,1035.0283160000108,,old_sceneIn_21.png,156,4.0,1.722329800017178,,051,00,2025-02-18_15h36.50.995,Surprise recog test,2023.1.3,59.983936291273054,
156,0,156,0,,,,,,,,,,,,,,,,,,,,,,,,,,,,,,,,,,1039.6953538000234,,1037.77283490001,1037.77283490001,1037.77283490001,1037.77283490001,,new_sceneOut_32.png,157,3.0,1.9241594999912195,,051,00,2025-02-18_15h36.50.995,Surprise recog test,2023.1.3,59.983936291273054,
157,0,157,0,,,,,,,,,,,,,,,,,,,,,,,,,,,,,,,,,,1042.644023299974,1043.6611856999807,1040.7275701999897,1040.7275701999897,1040.7275701999897,1040.7275701999897,,new_sceneIn_9.png,158,4.0,1.9170959000475705,,051,00,2025-02-18_15h36.50.995,Surprise recog test,2023.1.3,59.983936291273054,
158,0,158,0,,,,,,,,,,,,,,,,,,,,,,,,,,,,,,,,,,1046.6664338000119,,1043.6611856999807,1043.6611856999807,1043.6611856999807,1043.6611856999807,,old_sceneIn_1.png,159,3.0,3.0056923999800347,,051,00,2025-02-18_15h36.50.995,Surprise recog test,2023.1.3,59.983936291273054,
159,0,159,0,,,,,,,,,,,,,,,,,,,,,,,,,,,,,,,,,,1050.1642502999748,1051.1749081999878,1047.6963201999897,1047.6963201999897,1047.6963201999897,1047.6963201999897,,old_stationery_41.png,160,3.0,2.4659413000335917,,051,00,2025-02-18_15h36.50.995,Surprise recog test,2023.1.3,59.983936291273054,
160,0,160,0,,,,,,,,,,,,,,,,,,,,,,,,,,,,,,,,,,1052.661450500018,1053.677275300026,1051.1749081999878,1051.1749081999878,1051.1749081999878,1051.1749081999878,,new_sceneIn_22.png,161,3.0,1.4801956999581307,,051,00,2025-02-18_15h36.50.995,Surprise recog test,2023.1.3,59.983936291273054,
161,0,161,0,,,,,,,,,,,,,,,,,,,,,,,,,,,,,,,,,,1056.3954918999807,1057.4259868999943,1053.677275300026,1053.677275300026,1053.677275300026,1053.677275300026,,old_stationery_17.png,162,3.0,2.7139396999846213,,051,00,2025-02-18_15h36.50.995,Surprise recog test,2023.1.3,59.983936291273054,
162,0,162,0,,,,,,,,,,,,,,,,,,,,,,,,,,,,,,,,,,1059.2373071999755,1060.2604697999777,1057.4259868999943,1057.4259868999943,1057.4259868999943,1057.4259868999943,,old_stationery_39.png,163,1.0,1.811093800002709,,051,00,2025-02-18_15h36.50.995,Surprise recog test,2023.1.3,59.983936291273054,
163,0,163,0,,,,,,,,,,,,,,,,,,,,,,,,,,,,,,,,,,1062.7482568999985,,1060.2604697999777,1060.2604697999777,1060.2604697999777,1060.2604697999777,,old_fruit_23.png,164,2.0,2.488000600016676,,051,00,2025-02-18_15h36.50.995,Surprise recog test,2023.1.3,59.983936291273054,
164,0,164,0,,,,,,,,,,,,,,,,,,,,,,,,,,,,,,,,,,1064.8840951999882,1065.9168902999954,1063.768051400024,1063.768051400024,1063.768051400024,1063.768051400024,,old_fruit_21.png,165,3.0,1.11168060003547,,051,00,2025-02-18_15h36.50.995,Surprise recog test,2023.1.3,59.983936291273054,
165,0,165,0,,,,,,,,,,,,,,,,,,,,,,,,,,,,,,,,,,1068.0858347999747,,1065.9168902999954,1065.9168902999954,1065.9168902999954,1065.9168902999954,,new_sceneIn_8.png,166,3.0,2.1695374999544583,,051,00,2025-02-18_15h36.50.995,Surprise recog test,2023.1.3,59.983936291273054,
166,0,166,0,,,,,,,,,,,,,,,,,,,,,,,,,,,,,,,,,,1072.0161020000232,1073.0271646999754,1069.1218118999968,1069.1218118999968,1069.1218118999968,1069.1218118999968,,new_sceneOut_46.png,167,3.0,2.895759300037753,,051,00,2025-02-18_15h36.50.995,Surprise recog test,2023.1.3,59.983936291273054,
167,0,167,0,,,,,,,,,,,,,,,,,,,,,,,,,,,,,,,,,,1075.725281400024,,1073.0271646999754,1073.0271646999754,1073.0271646999754,1073.0271646999754,,old_sceneIn_32.png,168,3.0,2.6913932999596,,051,00,2025-02-18_15h36.50.995,Surprise recog test,2023.1.3,59.983936291273054,
168,0,168,0,,,,,,,,,,,,,,,,,,,,,,,,,,,,,,,,,,1077.488302999991,1078.4940525999991,1076.7602139000082,1076.7602139000082,1076.7602139000082,1076.7602139000082,,new_fruit_26.png,169,3.0,0.7293587999884039,,051,00,2025-02-18_15h36.50.995,Surprise recog test,2023.1.3,59.983936291273054,
169,0,169,0,,,,,,,,,,,,,,,,,,,,,,,,,,,,,,,,,,1080.214163800003,1081.2305278999847,1078.4940525999991,1078.4940525999991,1078.4940525999991,1078.4940525999991,,old_sceneIn_33.png,170,3.0,1.715961600013543,,051,00,2025-02-18_15h36.50.995,Surprise recog test,2023.1.3,59.983936291273054,
170,0,170,0,,,,,,,,,,,,,,,,,,,,,,,,,,,,,,,,,,1082.4772449000156,1083.4917096999707,1081.2305278999847,1081.2305278999847,1081.2305278999847,1081.2305278999847,,new_sceneOut_20.png,171,4.0,1.2443146000150591,,051,00,2025-02-18_15h36.50.995,Surprise recog test,2023.1.3,59.983936291273054,
171,0,171,0,,,,,,,,,,,,,,,,,,,,,,,,,,,,,,,,,,1084.816372899979,,1083.4917096999707,1083.4917096999707,1083.4917096999707,1083.4917096999707,,old_fruit_4.png,172,3.0,1.322910699993372,,051,00,2025-02-18_15h36.50.995,Surprise recog test,2023.1.3,59.983936291273054,
172,0,172,0,,,,,,,,,,,,,,,,,,,,,,,,,,,,,,,,,,1088.6053717000177,1089.6242307000211,1085.8465020000003,1085.8465020000003,1085.8465020000003,1085.8465020000003,,new_sceneIn_23.png,173,3.0,2.7573943000170402,,051,00,2025-02-18_15h36.50.995,Surprise recog test,2023.1.3,59.983936291273054,
173,0,173,0,,,,,,,,,,,,,,,,,,,,,,,,,,,,,,,,,,1091.5892951000133,1092.6198448999785,1089.6242307000211,1089.6242307000211,1089.6242307000211,1089.6242307000211,,new_fruit_10.png,174,3.0,1.9618286000331864,,051,00,2025-02-18_15h36.50.995,Surprise recog test,2023.1.3,59.983936291273054,
174,0,174,0,,,,,,,,,,,,,,,,,,,,,,,,,,,,,,,,,,1094.827461400011,1095.8457371999975,1092.6198448999785,1092.6198448999785,1092.6198448999785,1092.6198448999785,,old_sceneOut_36.png,175,3.0,2.208833599986974,,051,00,2025-02-18_15h36.50.995,Surprise recog test,2023.1.3,59.983936291273054,
175,0,175,0,,,,,,,,,,,,,,,,,,,,,,,,,,,,,,,,,,1097.4577519000159,,1095.8457371999975,1095.8457371999975,1095.8457371999975,1095.8457371999975,,old_stationery_3.png,176,2.0,1.6071892000036314,,051,00,2025-02-18_15h36.50.995,Surprise recog test,2023.1.3,59.983936291273054,
176,0,176,0,,,,,,,,,,,,,,,,,,,,,,,,,,,,,,,,,,1099.8023548999918,1100.8264760000166,1098.4804756999947,1098.4804756999947,1098.4804756999947,1098.4804756999947,,new_sceneOut_37.png,177,3.0,1.316534399986267,,051,00,2025-02-18_15h36.50.995,Surprise recog test,2023.1.3,59.983936291273054,
177,0,177,0,,,,,,,,,,,,,,,,,,,,,,,,,,,,,,,,,,1103.4524645999772,1104.4774522000225,1100.8264760000166,1100.8264760000166,1100.8264760000166,1100.8264760000166,,old_sceneIn_13.png,178,3.0,2.627299199986737,,051,00,2025-02-18_15h36.50.995,Surprise recog test,2023.1.3,59.983936291273054,
178,0,178,0,,,,,,,,,,,,,,,,,,,,,,,,,,,,,,,,,,1105.9401022000238,1106.9649490999873,1104.4774522000225,1104.4774522000225,1104.4774522000225,1104.4774522000225,,new_fruit_7.png,179,4.0,1.462260200001765,,051,00,2025-02-18_15h36.50.995,Surprise recog test,2023.1.3,59.983936291273054,
179,0,179,0,,,,,,,,,,,,,,,,,,,,,,,,,,,,,,,,,,1108.1314919000142,1109.1517791000078,1106.9649490999873,1106.9649490999873,1106.9649490999873,1106.9649490999873,,new_sceneIn_11.png,180,4.0,1.1668770000105724,,051,00,2025-02-18_15h36.50.995,Surprise recog test,2023.1.3,59.983936291273054,
180,0,180,0,,,,,,,,,,,,,,,,,,,,,,,,,,,,,,,,,,1111.118543700024,1112.1331738000154,1109.1517791000078,1109.1517791000078,1109.1517791000078,1109.1517791000078,,old_sceneOut_34.png,181,3.0,1.9678892000229098,,051,00,2025-02-18_15h36.50.995,Surprise recog test,2023.1.3,59.983936291273054,
181,0,181,0,,,,,,,,,,,,,,,,,,,,,,,,,,,,,,,,,,1113.616247500002,1114.633137100027,1112.1331738000154,1112.1331738000154,1112.1331738000154,1112.1331738000154,,old_fruit_26.png,182,3.0,1.4842618000111543,,051,00,2025-02-18_15h36.50.995,Surprise recog test,2023.1.3,59.983936291273054,
182,0,182,0,,,,,,,,,,,,,,,,,,,,,,,,,,,,,,,,,,1115.9086352000013,,1114.633137100027,1114.633137100027,1114.633137100027,1114.633137100027,,old_fruit_50.png,183,3.0,1.276229900016915,,051,00,2025-02-18_15h36.50.995,Surprise recog test,2023.1.3,59.983936291273054,
183,0,183,0,,,,,,,,,,,,,,,,,,,,,,,,,,,,,,,,,,1117.6478834999725,1118.6642095000134,1116.9407943999977,1116.9407943999977,1116.9407943999977,1116.9407943999977,,old_sceneOut_6.png,184,3.0,0.7077504000044428,,051,00,2025-02-18_15h36.50.995,Surprise recog test,2023.1.3,59.983936291273054,
184,0,184,0,,,,,,,,,,,,,,,,,,,,,,,,,,,,,,,,,,1119.6663748999708,1120.6950994000072,1118.6642095000134,1118.6642095000134,1118.6642095000134,1118.6642095000134,,new_sceneOut_3.png,185,3.0,0.9982451000250876,,051,00,2025-02-18_15h36.50.995,Surprise recog test,2023.1.3,59.983936291273054,
185,0,185,0,,,,,,,,,,,,,,,,,,,,,,,,,,,,,,,,,,1121.7311767999781,1122.7634906999883,1120.6950994000072,1120.6950994000072,1120.6950994000072,1120.6950994000072,,new_fruit_25.png,186,3.0,1.0389405000023544,,051,00,2025-02-18_15h36.50.995,Surprise recog test,2023.1.3,59.983936291273054,
186,0,186,0,,,,,,,,,,,,,,,,,,,,,,,,,,,,,,,,,,1124.1328829000122,1125.165250400023,1122.7634906999883,1122.7634906999883,1122.7634906999883,1122.7634906999883,,new_sceneOut_41.png,187,3.0,1.3714075000025332,,051,00,2025-02-18_15h36.50.995,Surprise recog test,2023.1.3,59.983936291273054,
187,0,187,0,,,,,,,,,,,,,,,,,,,,,,,,,,,,,,,,,,1126.9652214000234,1127.971729199984,1125.165250400023,1125.165250400023,1125.165250400023,1125.165250400023,,new_sceneOut_49.png,188,3.0,1.8008389999740757,,051,00,2025-02-18_15h36.50.995,Surprise recog test,2023.1.3,59.983936291273054,
188,0,188,0,,,,,,,,,,,,,,,,,,,,,,,,,,,,,,,,,,1130.243451300019,1131.2704004999832,1127.971729199984,1127.971729199984,1127.971729199984,1127.971729199984,,new_sceneOut_12.png,189,4.0,2.267772099992726,,051,00,2025-02-18_15h36.50.995,Surprise recog test,2023.1.3,59.983936291273054,
189,0,189,0,,,,,,,,,,,,,,,,,,,,,,,,,,,,,,,,,,1134.26150839997,1135.2903761999914,1131.2704004999832,1131.2704004999832,1131.2704004999832,1131.2704004999832,,old_sceneIn_43.png,190,4.0,2.991105899971444,,051,00,2025-02-18_15h36.50.995,Surprise recog test,2023.1.3,59.983936291273054,
190,0,190,0,,,,,,,,,,,,,,,,,,,,,,,,,,,,,,,,,,1136.8198084000032,1137.835747300007,1135.2903761999914,1135.2903761999914,1135.2903761999914,1135.2903761999914,,new_stationery_21.png,191,4.0,1.5310696000233293,,051,00,2025-02-18_15h36.50.995,Surprise recog test,2023.1.3,59.983936291273054,
191,0,191,0,,,,,,,,,,,,,,,,,,,,,,,,,,,,,,,,,,1139.586824900005,1140.5994115999783,1137.835747300007,1137.835747300007,1137.835747300007,1137.835747300007,,new_fruit_22.png,192,3.0,1.7454243000247516,,051,00,2025-02-18_15h36.50.995,Surprise recog test,2023.1.3,59.983936291273054,
192,0,192,0,,,,,,,,,,,,,,,,,,,,,,,,,,,,,,,,,,1141.5819818999735,1142.6143871999811,1140.5994115999783,1140.5994115999783,1140.5994115999783,1140.5994115999783,,old_sceneOut_48.png,193,3.0,0.978885100048501,,051,00,2025-02-18_15h36.50.995,Surprise recog test,2023.1.3,59.983936291273054,
193,0,193,0,,,,,,,,,,,,,,,,,,,,,,,,,,,,,,,,,,1144.97863279999,1145.987159500015,1142.6143871999811,1142.6143871999811,1142.6143871999811,1142.6143871999811,,new_fruit_41.png,194,4.0,2.3650902999797836,,051,00,2025-02-18_15h36.50.995,Surprise recog test,2023.1.3,59.983936291273054,
194,0,194,0,,,,,,,,,,,,,,,,,,,,,,,,,,,,,,,,,,1147.8432853000122,1148.8560746000148,1145.987159500015,1145.987159500015,1145.987159500015,1145.987159500015,,old_fruit_6.png,195,3.0,1.8522136000101455,,051,00,2025-02-18_15h36.50.995,Surprise recog test,2023.1.3,59.983936291273054,
195,0,195,0,,,,,,,,,,,,,,,,,,,,,,,,,,,,,,,,,,1150.4070819999906,1151.4383482999983,1148.8560746000148,1148.8560746000148,1148.8560746000148,1148.8560746000148,,old_sceneIn_2.png,196,4.0,1.546573499974329,,051,00,2025-02-18_15h36.50.995,Surprise recog test,2023.1.3,59.983936291273054,
196,0,196,0,,,,,,,,,,,,,,,,,,,,,,,,,,,,,,,,,,1152.3730577999959,1153.4046199999866,1151.4383482999983,1151.4383482999983,1151.4383482999983,1151.4383482999983,,old_sceneOut_18.png,197,3.0,0.9338504000334069,,051,00,2025-02-18_15h36.50.995,Surprise recog test,2023.1.3,59.983936291273054,
197,0,197,0,,,,,,,,,,,,,,,,,,,,,,,,,,,,,,,,,,1155.6341810000013,1156.6607158000115,1153.4046199999866,1153.4046199999866,1153.4046199999866,1153.4046199999866,,old_fruit_39.png,198,3.0,2.230219000019133,,051,00,2025-02-18_15h36.50.995,Surprise recog test,2023.1.3,59.983936291273054,
198,0,198,0,,,,,,,,,,,,,,,,,,,,,,,,,,,,,,,,,,1158.8022926999838,1159.8274311000132,1156.6607158000115,1156.6607158000115,1156.6607158000115,1156.6607158000115,,old_sceneOut_8.png,199,3.0,2.1439417999936268,,051,00,2025-02-18_15h36.50.995,Surprise recog test,2023.1.3,59.983936291273054,
199,0,199,0,,,,,,,,,,,,,,,,,,,,,,,,,,,,,,,,,,1161.9184372000163,1162.9468135000207,1159.8274311000132,1159.8274311000132,1159.8274311000132,1159.8274311000132,,old_stationery_46.png,200,1.0,2.094179500010796,,051,00,2025-02-18_15h36.50.995,Surprise recog test,2023.1.3,59.983936291273054,
200,0,200,0,,,,,,,,,,,,,,,,,,,,,,,,,,,,,,,,,,1165.9007185000228,,1162.9468135000207,1162.9468135000207,1162.9468135000207,1162.9468135000207,,new_stationery_32.png,201,3.0,2.9560326000209898,,051,00,2025-02-18_15h36.50.995,Surprise recog test,2023.1.3,59.983936291273054,
201,0,201,0,,,,,,,,,,,,,,,,,,,,,,,,,,,,,,,,,,1169.1774085999932,1170.2049964999896,1166.931787199981,1166.931787199981,1166.931787199981,1166.931787199981,,old_sceneIn_25.png,202,4.0,2.2439502999768592,,051,00,2025-02-18_15h36.50.995,Surprise recog test,2023.1.3,59.983936291273054,
202,0,202,0,,,,,,,,,,,,,,,,,,,,,,,,,,,,,,,,,,1173.023285400006,1174.0438957000151,1170.2049964999896,1170.2049964999896,1170.2049964999896,1170.2049964999896,,new_sceneIn_34.png,203,4.0,2.8216843999689445,,051,00,2025-02-18_15h36.50.995,Surprise recog test,2023.1.3,59.983936291273054,
203,0,203,0,,,,,,,,,,,,,,,,,,,,,,,,,,,,,,,,,,1177.0621719000046,1178.0807516999776,1174.0438957000151,1174.0438957000151,1174.0438957000151,1174.0438957000151,,old_sceneIn_16.png,204,3.0,3.0140632999828085,,051,00,2025-02-18_15h36.50.995,Surprise recog test,2023.1.3,59.983936291273054,
204,0,204,0,,,,,,,,,,,,,,,,,,,,,,,,,,,,,,,,,,1179.7862124000094,1180.7991443999927,1178.0807516999776,1178.0807516999776,1178.0807516999776,1178.0807516999776,,new_stationery_9.png,205,2.0,1.6992426000069827,,051,00,2025-02-18_15h36.50.995,Surprise recog test,2023.1.3,59.983936291273054,
205,0,205,0,,,,,,,,,,,,,,,,,,,,,,,,,,,,,,,,,,1182.1529571000137,1183.1760471999878,1180.7991443999927,1180.7991443999927,1180.7991443999927,1180.7991443999927,,old_sceneOut_21.png,206,3.0,1.3492020999547094,,051,00,2025-02-18_15h36.50.995,Surprise recog test,2023.1.3,59.983936291273054,
206,0,206,0,,,,,,,,,,,,,,,,,,,,,,,,,,,,,,,,,,1184.4904062999994,1185.513977100025,1183.1760471999878,1183.1760471999878,1183.1760471999878,1183.1760471999878,,new_stationery_28.png,207,2.0,1.3135754000395536,,051,00,2025-02-18_15h36.50.995,Surprise recog test,2023.1.3,59.983936291273054,
207,0,207,0,,,,,,,,,,,,,,,,,,,,,,,,,,,,,,,,,,1187.5102704999736,1188.5319962999783,1185.513977100025,1185.513977100025,1185.513977100025,1185.513977100025,,new_stationery_34.png,208,3.0,1.999007900012657,,051,00,2025-02-18_15h36.50.995,Surprise recog test,2023.1.3,59.983936291273054,
208,0,208,0,,,,,,,,,,,,,,,,,,,,,,,,,,,,,,,,,,1190.808410800004,1191.8247612999985,1188.5319962999783,1188.5319962999783,1188.5319962999783,1188.5319962999783,,old_stationery_27.png,209,2.0,2.2781599999871105,,051,00,2025-02-18_15h36.50.995,Surprise recog test,2023.1.3,59.983936291273054,
209,0,209,0,,,,,,,,,,,,,,,,,,,,,,,,,,,,,,,,,,1193.161058800004,1194.1894075999735,1191.8247612999985,1191.8247612999985,1191.8247612999985,1191.8247612999985,,new_fruit_6.png,210,3.0,1.3323024000274017,,051,00,2025-02-18_15h36.50.995,Surprise recog test,2023.1.3,59.983936291273054,
210,0,210,0,,,,,,,,,,,,,,,,,,,,,,,,,,,,,,,,,,1196.3713564000209,1197.392357899982,1194.1894075999735,1194.1894075999735,1194.1894075999735,1194.1894075999735,,new_stationery_24.png,211,3.0,2.1814064000500366,,051,00,2025-02-18_15h36.50.995,Surprise recog test,2023.1.3,59.983936291273054,
211,0,211,0,,,,,,,,,,,,,,,,,,,,,,,,,,,,,,,,,,1199.8075667999801,1200.8249861000222,1197.392357899982,1197.392357899982,1197.392357899982,1197.392357899982,,old_sceneIn_39.png,212,4.0,2.4171193999936804,,051,00,2025-02-18_15h36.50.995,Surprise recog test,2023.1.3,59.983936291273054,
212,0,212,0,,,,,,,,,,,,,,,,,,,,,,,,,,,,,,,,,,1201.692467099987,1202.714979499986,1200.8249861000222,1200.8249861000222,1200.8249861000222,1200.8249861000222,,old_sceneOut_33.png,213,3.0,0.8651623000041582,,051,00,2025-02-18_15h36.50.995,Surprise recog test,2023.1.3,59.983936291273054,
213,0,213,0,,,,,,,,,,,,,,,,,,,,,,,,,,,,,,,,,,1203.5101804999867,1204.531240399985,1202.714979499986,1202.714979499986,1202.714979499986,1202.714979499986,,new_sceneOut_5.png,214,3.0,0.7966631000163034,,051,00,2025-02-18_15h36.50.995,Surprise recog test,2023.1.3,59.983936291273054,
214,0,214,0,,,,,,,,,,,,,,,,,,,,,,,,,,,,,,,,,,1205.769074700016,1206.8011717000045,1204.531240399985,1204.531240399985,1204.531240399985,1204.531240399985,,new_fruit_17.png,215,3.0,1.2379677999997512,,051,00,2025-02-18_15h36.50.995,Surprise recog test,2023.1.3,59.983936291273054,
215,0,215,0,,,,,,,,,,,,,,,,,,,,,,,,,,,,,,,,,,1208.0700569999753,1209.1026535999845,1206.8011717000045,1206.8011717000045,1206.8011717000045,1206.8011717000045,,old_fruit_2.png,216,3.0,1.2711742999963462,,051,00,2025-02-18_15h36.50.995,Surprise recog test,2023.1.3,59.983936291273054,
216,0,216,0,,,,,,,,,,,,,,,,,,,,,,,,,,,,,,,,,,1210.054007800005,,1209.1026535999845,1209.1026535999845,1209.1026535999845,1209.1026535999845,,old_sceneIn_37.png,217,3.0,0.9505240999860689,,051,00,2025-02-18_15h36.50.995,Surprise recog test,2023.1.3,59.983936291273054,
217,0,217,0,,,,,,,,,,,,,,,,,,,,,,,,,,,,,,,,,,1211.9593268000172,1212.976061400026,1211.0827522000181,1211.0827522000181,1211.0827522000181,1211.0827522000181,,old_fruit_27.png,218,3.0,0.8787387000047602,,051,00,2025-02-18_15h36.50.995,Surprise recog test,2023.1.3,59.983936291273054,
218,0,218,0,,,,,,,,,,,,,,,,,,,,,,,,,,,,,,,,,,1214.661891900003,1215.6884482000023,1212.976061400026,1212.976061400026,1212.976061400026,1212.976061400026,,new_fruit_32.png,219,3.0,1.6821212999639101,,051,00,2025-02-18_15h36.50.995,Surprise recog test,2023.1.3,59.983936291273054,
219,0,219,0,,,,,,,,,,,,,,,,,,,,,,,,,,,,,,,,,,1218.3951446000137,1219.428002999979,1215.6884482000023,1215.6884482000023,1215.6884482000023,1215.6884482000023,,old_sceneOut_23.png,220,3.0,2.706344000005629,,051,00,2025-02-18_15h36.50.995,Surprise recog test,2023.1.3,59.983936291273054,
220,0,220,0,,,,,,,,,,,,,,,,,,,,,,,,,,,,,,,,,,1221.0084194000228,1222.0277854999877,1219.428002999979,1219.428002999979,1219.428002999979,1219.428002999979,,new_fruit_19.png,221,4.0,1.5779944999958389,,051,00,2025-02-18_15h36.50.995,Surprise recog test,2023.1.3,59.983936291273054,
221,0,221,0,,,,,,,,,,,,,,,,,,,,,,,,,,,,,,,,,,1223.2321042999974,1224.261685399979,1222.0277854999877,1222.0277854999877,1222.0277854999877,1222.0277854999877,,new_sceneIn_24.png,222,4.0,1.2076373000163585,,051,00,2025-02-18_15h36.50.995,Surprise recog test,2023.1.3,59.983936291273054,
222,0,222,0,,,,,,,,,,,,,,,,,,,,,,,,,,,,,,,,,,1225.3826812999905,,1224.261685399979,1224.261685399979,1224.261685399979,1224.261685399979,,old_sceneIn_27.png,223,4.0,1.1205091000301763,,051,00,2025-02-18_15h36.50.995,Surprise recog test,2023.1.3,59.983936291273054,
223,0,223,0,,,,,,,,,,,,,,,,,,,,,,,,,,,,,,,,,,1227.3927165999776,1228.415474599984,1226.4152428000234,1226.4152428000234,1226.4152428000234,1226.4152428000234,,old_sceneOut_38.png,224,4.0,0.9791636999580078,,051,00,2025-02-18_15h36.50.995,Surprise recog test,2023.1.3,59.983936291273054,
224,0,224,0,,,,,,,,,,,,,,,,,,,,,,,,,,,,,,,,,,1230.3996209999896,1231.4163601999753,1228.415474599984,1228.415474599984,1228.415474599984,1228.415474599984,,old_stationery_16.png,225,3.0,1.9809750000131316,,051,00,2025-02-18_15h36.50.995,Surprise recog test,2023.1.3,59.983936291273054,
225,0,225,0,,,,,,,,,,,,,,,,,,,,,,,,,,,,,,,,,,1233.4049636999844,,1231.4163601999753,1231.4163601999753,1231.4163601999753,1231.4163601999753,,old_fruit_28.png,226,3.0,1.9908356000087224,,051,00,2025-02-18_15h36.50.995,Surprise recog test,2023.1.3,59.983936291273054,
226,0,226,0,,,,,,,,,,,,,,,,,,,,,,,,,,,,,,,,,,1236.356682499987,,1234.4386081999983,1234.4386081999983,1234.4386081999983,1234.4386081999983,,old_sceneIn_14.png,227,3.0,1.9202378999907523,,051,00,2025-02-18_15h36.50.995,Surprise recog test,2023.1.3,59.983936291273054,
227,0,227,0,,,,,,,,,,,,,,,,,,,,,,,,,,,,,,,,,,1238.4495943000074,1239.4642508000252,1237.3922275999794,1237.3922275999794,1237.3922275999794,1237.3922275999794,,old_sceneIn_20.png,228,4.0,1.058198899962008,,051,00,2025-02-18_15h36.50.995,Surprise recog test,2023.1.3,59.983936291273054,
228,0,228,0,,,,,,,,,,,,,,,,,,,,,,,,,,,,,,,,,,1241.5285164000234,,1239.4642508000252,1239.4642508000252,1239.4642508000252,1239.4642508000252,,new_stationery_13.png,229,3.0,2.059949200018309,,051,00,2025-02-18_15h36.50.995,Surprise recog test,2023.1.3,59.983936291273054,
229,0,229,0,,,,,,,,,,,,,,,,,,,,,,,,,,,,,,,,,,1243.869751900027,1244.8967709999997,1242.5495910000172,1242.5495910000172,1242.5495910000172,1242.5495910000172,,new_sceneIn_45.png,230,4.0,1.3165601000073366,,051,00,2025-02-18_15h36.50.995,Surprise recog test,2023.1.3,59.983936291273054,
230,0,230,0,,,,,,,,,,,,,,,,,,,,,,,,,,,,,,,,,,1246.4333415,,1244.8967709999997,1244.8967709999997,1244.8967709999997,1244.8967709999997,,old_sceneOut_43.png,231,3.0,1.5404539000010118,,051,00,2025-02-18_15h36.50.995,Surprise recog test,2023.1.3,59.983936291273054,
231,0,231,0,,,,,,,,,,,,,,,,,,,,,,,,,,,,,,,,,,1249.3723590999725,1250.4027823000215,1247.4660933000268,1247.4660933000268,1247.4660933000268,1247.4660933000268,,new_sceneOut_7.png,232,3.0,1.9061910000164062,,051,00,2025-02-18_15h36.50.995,Surprise recog test,2023.1.3,59.983936291273054,
232,0,232,0,,,,,,,,,,,,,,,,,,,,,,,,,,,,,,,,,,1252.7088235000265,1253.7395926999743,1250.4027823000215,1250.4027823000215,1250.4027823000215,1250.4027823000215,,old_fruit_32.png,233,3.0,2.306013800029177,,051,00,2025-02-18_15h36.50.995,Surprise recog test,2023.1.3,59.983936291273054,
233,0,233,0,,,,,,,,,,,,,,,,,,,,,,,,,,,,,,,,,,1254.8824417999713,1255.9078204000252,1253.7395926999743,1253.7395926999743,1253.7395926999743,1253.7395926999743,,old_sceneOut_19.png,234,4.0,1.1461993000120856,,051,00,2025-02-18_15h36.50.995,Surprise recog test,2023.1.3,59.983936291273054,
234,0,234,0,,,,,,,,,,,,,,,,,,,,,,,,,,,,,,,,,,1257.1790329000214,1258.198462100001,1255.9078204000252,1255.9078204000252,1255.9078204000252,1255.9078204000252,,new_fruit_33.png,235,3.0,1.2753406999981962,,051,00,2025-02-18_15h36.50.995,Surprise recog test,2023.1.3,59.983936291273054,
235,0,235,0,,,,,,,,,,,,,,,,,,,,,,,,,,,,,,,,,,1259.0109649000224,,1258.198462100001,1258.198462100001,1258.198462100001,1258.198462100001,,old_sceneOut_16.png,236,3.0,0.8100234000012279,,051,00,2025-02-18_15h36.50.995,Surprise recog test,2023.1.3,59.983936291273054,
236,0,236,0,,,,,,,,,,,,,,,,,,,,,,,,,,,,,,,,,,1262.572342199972,1263.5932226000004,1260.0317299999879,1260.0317299999879,1260.0317299999879,1260.0317299999879,,new_stationery_44.png,237,3.0,2.53403789998265,,051,00,2025-02-18_15h36.50.995,Surprise recog test,2023.1.3,59.983936291273054,
237,0,237,0,,,,,,,,,,,,,,,,,,,,,,,,,,,,,,,,,,1265.203441300022,1266.2208110999782,1263.5932226000004,1263.5932226000004,1263.5932226000004,1263.5932226000004,,new_sceneIn_3.png,238,4.0,1.6114905000431463,,051,00,2025-02-18_15h36.50.995,Surprise recog test,2023.1.3,59.983936291273054,
238,0,238,0,,,,,,,,,,,,,,,,,,,,,,,,,,,,,,,,,,1267.017215800006,,1266.2208110999782,1266.2208110999782,1266.2208110999782,1266.2208110999782,,old_sceneOut_45.png,239,3.0,0.7919755000039004,,051,00,2025-02-18_15h36.50.995,Surprise recog test,2023.1.3,59.983936291273054,
239,0,239,0,,,,,,,,,,,,,,,,,,,,,,,,,,,,,,,,,,1269.655876600009,1270.6864164000144,1268.0487068999792,1268.0487068999792,1268.0487068999792,1268.0487068999792,,new_sceneIn_16.png,240,4.0,1.6080800000345334,,051,00,2025-02-18_15h36.50.995,Surprise recog test,2023.1.3,59.983936291273054,
240,0,240,0,,,,,,,,,,,,,,,,,,,,,,,,,,,,,,,,,,1271.6525071000215,,1270.6864164000144,1270.6864164000144,1270.6864164000144,1270.6864164000144,,new_sceneIn_28.png,241,4.0,0.9692665999755263,,051,00,2025-02-18_15h36.50.995,Surprise recog test,2023.1.3,59.983936291273054,
241,0,241,0,,,,,,,,,,,,,,,,,,,,,,,,,,,,,,,,,,1274.1092098000227,1275.14022880001,1272.674921399972,1272.674921399972,1272.674921399972,1272.674921399972,,new_fruit_23.png,242,3.0,1.429626900004223,,051,00,2025-02-18_15h36.50.995,Surprise recog test,2023.1.3,59.983936291273054,
242,0,242,0,,,,,,,,,,,,,,,,,,,,,,,,,,,,,,,,,,1277.7735495999805,1278.7907307000132,1275.14022880001,1275.14022880001,1275.14022880001,1275.14022880001,,old_sceneIn_45.png,243,4.0,2.6363579999888316,,051,00,2025-02-18_15h36.50.995,Surprise recog test,2023.1.3,59.983936291273054,
243,0,243,0,,,,,,,,,,,,,,,,,,,,,,,,,,,,,,,,,,1279.5746815999737,1280.5780433000182,1278.7907307000132,1278.7907307000132,1278.7907307000132,1278.7907307000132,,old_sceneOut_7.png,244,3.0,0.7853227000450715,,051,00,2025-02-18_15h36.50.995,Surprise recog test,2023.1.3,59.983936291273054,
244,0,244,0,,,,,,,,,,,,,,,,,,,,,,,,,,,,,,,,,,1281.4818347999826,1282.514322299976,1280.5780433000182,1280.5780433000182,1280.5780433000182,1280.5780433000182,,new_fruit_1.png,245,3.0,0.8975179999833927,,051,00,2025-02-18_15h36.50.995,Surprise recog test,2023.1.3,59.983936291273054,
245,0,245,0,,,,,,,,,,,,,,,,,,,,,,,,,,,,,,,,,,1283.9631248000078,,1282.514322299976,1282.514322299976,1282.514322299976,1282.514322299976,,old_sceneIn_7.png,246,4.0,1.4522840999998152,,051,00,2025-02-18_15h36.50.995,Surprise recog test,2023.1.3,59.983936291273054,
246,0,246,0,,,,,,,,,,,,,,,,,,,,,,,,,,,,,,,,,,1286.3315237999777,,1285.0005692000268,1285.0005692000268,1285.0005692000268,1285.0005692000268,,old_stationery_40.png,247,2.0,1.332959099963773,,051,00,2025-02-18_15h36.50.995,Surprise recog test,2023.1.3,59.983936291273054,
247,0,247,0,,,,,,,,,,,,,,,,,,,,,,,,,,,,,,,,,,1289.1328226000187,1290.1570284999907,1287.366765999992,1287.366765999992,1287.366765999992,1287.366765999992,,new_stationery_36.png,248,3.0,1.7686902999994345,,051,00,2025-02-18_15h36.50.995,Surprise recog test,2023.1.3,59.983936291273054,
248,0,248,0,,,,,,,,,,,,,,,,,,,,,,,,,,,,,,,,,,1292.5511500000139,1293.5688156000106,1290.1570284999907,1290.1570284999907,1290.1570284999907,1290.1570284999907,,new_sceneIn_47.png,249,3.0,2.394175500026904,,051,00,2025-02-18_15h36.50.995,Surprise recog test,2023.1.3,59.983936291273054,
249,0,249,0,,,,,,,,,,,,,,,,,,,,,,,,,,,,,,,,,,1295.6434707000153,1296.6620828000014,1293.5688156000106,1293.5688156000106,1293.5688156000106,1293.5688156000106,,new_sceneIn_30.png,250,3.0,2.073368399986066,,051,00,2025-02-18_15h36.50.995,Surprise recog test,2023.1.3,59.983936291273054,
250,0,250,0,,,,,,,,,,,,,,,,,,,,,,,,,,,,,,,,,,1299.1194274000009,1300.1458992999978,1296.6620828000014,1296.6620828000014,1296.6620828000014,1296.6620828000014,,old_sceneOut_10.png,251,3.0,2.453218900016509,,051,00,2025-02-18_15h36.50.995,Surprise recog test,2023.1.3,59.983936291273054,
251,0,251,0,,,,,,,,,,,,,,,,,,,,,,,,,,,,,,,,,,1301.151797199971,1302.1814409000217,1300.1458992999978,1300.1458992999978,1300.1458992999978,1300.1458992999978,,old_fruit_40.png,252,3.0,1.0089905000058934,,051,00,2025-02-18_15h36.50.995,Surprise recog test,2023.1.3,59.983936291273054,
252,0,252,0,,,,,,,,,,,,,,,,,,,,,,,,,,,,,,,,,,1304.1402842000243,1305.1524788999814,1302.1814409000217,1302.1814409000217,1302.1814409000217,1302.1814409000217,,old_sceneOut_50.png,253,3.0,1.961838399991393,,051,00,2025-02-18_15h36.50.995,Surprise recog test,2023.1.3,59.983936291273054,
253,0,253,0,,,,,,,,,,,,,,,,,,,,,,,,,,,,,,,,,,1306.759388800012,1307.7789726000046,1305.1524788999814,1305.1524788999814,1305.1524788999814,1305.1524788999814,,old_sceneOut_1.png,254,4.0,1.6023589000105858,,051,00,2025-02-18_15h36.50.995,Surprise recog test,2023.1.3,59.983936291273054,
254,0,254,0,,,,,,,,,,,,,,,,,,,,,,,,,,,,,,,,,,1309.615277200006,1310.6368654000107,1307.7789726000046,1307.7789726000046,1307.7789726000046,1307.7789726000046,,old_fruit_16.png,255,3.0,1.8325649000471458,,051,00,2025-02-18_15h36.50.995,Surprise recog test,2023.1.3,59.983936291273054,
255,0,255,0,,,,,,,,,,,,,,,,,,,,,,,,,,,,,,,,,,1313.1446514999843,1314.1663064999739,1310.6368654000107,1310.6368654000107,1310.6368654000107,1310.6368654000107,,old_sceneIn_42.png,256,3.0,2.5109479000093415,,051,00,2025-02-18_15h36.50.995,Surprise recog test,2023.1.3,59.983936291273054,
256,0,256,0,,,,,,,,,,,,,,,,,,,,,,,,,,,,,,,,,,1316.0760748999892,1317.1097129000118,1314.1663064999739,1314.1663064999739,1314.1663064999739,1314.1663064999739,,old_stationery_4.png,257,2.0,1.9114859999972396,,051,00,2025-02-18_15h36.50.995,Surprise recog test,2023.1.3,59.983936291273054,
257,0,257,0,,,,,,,,,,,,,,,,,,,,,,,,,,,,,,,,,,1319.718359599996,1320.7442549000261,1317.1097129000118,1317.1097129000118,1317.1097129000118,1317.1097129000118,,new_stationery_42.png,258,3.0,2.6118800000404008,,051,00,2025-02-18_15h36.50.995,Surprise recog test,2023.1.3,59.983936291273054,
258,0,258,0,,,,,,,,,,,,,,,,,,,,,,,,,,,,,,,,,,1324.2478777000215,,1320.7442549000261,1320.7442549000261,1320.7442549000261,1320.7442549000261,,new_sceneIn_40.png,259,4.0,3.5046725000138395,,051,00,2025-02-18_15h36.50.995,Surprise recog test,2023.1.3,59.983936291273054,
259,0,259,0,,,,,,,,,,,,,,,,,,,,,,,,,,,,,,,,,,1326.3973556000274,1327.4163715000032,1325.2686993000098,1325.2686993000098,1325.2686993000098,1325.2686993000098,,old_fruit_9.png,260,3.0,1.1224259000155143,,051,00,2025-02-18_15h36.50.995,Surprise recog test,2023.1.3,59.983936291273054,
260,0,260,0,,,,,,,,,,,,,,,,,,,,,,,,,,,,,,,,,,1329.4143150000018,1330.4369919999735,1327.4163715000032,1327.4163715000032,1327.4163715000032,1327.4163715000032,,new_sceneOut_48.png,261,3.0,2.0001489000278525,,051,00,2025-02-18_15h36.50.995,Surprise recog test,2023.1.3,59.983936291273054,
261,0,261,0,,,,,,,,,,,,,,,,,,,,,,,,,,,,,,,,,,1331.3713308000006,1332.4024932999746,1330.4369919999735,1330.4369919999735,1330.4369919999735,1330.4369919999735,,new_fruit_48.png,262,3.0,0.9371508000185713,,051,00,2025-02-18_15h36.50.995,Surprise recog test,2023.1.3,59.983936291273054,
262,0,262,0,,,,,,,,,,,,,,,,,,,,,,,,,,,,,,,,,,1334.0691391999717,1335.0774155000108,1332.4024932999746,1332.4024932999746,1332.4024932999746,1332.4024932999746,,new_sceneIn_49.png,263,3.0,1.6668211999931373,,051,00,2025-02-18_15h36.50.995,Surprise recog test,2023.1.3,59.983936291273054,
263,0,263,0,,,,,,,,,,,,,,,,,,,,,,,,,,,,,,,,,,1337.471809300012,1338.480314299988,1335.0774155000108,1335.0774155000108,1335.0774155000108,1335.0774155000108,,new_sceneOut_17.png,264,4.0,2.3835359000368044,,051,00,2025-02-18_15h36.50.995,Surprise recog test,2023.1.3,59.983936291273054,
264,0,264,0,,,,,,,,,,,,,,,,,,,,,,,,,,,,,,,,,,1340.7238374999724,1341.7334436000092,1338.480314299988,1338.480314299988,1338.480314299988,1338.480314299988,,old_fruit_13.png,265,3.0,2.2369971000007354,,051,00,2025-02-18_15h36.50.995,Surprise recog test,2023.1.3,59.983936291273054,
265,0,265,0,,,,,,,,,,,,,,,,,,,,,,,,,,,,,,,,,,1343.9525154000148,1344.9689512000186,1341.7334436000092,1341.7334436000092,1341.7334436000092,1341.7334436000092,,new_stationery_40.png,266,3.0,2.215226400003303,,051,00,2025-02-18_15h36.50.995,Surprise recog test,2023.1.3,59.983936291273054,
266,0,266,0,,,,,,,,,,,,,,,,,,,,,,,,,,,,,,,,,,1347.4220654999954,1348.4429649999947,1344.9689512000186,1344.9689512000186,1344.9689512000186,1344.9689512000186,,old_sceneOut_40.png,267,3.0,2.4467323000426404,,051,00,2025-02-18_15h36.50.995,Surprise recog test,2023.1.3,59.983936291273054,
267,0,267,0,,,,,,,,,,,,,,,,,,,,,,,,,,,,,,,,,,1350.734542899998,1351.7403017000179,1348.4429649999947,1348.4429649999947,1348.4429649999947,1348.4429649999947,,new_sceneOut_47.png,268,4.0,2.2887462999788113,,051,00,2025-02-18_15h36.50.995,Surprise recog test,2023.1.3,59.983936291273054,
268,0,268,0,,,,,,,,,,,,,,,,,,,,,,,,,,,,,,,,,,1354.37698120001,1355.4062471999787,1351.7403017000179,1351.7403017000179,1351.7403017000179,1351.7403017000179,,new_sceneIn_12.png,269,2.0,2.6301962999859825,,051,00,2025-02-18_15h36.50.995,Surprise recog test,2023.1.3,59.983936291273054,
269,0,269,0,,,,,,,,,,,,,,,,,,,,,,,,,,,,,,,,,,1358.6450908000115,1359.6612621999811,1355.4062471999787,1355.4062471999787,1355.4062471999787,1355.4062471999787,,new_stationery_25.png,270,4.0,3.23936850001337,,051,00,2025-02-18_15h36.50.995,Surprise recog test,2023.1.3,59.983936291273054,
270,0,270,0,,,,,,,,,,,,,,,,,,,,,,,,,,,,,,,,,,1361.2300711999997,1362.2616139000165,1359.6612621999811,1359.6612621999811,1359.6612621999811,1359.6612621999811,,old_stationery_15.png,271,2.0,1.5650671999901533,,051,00,2025-02-18_15h36.50.995,Surprise recog test,2023.1.3,59.983936291273054,
271,0,271,0,,,,,,,,,,,,,,,,,,,,,,,,,,,,,,,,,,1364.0103787999833,1365.0314242999884,1362.2616139000165,1362.2616139000165,1362.2616139000165,1362.2616139000165,,old_sceneIn_26.png,272,3.0,1.750242599984631,,051,00,2025-02-18_15h36.50.995,Surprise recog test,2023.1.3,59.983936291273054,
272,0,272,0,,,,,,,,,,,,,,,,,,,,,,,,,,,,,,,,,,1367.1196181999985,1368.136519199994,1365.0314242999884,1365.0314242999884,1365.0314242999884,1365.0314242999884,,old_sceneIn_46.png,273,2.0,2.090626700024586,,051,00,2025-02-18_15h36.50.995,Surprise recog test,2023.1.3,59.983936291273054,
273,0,273,0,,,,,,,,,,,,,,,,,,,,,,,,,,,,,,,,,,1370.837736800022,1371.8753093000269,1368.136519199994,1368.136519199994,1368.136519199994,1368.136519199994,,old_stationery_45.png,274,4.0,2.6973095000139438,,051,00,2025-02-18_15h36.50.995,Surprise recog test,2023.1.3,59.983936291273054,
274,0,274,0,,,,,,,,,,,,,,,,,,,,,,,,,,,,,,,,,,1373.413741299999,1374.4387724000262,1371.8753093000269,1371.8753093000269,1371.8753093000269,1371.8753093000269,,new_sceneIn_2.png,275,4.0,1.5418093000189401,,051,00,2025-02-18_15h36.50.995,Surprise recog test,2023.1.3,59.983936291273054,
275,0,275,0,,,,,,,,,,,,,,,,,,,,,,,,,,,,,,,,,,1376.320660999976,1377.3422408999759,1374.4387724000262,1374.4387724000262,1374.4387724000262,1374.4387724000262,,new_fruit_24.png,276,4.0,1.8783963999594562,,051,00,2025-02-18_15h36.50.995,Surprise recog test,2023.1.3,59.983936291273054,
276,0,276,0,,,,,,,,,,,,,,,,,,,,,,,,,,,,,,,,,,1379.0256481000106,,1377.3422408999759,1377.3422408999759,1377.3422408999759,1377.3422408999759,,new_sceneIn_43.png,277,4.0,1.6852713999687694,,051,00,2025-02-18_15h36.50.995,Surprise recog test,2023.1.3,59.983936291273054,
277,0,277,0,,,,,,,,,,,,,,,,,,,,,,,,,,,,,,,,,,1380.8806864999933,1381.9137961000088,1380.056703899987,1380.056703899987,1380.056703899987,1380.056703899987,,new_sceneOut_2.png,278,3.0,0.8267135000205599,,051,00,2025-02-18_15h36.50.995,Surprise recog test,2023.1.3,59.983936291273054,
278,0,278,0,,,,,,,,,,,,,,,,,,,,,,,,,,,,,,,,,,1382.6323871000204,1383.651807199989,1381.9137961000088,1381.9137961000088,1381.9137961000088,1381.9137961000088,,old_fruit_22.png,279,3.0,0.721181400003843,,051,00,2025-02-18_15h36.50.995,Surprise recog test,2023.1.3,59.983936291273054,
279,0,279,0,,,,,,,,,,,,,,,,,,,,,,,,,,,,,,,,,,1384.494119399984,1385.520103799994,1383.651807199989,1383.651807199989,1383.651807199989,1383.651807199989,,new_sceneOut_35.png,280,3.0,0.8337997000198811,,051,00,2025-02-18_15h36.50.995,Surprise recog test,2023.1.3,59.983936291273054,
280,0,280,0,,,,,,,,,,,,,,,,,,,,,,,,,,,,,,,,,,1387.939926000021,1388.9548791999696,1385.520103799994,1385.520103799994,1385.520103799994,1385.520103799994,,old_stationery_13.png,281,1.0,2.424511799996253,,051,00,2025-02-18_15h36.50.995,Surprise recog test,2023.1.3,59.983936291273054,
281,0,281,0,,,,,,,,,,,,,,,,,,,,,,,,,,,,,,,,,,1390.561290499987,1391.580286899989,1388.9548791999696,1388.9548791999696,1388.9548791999696,1388.9548791999696,,old_stationery_48.png,282,1.0,1.6018006000085734,,051,00,2025-02-18_15h36.50.995,Surprise recog test,2023.1.3,59.983936291273054,
282,0,282,0,,,,,,,,,,,,,,,,,,,,,,,,,,,,,,,,,,1393.58250889997,1394.6065646000206,1391.580286899989,1391.580286899989,1391.580286899989,1391.580286899989,,old_sceneIn_23.png,283,3.0,2.0008371000294574,,051,00,2025-02-18_15h36.50.995,Surprise recog test,2023.1.3,59.983936291273054,
283,0,283,0,,,,,,,,,,,,,,,,,,,,,,,,,,,,,,,,,,1395.7384535999736,1396.7519799000002,1394.6065646000206,1394.6065646000206,1394.6065646000206,1394.6065646000206,,old_sceneOut_28.png,284,3.0,1.1331142000271939,,051,00,2025-02-18_15h36.50.995,Surprise recog test,2023.1.3,59.983936291273054,
284,0,284,0,,,,,,,,,,,,,,,,,,,,,,,,,,,,,,,,,,1399.7236225000233,1400.7427036999725,1396.7519799000002,1396.7519799000002,1396.7519799000002,1396.7519799000002,,new_stationery_31.png,285,3.0,2.971969900012482,,051,00,2025-02-18_15h36.50.995,Surprise recog test,2023.1.3,59.983936291273054,
285,0,285,0,,,,,,,,,,,,,,,,,,,,,,,,,,,,,,,,,,1403.434899099986,1404.4613075000234,1400.7427036999725,1400.7427036999725,1400.7427036999725,1400.7427036999725,,new_sceneIn_18.png,286,3.0,2.694396600010805,,051,00,2025-02-18_15h36.50.995,Surprise recog test,2023.1.3,59.983936291273054,
286,0,286,0,,,,,,,,,,,,,,,,,,,,,,,,,,,,,,,,,,1407.0876119000022,1408.1152355999802,1404.4613075000234,1404.4613075000234,1404.4613075000234,1404.4613075000234,,new_stationery_49.png,287,2.0,2.6275587999843992,,051,00,2025-02-18_15h36.50.995,Surprise recog test,2023.1.3,59.983936291273054,
287,0,287,0,,,,,,,,,,,,,,,,,,,,,,,,,,,,,,,,,,1408.9810249999864,1410.0035829999833,1408.1152355999802,1408.1152355999802,1408.1152355999802,1408.1152355999802,,new_fruit_2.png,288,3.0,0.8676517000421882,,051,00,2025-02-18_15h36.50.995,Surprise recog test,2023.1.3,59.983936291273054,
288,0,288,0,,,,,,,,,,,,,,,,,,,,,,,,,,,,,,,,,,1411.9914737999788,1413.0185570999747,1410.0035829999833,1410.0035829999833,1410.0035829999833,1410.0035829999833,,new_stationery_38.png,289,2.0,1.9912722000153735,,051,00,2025-02-18_15h36.50.995,Surprise recog test,2023.1.3,59.983936291273054,
289,0,289,0,,,,,,,,,,,,,,,,,,,,,,,,,,,,,,,,,,1415.0521793999942,1416.0614345999784,1413.0185570999747,1413.0185570999747,1413.0185570999747,1413.0185570999747,,new_fruit_42.png,290,3.0,2.034109400003217,,051,00,2025-02-18_15h36.50.995,Surprise recog test,2023.1.3,59.983936291273054,
290,0,290,0,,,,,,,,,,,,,,,,,,,,,,,,,,,,,,,,,,1417.3947243000148,1418.4135463000275,1416.0614345999784,1416.0614345999784,1416.0614345999784,1416.0614345999784,,new_sceneOut_45.png,291,3.0,1.3272326999576762,,051,00,2025-02-18_15h36.50.995,Surprise recog test,2023.1.3,59.983936291273054,
291,0,291,0,,,,,,,,,,,,,,,,,,,,,,,,,,,,,,,,,,1419.8139703000197,1420.8318589000264,1418.4135463000275,1418.4135463000275,1418.4135463000275,1418.4135463000275,,new_fruit_15.png,292,3.0,1.3965238999808207,,051,00,2025-02-18_15h36.50.995,Surprise recog test,2023.1.3,59.983936291273054,
292,0,292,0,,,,,,,,,,,,,,,,,,,,,,,,,,,,,,,,,,1422.0336748000118,1423.0647917999886,1420.8318589000264,1420.8318589000264,1420.8318589000264,1420.8318589000264,,old_sceneIn_11.png,293,3.0,1.1978549000341445,,051,00,2025-02-18_15h36.50.995,Surprise recog test,2023.1.3,59.983936291273054,
293,0,293,0,,,,,,,,,,,,,,,,,,,,,,,,,,,,,,,,,,1424.0683062999742,1425.094979299989,1423.0647917999886,1423.0647917999886,1423.0647917999886,1423.0647917999886,,old_sceneIn_5.png,294,3.0,1.0075505000422709,,051,00,2025-02-18_15h36.50.995,Surprise recog test,2023.1.3,59.983936291273054,
294,0,294,0,,,,,,,,,,,,,,,,,,,,,,,,,,,,,,,,,,1426.2620946000097,1427.2831212999881,1425.094979299989,1425.094979299989,1425.094979299989,1425.094979299989,,old_fruit_30.png,295,3.0,1.1617643000208773,,051,00,2025-02-18_15h36.50.995,Surprise recog test,2023.1.3,59.983936291273054,
295,0,295,0,,,,,,,,,,,,,,,,,,,,,,,,,,,,,,,,,,1428.1706288999994,1429.1968126000138,1427.2831212999881,1427.2831212999881,1427.2831212999881,1427.2831212999881,,new_sceneIn_10.png,296,4.0,0.8873287999886088,,051,00,2025-02-18_15h36.50.995,Surprise recog test,2023.1.3,59.983936291273054,
296,0,296,0,,,,,,,,,,,,,,,,,,,,,,,,,,,,,,,,,,1430.1751199999708,1431.2012158000143,1429.1968126000138,1429.1968126000138,1429.1968126000138,1429.1968126000138,,old_sceneIn_15.png,297,4.0,0.9791752999881282,,051,00,2025-02-18_15h36.50.995,Surprise recog test,2023.1.3,59.983936291273054,
297,0,297,0,,,,,,,,,,,,,,,,,,,,,,,,,,,,,,,,,,1433.117762800015,1434.1380115000065,1431.2012158000143,1431.2012158000143,1431.2012158000143,1431.2012158000143,,old_stationery_11.png,298,3.0,1.911384699982591,,051,00,2025-02-18_15h36.50.995,Surprise recog test,2023.1.3,59.983936291273054,
298,0,298,0,,,,,,,,,,,,,,,,,,,,,,,,,,,,,,,,,,1436.0352790000034,1437.05642909999,1434.1380115000065,1434.1380115000065,1434.1380115000065,1434.1380115000065,,new_fruit_13.png,299,3.0,1.8992965999641456,,051,00,2025-02-18_15h36.50.995,Surprise recog test,2023.1.3,59.983936291273054,
299,0,299,0,,,,,,,,,,,,,,,,,,,,,,,,,,,,,,,,,,1439.0080226999708,,1437.05642909999,1437.05642909999,1437.05642909999,1437.05642909999,,new_sceneOut_23.png,300,4.0,1.95139860000927,,051,00,2025-02-18_15h36.50.995,Surprise recog test,2023.1.3,59.983936291273054,
300,0,300,0,,,,,,,,,,,,,,,,,,,,,,,,,,,,,,,,,,1442.5263821000117,1443.545847499976,1440.0455986000015,1440.0455986000015,1440.0455986000015,1440.0455986000015,,new_sceneIn_25.png,301,4.0,2.4854068999993615,,051,00,2025-02-18_15h36.50.995,Surprise recog test,2023.1.3,59.983936291273054,
301,0,301,0,,,,,,,,,,,,,,,,,,,,,,,,,,,,,,,,,,1445.0633781999932,,1443.545847499976,1443.545847499976,1443.545847499976,1443.545847499976,,old_sceneOut_22.png,302,3.0,1.5188772000255994,,051,00,2025-02-18_15h36.50.995,Surprise recog test,2023.1.3,59.983936291273054,
302,0,302,0,,,,,,,,,,,,,,,,,,,,,,,,,,,,,,,,,,1447.9497625000076,,1446.0931408000179,1446.0931408000179,1446.0931408000179,1446.0931408000179,,old_fruit_10.png,303,4.0,1.8563240999937989,,051,00,2025-02-18_15h36.50.995,Surprise recog test,2023.1.3,59.983936291273054,
303,0,303,0,,,,,,,,,,,,,,,,,,,,,,,,,,,,,,,,,,1450.0350801000022,,1448.976872499974,1448.976872499974,1448.976872499974,1448.976872499974,,old_sceneOut_49.png,304,3.0,1.0582280999515206,,051,00,2025-02-18_15h36.50.995,Surprise recog test,2023.1.3,59.983936291273054,
304,0,304,0,,,,,,,,,,,,,,,,,,,,,,,,,,,,,,,,,,1451.8333012000076,1452.8532380000106,1451.0683264000108,1451.0683264000108,1451.0683264000108,1451.0683264000108,,new_fruit_14.png,305,3.0,0.7635312000056729,,051,00,2025-02-18_15h36.50.995,Surprise recog test,2023.1.3,59.983936291273054,
305,0,305,0,,,,,,,,,,,,,,,,,,,,,,,,,,,,,,,,,,1454.8691438999958,1455.89253740001,1452.8532380000106,1452.8532380000106,1452.8532380000106,1452.8532380000106,,new_fruit_16.png,306,4.0,2.0153438999550417,,051,00,2025-02-18_15h36.50.995,Surprise recog test,2023.1.3,59.983936291273054,
306,0,306,0,,,,,,,,,,,,,,,,,,,,,,,,,,,,,,,,,,1457.6665779000032,1458.6932106000022,1455.89253740001,1455.89253740001,1455.89253740001,1455.89253740001,,new_stationery_12.png,307,3.0,1.7757153999991715,,051,00,2025-02-18_15h36.50.995,Surprise recog test,2023.1.3,59.983936291273054,
307,0,307,0,,,,,,,,,,,,,,,,,,,,,,,,,,,,,,,,,,1461.6321444999776,1462.6494717000169,1458.6932106000022,1458.6932106000022,1458.6932106000022,1458.6932106000022,,new_sceneIn_5.png,308,3.0,2.939693199994508,,051,00,2025-02-18_15h36.50.995,Surprise recog test,2023.1.3,59.983936291273054,
308,0,308,0,,,,,,,,,,,,,,,,,,,,,,,,,,,,,,,,,,1464.3269731000182,1465.3458970999927,1462.6494717000169,1462.6494717000169,1462.6494717000169,1462.6494717000169,,old_stationery_28.png,309,2.0,1.6667164000100456,,051,00,2025-02-18_15h36.50.995,Surprise recog test,2023.1.3,59.983936291273054,
309,0,309,0,,,,,,,,,,,,,,,,,,,,,,,,,,,,,,,,,,1466.2250496000051,1467.2499498000252,1465.3458970999927,1465.3458970999927,1465.3458970999927,1465.3458970999927,,old_fruit_41.png,310,3.0,0.8799803999718279,,051,00,2025-02-18_15h36.50.995,Surprise recog test,2023.1.3,59.983936291273054,
310,0,310,0,,,,,,,,,,,,,,,,,,,,,,,,,,,,,,,,,,1469.466803200019,,1467.2499498000252,1467.2499498000252,1467.2499498000252,1467.2499498000252,,old_sceneIn_31.png,311,3.0,2.2167641000123695,,051,00,2025-02-18_15h36.50.995,Surprise recog test,2023.1.3,59.983936291273054,
311,0,311,0,,,,,,,,,,,,,,,,,,,,,,,,,,,,,,,,,,1471.2236794999917,1472.2493148000212,1470.5009967000224,1470.5009967000224,1470.5009967000224,1470.5009967000224,,new_sceneOut_50.png,312,3.0,0.7209558000322431,,051,00,2025-02-18_15h36.50.995,Surprise recog test,2023.1.3,59.983936291273054,
312,0,312,0,,,,,,,,,,,,,,,,,,,,,,,,,,,,,,,,,,1473.6367227999726,,1472.2493148000212,1472.2493148000212,1472.2493148000212,1472.2493148000212,,new_fruit_30.png,313,4.0,1.3890532999648713,,051,00,2025-02-18_15h36.50.995,Surprise recog test,2023.1.3,59.983936291273054,
313,0,313,0,,,,,,,,,,,,,,,,,,,,,,,,,,,,,,,,,,1476.2907239000197,,1474.670908799977,1474.670908799977,1474.670908799977,1474.670908799977,,new_stationery_20.png,314,3.0,1.622195500007365,,051,00,2025-02-18_15h36.50.995,Surprise recog test,2023.1.3,59.983936291273054,
314,0,314,0,,,,,,,,,,,,,,,,,,,,,,,,,,,,,,,,,,1478.4798893000116,1479.5099666999886,1477.315829499974,1477.315829499974,1477.315829499974,1477.315829499974,,old_fruit_7.png,315,3.0,1.1638865999993868,,051,00,2025-02-18_15h36.50.995,Surprise recog test,2023.1.3,59.983936291273054,
315,0,315,0,,,,,,,,,,,,,,,,,,,,,,,,,,,,,,,,,,1483.1783632999868,,1479.5099666999886,1479.5099666999886,1479.5099666999886,1479.5099666999886,,old_sceneIn_19.png,316,4.0,3.6683419999899343,,051,00,2025-02-18_15h36.50.995,Surprise recog test,2023.1.3,59.983936291273054,
316,0,316,0,,,,,,,,,,,,,,,,,,,,,,,,,,,,,,,,,,1485.9421823999728,1486.9673908000113,1484.2140007999842,1484.2140007999842,1484.2140007999842,1484.2140007999842,,old_sceneIn_12.png,317,4.0,1.731251900026109,,051,00,2025-02-18_15h36.50.995,Surprise recog test,2023.1.3,59.983936291273054,
317,0,317,0,,,,,,,,,,,,,,,,,,,,,,,,,,,,,,,,,,1489.0563804000267,1490.0802095999825,1486.9673908000113,1486.9673908000113,1486.9673908000113,1486.9673908000113,,new_stationery_18.png,318,3.0,2.0904564000084065,,051,00,2025-02-18_15h36.50.995,Surprise recog test,2023.1.3,59.983936291273054,
318,0,318,0,,,,,,,,,,,,,,,,,,,,,,,,,,,,,,,,,,1492.64666269999,1493.658490700007,1490.0802095999825,1490.0802095999825,1490.0802095999825,1490.0802095999825,,old_sceneOut_27.png,319,4.0,2.56040270003723,,051,00,2025-02-18_15h36.50.995,Surprise recog test,2023.1.3,59.983936291273054,
319,0,319,0,,,,,,,,,,,,,,,,,,,,,,,,,,,,,,,,,,1494.7021401000093,1495.7211471999763,1493.658490700007,1493.658490700007,1493.658490700007,1493.658490700007,,new_sceneIn_41.png,320,4.0,1.039628400001675,,051,00,2025-02-18_15h36.50.995,Surprise recog test,2023.1.3,59.983936291273054,
320,0,320,0,,,,,,,,,,,,,,,,,,,,,,,,,,,,,,,,,,1497.6625866999966,1498.6932289000251,1495.7211471999763,1495.7211471999763,1495.7211471999763,1495.7211471999763,,new_stationery_30.png,321,2.0,1.9433902999735437,,051,00,2025-02-18_15h36.50.995,Surprise recog test,2023.1.3,59.983936291273054,
321,0,321,0,,,,,,,,,,,,,,,,,,,,,,,,,,,,,,,,,,1500.383854500018,1501.3971595999901,1498.6932289000251,1498.6932289000251,1498.6932289000251,1498.6932289000251,,new_sceneOut_15.png,322,3.0,1.693149099999573,,051,00,2025-02-18_15h36.50.995,Surprise recog test,2023.1.3,59.983936291273054,
322,0,322,0,,,,,,,,,,,,,,,,,,,,,,,,,,,,,,,,,,1503.7823324999772,1504.8105360000045,1501.3971595999901,1501.3971595999901,1501.3971595999901,1501.3971595999901,,new_stationery_27.png,323,3.0,2.3791649999911897,,051,00,2025-02-18_15h36.50.995,Surprise recog test,2023.1.3,59.983936291273054,
323,0,323,0,,,,,,,,,,,,,,,,,,,,,,,,,,,,,,,,,,1505.6946834999835,1506.7136794999824,1504.8105360000045,1504.8105360000045,1504.8105360000045,1504.8105360000045,,old_fruit_11.png,324,3.0,0.879490299965255,,051,00,2025-02-18_15h36.50.995,Surprise recog test,2023.1.3,59.983936291273054,
324,0,324,0,,,,,,,,,,,,,,,,,,,,,,,,,,,,,,,,,,1508.3169966000132,,1506.7136794999824,1506.7136794999824,1506.7136794999824,1506.7136794999824,,old_sceneOut_30.png,325,3.0,1.6020302000106312,,051,00,2025-02-18_15h36.50.995,Surprise recog test,2023.1.3,59.983936291273054,
325,0,325,0,,,,,,,,,,,,,,,,,,,,,,,,,,,,,,,,,,1511.7656574000139,1512.7868367999909,1509.3382147999946,1509.3382147999946,1509.3382147999946,1509.3382147999946,,new_sceneIn_13.png,326,3.0,2.4232470999704674,,051,00,2025-02-18_15h36.50.995,Surprise recog test,2023.1.3,59.983936291273054,
326,0,326,0,,,,,,,,,,,,,,,,,,,,,,,,,,,,,,,,,,1514.009806999995,1515.0360635999823,1512.7868367999909,1512.7868367999909,1512.7868367999909,1512.7868367999909,,new_stationery_22.png,327,2.0,1.2231344999745488,,051,00,2025-02-18_15h36.50.995,Surprise recog test,2023.1.3,59.983936291273054,
327,0,327,0,,,,,,,,,,,,,,,,,,,,,,,,,,,,,,,,,,1516.125142099976,1517.1582866000244,1515.0360635999823,1515.0360635999823,1515.0360635999823,1515.0360635999823,,new_fruit_20.png,328,3.0,1.0908077000058256,,051,00,2025-02-18_15h36.50.995,Surprise recog test,2023.1.3,59.983936291273054,
328,0,328,0,,,,,,,,,,,,,,,,,,,,,,,,,,,,,,,,,,1518.6588318999857,,1517.1582866000244,1517.1582866000244,1517.1582866000244,1517.1582866000244,,new_sceneIn_7.png,329,3.0,1.5031872000545263,,051,00,2025-02-18_15h36.50.995,Surprise recog test,2023.1.3,59.983936291273054,
329,0,329,0,,,,,,,,,,,,,,,,,,,,,,,,,,,,,,,,,,1520.35066549998,1521.3771001999849,1519.6921059999731,1519.6921059999731,1519.6921059999731,1519.6921059999731,,old_sceneOut_35.png,330,3.0,0.6609613999607973,,051,00,2025-02-18_15h36.50.995,Surprise recog test,2023.1.3,59.983936291273054,
330,0,330,0,,,,,,,,,,,,,,,,,,,,,,,,,,,,,,,,,,1523.270915800007,1524.2845697000157,1521.3771001999849,1521.3771001999849,1521.3771001999849,1521.3771001999849,,new_stationery_11.png,331,3.0,1.8953274000086822,,051,00,2025-02-18_15h36.50.995,Surprise recog test,2023.1.3,59.983936291273054,
331,0,331,0,,,,,,,,,,,,,,,,,,,,,,,,,,,,,,,,,,1525.529517500021,1526.5491075000027,1524.2845697000157,1524.2845697000157,1524.2845697000157,1524.2845697000157,,old_sceneIn_36.png,332,4.0,1.2428043999825604,,051,00,2025-02-18_15h36.50.995,Surprise recog test,2023.1.3,59.983936291273054,
332,0,332,0,,,,,,,,,,,,,,,,,,,,,,,,,,,,,,,,,,1529.4977362999925,1530.5186371000018,1526.5491075000027,1526.5491075000027,1526.5491075000027,1526.5491075000027,,new_sceneIn_20.png,333,3.0,2.9493399999919347,,051,00,2025-02-18_15h36.50.995,Surprise recog test,2023.1.3,59.983936291273054,
333,0,333,0,,,,,,,,,,,,,,,,,,,,,,,,,,,,,,,,,,1531.8327031999943,1532.8412838000222,1530.5186371000018,1530.5186371000018,1530.5186371000018,1530.5186371000018,,old_sceneOut_4.png,334,4.0,1.3146923999884166,,051,00,2025-02-18_15h36.50.995,Surprise recog test,2023.1.3,59.983936291273054,
334,0,334,0,,,,,,,,,,,,,,,,,,,,,,,,,,,,,,,,,,1536.2104031000054,1537.2416387000121,1532.8412838000222,1532.8412838000222,1532.8412838000222,1532.8412838000222,,new_stationery_7.png,335,4.0,3.365347499959171,,051,00,2025-02-18_15h36.50.995,Surprise recog test,2023.1.3,59.983936291273054,
335,0,335,0,,,,,,,,,,,,,,,,,,,,,,,,,,,,,,,,,,1539.6782835000195,1540.7112272999948,1537.2416387000121,1537.2416387000121,1537.2416387000121,1537.2416387000121,,old_sceneIn_41.png,336,4.0,2.438061699969694,,051,00,2025-02-18_15h36.50.995,Surprise recog test,2023.1.3,59.983936291273054,
336,0,336,0,,,,,,,,,,,,,,,,,,,,,,,,,,,,,,,,,,1541.4953477000236,,1540.7112272999948,1540.7112272999948,1540.7112272999948,1540.7112272999948,,new_sceneOut_13.png,337,4.0,0.7846874999813735,,051,00,2025-02-18_15h36.50.995,Surprise recog test,2023.1.3,59.983936291273054,
337,0,337,0,,,,,,,,,,,,,,,,,,,,,,,,,,,,,,,,,,1544.1373188999714,1545.161744699988,1542.5300879999995,1542.5300879999995,1542.5300879999995,1542.5300879999995,,old_fruit_19.png,338,3.0,1.6106107999803498,,051,00,2025-02-18_15h36.50.995,Surprise recog test,2023.1.3,59.983936291273054,
338,0,338,0,,,,,,,,,,,,,,,,,,,,,,,,,,,,,,,,,,1546.4450459000072,1547.465063599986,1545.161744699988,1545.161744699988,1545.161744699988,1545.161744699988,,old_fruit_33.png,339,3.0,1.2785831000073813,,051,00,2025-02-18_15h36.50.995,Surprise recog test,2023.1.3,59.983936291273054,
339,0,339,0,,,,,,,,,,,,,,,,,,,,,,,,,,,,,,,,,,1548.835550000018,1549.8634052000125,1547.465063599986,1547.465063599986,1547.465063599986,1547.465063599986,,new_fruit_28.png,340,4.0,1.371383199992124,,051,00,2025-02-18_15h36.50.995,Surprise recog test,2023.1.3,59.983936291273054,
340,0,340,0,,,,,,,,,,,,,,,,,,,,,,,,,,,,,,,,,,1551.2844261999708,1552.302088700002,1549.8634052000125,1549.8634052000125,1549.8634052000125,1549.8634052000125,,new_sceneOut_1.png,341,4.0,1.4228446999914013,,051,00,2025-02-18_15h36.50.995,Surprise recog test,2023.1.3,59.983936291273054,
341,0,341,0,,,,,,,,,,,,,,,,,,,,,,,,,,,,,,,,,,1554.288189599989,,1552.302088700002,1552.302088700002,1552.302088700002,1552.302088700002,,new_stationery_16.png,342,3.0,1.9873212999664247,,051,00,2025-02-18_15h36.50.995,Surprise recog test,2023.1.3,59.983936291273054,
342,0,342,0,,,,,,,,,,,,,,,,,,,,,,,,,,,,,,,,,,1556.670263500011,1557.691862399981,1555.321163000015,1555.321163000015,1555.321163000015,1555.321163000015,,old_fruit_18.png,343,3.0,1.3496286000008695,,051,00,2025-02-18_15h36.50.995,Surprise recog test,2023.1.3,59.983936291273054,
343,0,343,0,,,,,,,,,,,,,,,,,,,,,,,,,,,,,,,,,,1559.173964000016,1560.1957561000017,1557.691862399981,1557.691862399981,1557.691862399981,1557.691862399981,,new_fruit_45.png,344,4.0,1.4825022000004537,,051,00,2025-02-18_15h36.50.995,Surprise recog test,2023.1.3,59.983936291273054,
344,0,344,0,,,,,,,,,,,,,,,,,,,,,,,,,,,,,,,,,,1562.963297899987,,1560.1957561000017,1560.1957561000017,1560.1957561000017,1560.1957561000017,,old_sceneIn_18.png,345,3.0,2.771643900021445,,051,00,2025-02-18_15h36.50.995,Surprise recog test,2023.1.3,59.983936291273054,
345,0,345,0,,,,,,,,,,,,,,,,,,,,,,,,,,,,,,,,,,1566.544739199977,1567.564142099989,1563.9985059999744,1563.9985059999744,1563.9985059999744,1563.9985059999744,,new_sceneOut_26.png,346,4.0,2.549755699990783,,051,00,2025-02-18_15h36.50.995,Surprise recog test,2023.1.3,59.983936291273054,
346,0,346,0,,,,,,,,,,,,,,,,,,,,,,,,,,,,,,,,,,1568.8512762999744,,1567.564142099989,1567.564142099989,1567.564142099989,1567.564142099989,,old_sceneIn_50.png,347,4.0,1.2878114999621175,,051,00,2025-02-18_15h36.50.995,Surprise recog test,2023.1.3,59.983936291273054,
347,0,347,0,,,,,,,,,,,,,,,,,,,,,,,,,,,,,,,,,,1572.3776502999826,1573.4036124999984,1569.868923800008,1569.868923800008,1569.868923800008,1569.868923800008,,new_stationery_14.png,348,3.0,2.504486999998335,,051,00,2025-02-18_15h36.50.995,Surprise recog test,2023.1.3,59.983936291273054,
348,0,348,0,,,,,,,,,,,,,,,,,,,,,,,,,,,,,,,,,,1574.6108520000125,1575.6371259000152,1573.4036124999984,1573.4036124999984,1573.4036124999984,1573.4036124999984,,new_sceneIn_29.png,349,4.0,1.2088827000115998,,051,00,2025-02-18_15h36.50.995,Surprise recog test,2023.1.3,59.983936291273054,
349,0,349,0,,,,,,,,,,,,,,,,,,,,,,,,,,,,,,,,,,1577.2000601000036,1578.2169866000186,1575.6371259000152,1575.6371259000152,1575.6371259000152,1575.6371259000152,,new_stationery_3.png,350,4.0,1.5646124000195414,,051,00,2025-02-18_15h36.50.995,Surprise recog test,2023.1.3,59.983936291273054,
350,0,350,0,,,,,,,,,,,,,,,,,,,,,,,,,,,,,,,,,,1583.1372187000234,1584.1560773000238,1578.2169866000186,1578.2169866000186,1578.2169866000186,1578.2169866000186,,old_sceneIn_3.png,351,4.0,4.91945729998406,,051,00,2025-02-18_15h36.50.995,Surprise recog test,2023.1.3,59.983936291273054,
