trial_loop.thisRepN,trial_loop.thisTrialN,trial_loop.thisN,trial_loop.thisIndex,VAS_slider.started,VAS_text.started,VAS_notstressed_text.started,VAS_stressed_text.started,continue_input.started,continue_text.started,label0.started,label10.started,label20.started,label30.started,label40.started,label50.started,label60.started,label70.started,label80.started,label90.started,label100.started,VAS_slider.response,VAS_slider.rt,VAS_slider.history,Answer_VAS,continue_input.keys,instruction_text.started,continue_text_2.started,continue_input_2.started,continue_input_2.keys,continue_input_2.rt,continue_input_2.duration,example_text.started,example_slider_2.started,example_image.started,example_slider_2.response,example_slider_2.rt,fixcross.started,fixcross.stopped,front_square.started,stim_images.started,trial_inst_images.started,slider_images.started,thisImg,trial_count,slider_images.response,slider_images.rt,slider_images.stopped,outro.started,participant,condition,date,expName,psychopyVersion,frameRate,
,,,,209.68172580003738,209.68172580003738,209.68172580003738,209.68172580003738,209.68172580003738,209.68172580003738,209.68172580003738,209.68172580003738,209.68172580003738,209.68172580003738,209.68172580003738,209.68172580003738,209.68172580003738,209.68172580003738,209.68172580003738,209.68172580003738,209.68172580003738,4.016666666666667,12.516710299998522,"[(4.016666666666667, 12.516710299998522)]",4.016666666666667,None,,,,,,,,,,,,,,,,,,,,,,,,052,10,2025-02-06_16h39.08.545,Surprise recog test,2023.1.3,60.03694671081082,
,,,,,,,,,,,,,,,,,,,,,,,,,,222.27022740000393,222.27022740000393,222.27022740000393,space,16.325796899967827,None,,,,,,,,,,,,,,,,,,052,10,2025-02-06_16h39.08.545,Surprise recog test,2023.1.3,60.03694671081082,
0,0,0,0,,,,,,,,,,,,,,,,,,,,,,,,,,,,,238.7190397999948,238.7190397999948,238.7190397999948,2.0,6.914916299981996,250.37558490002993,251.39589030004572,246.6121112999972,246.6121112999972,246.6121112999972,246.6121112999972,old_stationery_33.png,1,3.0,3.7594155999831855,,,052,10,2025-02-06_16h39.08.545,Surprise recog test,2023.1.3,60.03694671081082,
1,0,1,0,,,,,,,,,,,,,,,,,,,,,,,,,,,,,,,,,,255.21826140000485,256.2404170000227,251.39589030004572,251.39589030004572,251.39589030004572,251.39589030004572,new_sceneOut_44.png,2,4.0,3.821447099908255,,,052,10,2025-02-06_16h39.08.545,Surprise recog test,2023.1.3,60.03694671081082,
2,0,2,0,,,,,,,,,,,,,,,,,,,,,,,,,,,,,,,,,,257.81831580004655,258.84105729998555,256.2404170000227,256.2404170000227,256.2404170000227,256.2404170000227,new_stationery_28.png,3,1.0,1.5797591999871656,,,052,10,2025-02-06_16h39.08.545,Surprise recog test,2023.1.3,60.03694671081082,
3,0,3,0,,,,,,,,,,,,,,,,,,,,,,,,,,,,,,,,,,263.2557901000837,264.28048040007707,258.84105729998555,258.84105729998555,258.84105729998555,258.84105729998555,old_stationery_49.png,4,3.0,4.418200799962506,,,052,10,2025-02-06_16h39.08.545,Surprise recog test,2023.1.3,60.03694671081082,
4,0,4,0,,,,,,,,,,,,,,,,,,,,,,,,,,,,,,,,,,267.85950740007684,268.8834572000196,264.28048040007707,264.28048040007707,264.28048040007707,264.28048040007707,old_fruit_4.png,5,2.0,3.580936299986206,,,052,10,2025-02-06_16h39.08.545,Surprise recog test,2023.1.3,60.03694671081082,
5,0,5,0,,,,,,,,,,,,,,,,,,,,,,,,,,,,,,,,,,271.4843410999747,272.4980401999783,268.8834572000196,268.8834572000196,268.8834572000196,268.8834572000196,new_stationery_9.png,6,4.0,2.6011206000111997,,,052,10,2025-02-06_16h39.08.545,Surprise recog test,2023.1.3,60.03694671081082,
6,0,6,0,,,,,,,,,,,,,,,,,,,,,,,,,,,,,,,,,,274.5110394000076,275.52711829997133,272.4980401999783,272.4980401999783,272.4980401999783,272.4980401999783,new_sceneOut_29.png,7,4.0,2.012322700000368,,,052,10,2025-02-06_16h39.08.545,Surprise recog test,2023.1.3,60.03694671081082,
7,0,7,0,,,,,,,,,,,,,,,,,,,,,,,,,,,,,,,,,,278.65043839998543,279.66407200007234,275.52711829997133,275.52711829997133,275.52711829997133,275.52711829997133,new_stationery_2.png,8,4.0,3.1193723001051694,,,052,10,2025-02-06_16h39.08.545,Surprise recog test,2023.1.3,60.03694671081082,
8,0,8,0,,,,,,,,,,,,,,,,,,,,,,,,,,,,,,,,,,281.608021400054,282.6317870999919,279.66407200007234,279.66407200007234,279.66407200007234,279.66407200007234,new_stationery_37.png,9,3.0,1.9397806999040768,,,052,10,2025-02-06_16h39.08.545,Surprise recog test,2023.1.3,60.03694671081082,
9,0,9,0,,,,,,,,,,,,,,,,,,,,,,,,,,,,,,,,,,284.2035065999953,285.23141350003425,282.6317870999919,282.6317870999919,282.6317870999919,282.6317870999919,old_stationery_2.png,10,2.0,1.5749410999706015,,,052,10,2025-02-06_16h39.08.545,Surprise recog test,2023.1.3,60.03694671081082,
10,0,10,0,,,,,,,,,,,,,,,,,,,,,,,,,,,,,,,,,,288.2660671999911,289.27928750007413,285.23141350003425,285.23141350003425,285.23141350003425,285.23141350003425,old_sceneOut_7.png,11,5.0,3.0320890001021326,,,052,10,2025-02-06_16h39.08.545,Surprise recog test,2023.1.3,60.03694671081082,
11,0,11,0,,,,,,,,,,,,,,,,,,,,,,,,,,,,,,,,,,292.9045072000008,,289.27928750007413,289.27928750007413,289.27928750007413,289.27928750007413,old_sceneIn_31.png,12,3.0,3.6242095000343397,,,052,10,2025-02-06_16h39.08.545,Surprise recog test,2023.1.3,60.03694671081082,
12,0,12,0,,,,,,,,,,,,,,,,,,,,,,,,,,,,,,,,,,297.68938960006926,298.71000259998254,293.9266819000477,293.9266819000477,293.9266819000477,293.9266819000477,old_sceneOut_10.png,13,4.0,3.7564473999664187,,,052,10,2025-02-06_16h39.08.545,Surprise recog test,2023.1.3,60.03694671081082,
13,0,13,0,,,,,,,,,,,,,,,,,,,,,,,,,,,,,,,,,,301.4997539999895,302.52665280003566,298.71000259998254,298.71000259998254,298.71000259998254,298.71000259998254,old_sceneIn_48.png,14,4.0,2.791243299958296,,,052,10,2025-02-06_16h39.08.545,Surprise recog test,2023.1.3,60.03694671081082,
14,0,14,0,,,,,,,,,,,,,,,,,,,,,,,,,,,,,,,,,,307.5138108000392,,302.52665280003566,302.52665280003566,302.52665280003566,302.52665280003566,new_sceneOut_38.png,15,None,None,307.4995734000113,,052,10,2025-02-06_16h39.08.545,Surprise recog test,2023.1.3,60.03694671081082,
15,0,15,0,,,,,,,,,,,,,,,,,,,,,,,,,,,,,,,,,,310.69834050000645,311.7179988999851,308.5220668000402,308.5220668000402,308.5220668000402,308.5220668000402,old_sceneIn_29.png,16,4.0,2.1705862999660894,,,052,10,2025-02-06_16h39.08.545,Surprise recog test,2023.1.3,60.03694671081082,
16,0,16,0,,,,,,,,,,,,,,,,,,,,,,,,,,,,,,,,,,314.60283220000565,315.61781630001497,311.7179988999851,311.7179988999851,311.7179988999851,311.7179988999851,new_sceneIn_8.png,17,3.0,2.8873068999964744,,,052,10,2025-02-06_16h39.08.545,Surprise recog test,2023.1.3,60.03694671081082,
17,0,17,0,,,,,,,,,,,,,,,,,,,,,,,,,,,,,,,,,,316.80949300003704,317.83315610000864,315.61781630001497,315.61781630001497,315.61781630001497,315.61781630001497,new_stationery_3.png,18,2.0,1.1902105000335723,,,052,10,2025-02-06_16h39.08.545,Surprise recog test,2023.1.3,60.03694671081082,
18,0,18,0,,,,,,,,,,,,,,,,,,,,,,,,,,,,,,,,,,319.1278046000516,,317.83315610000864,317.83315610000864,317.83315610000864,317.83315610000864,new_fruit_45.png,19,2.0,1.2919434999348596,,,052,10,2025-02-06_16h39.08.545,Surprise recog test,2023.1.3,60.03694671081082,
19,0,19,0,,,,,,,,,,,,,,,,,,,,,,,,,,,,,,,,,,321.73266570002306,322.76322470000014,320.16088209999725,320.16088209999725,320.16088209999725,320.16088209999725,old_sceneOut_24.png,20,3.0,1.5720369999762625,,,052,10,2025-02-06_16h39.08.545,Surprise recog test,2023.1.3,60.03694671081082,
20,0,20,0,,,,,,,,,,,,,,,,,,,,,,,,,,,,,,,,,,324.5258826999925,325.54164940002374,322.76322470000014,322.76322470000014,322.76322470000014,322.76322470000014,new_sceneIn_31.png,21,4.0,1.7621456000488251,,,052,10,2025-02-06_16h39.08.545,Surprise recog test,2023.1.3,60.03694671081082,
21,0,21,0,,,,,,,,,,,,,,,,,,,,,,,,,,,,,,,,,,327.3725753000472,328.40091860003304,325.54164940002374,325.54164940002374,325.54164940002374,325.54164940002374,new_sceneOut_34.png,22,3.0,1.829932300024666,,,052,10,2025-02-06_16h39.08.545,Surprise recog test,2023.1.3,60.03694671081082,
22,0,22,0,,,,,,,,,,,,,,,,,,,,,,,,,,,,,,,,,,330.3643098999746,331.388677900075,328.40091860003304,328.40091860003304,328.40091860003304,328.40091860003304,new_sceneIn_15.png,23,4.0,1.9643381000496447,,,052,10,2025-02-06_16h39.08.545,Surprise recog test,2023.1.3,60.03694671081082,
23,0,23,0,,,,,,,,,,,,,,,,,,,,,,,,,,,,,,,,,,332.554160800064,,331.388677900075,331.388677900075,331.388677900075,331.388677900075,new_stationery_23.png,24,1.0,1.164640499977395,,,052,10,2025-02-06_16h39.08.545,Surprise recog test,2023.1.3,60.03694671081082,
24,0,24,0,,,,,,,,,,,,,,,,,,,,,,,,,,,,,,,,,,335.9924716000678,337.01164669997524,333.58753480005544,333.58753480005544,333.58753480005544,333.58753480005544,new_stationery_41.png,25,4.0,2.40694719995372,,,052,10,2025-02-06_16h39.08.545,Surprise recog test,2023.1.3,60.03694671081082,
25,0,25,0,,,,,,,,,,,,,,,,,,,,,,,,,,,,,,,,,,338.6166440000525,339.6335509000346,337.01164669997524,337.01164669997524,337.01164669997524,337.01164669997524,old_sceneIn_43.png,26,4.0,1.5988007000414655,,,052,10,2025-02-06_16h39.08.545,Surprise recog test,2023.1.3,60.03694671081082,
26,0,26,0,,,,,,,,,,,,,,,,,,,,,,,,,,,,,,,,,,341.19106460001785,342.2100865000393,339.6335509000346,339.6335509000346,339.6335509000346,339.6335509000346,new_sceneOut_15.png,27,4.0,1.5567207999993116,,,052,10,2025-02-06_16h39.08.545,Surprise recog test,2023.1.3,60.03694671081082,
27,0,27,0,,,,,,,,,,,,,,,,,,,,,,,,,,,,,,,,,,343.9996999000432,345.0283754999982,342.2100865000393,342.2100865000393,342.2100865000393,342.2100865000393,new_stationery_40.png,28,4.0,1.791374099906534,,,052,10,2025-02-06_16h39.08.545,Surprise recog test,2023.1.3,60.03694671081082,
28,0,28,0,,,,,,,,,,,,,,,,,,,,,,,,,,,,,,,,,,346.3281852999935,347.3490179000655,345.0283754999982,345.0283754999982,345.0283754999982,345.0283754999982,new_sceneOut_28.png,29,4.0,1.300674100057222,,,052,10,2025-02-06_16h39.08.545,Surprise recog test,2023.1.3,60.03694671081082,
29,0,29,0,,,,,,,,,,,,,,,,,,,,,,,,,,,,,,,,,,348.5083114000736,349.5337402999867,347.3490179000655,347.3490179000655,347.3490179000655,347.3490179000655,new_sceneOut_13.png,30,4.0,1.1614531999221072,,,052,10,2025-02-06_16h39.08.545,Surprise recog test,2023.1.3,60.03694671081082,
30,0,30,0,,,,,,,,,,,,,,,,,,,,,,,,,,,,,,,,,,351.14137800002936,352.16745609999634,349.5337402999867,349.5337402999867,349.5337402999867,349.5337402999867,old_stationery_29.png,31,2.0,1.6087689000414684,,,052,10,2025-02-06_16h39.08.545,Surprise recog test,2023.1.3,60.03694671081082,
31,0,31,0,,,,,,,,,,,,,,,,,,,,,,,,,,,,,,,,,,353.869266099995,354.88908240001183,352.16745609999634,352.16745609999634,352.16745609999634,352.16745609999634,new_sceneIn_24.png,32,4.0,1.7010630000149831,,,052,10,2025-02-06_16h39.08.545,Surprise recog test,2023.1.3,60.03694671081082,
32,0,32,0,,,,,,,,,,,,,,,,,,,,,,,,,,,,,,,,,,356.71050430007745,357.7274317999836,354.88908240001183,354.88908240001183,354.88908240001183,354.88908240001183,new_sceneOut_36.png,33,5.0,1.8229978999588639,,,052,10,2025-02-06_16h39.08.545,Surprise recog test,2023.1.3,60.03694671081082,
33,0,33,0,,,,,,,,,,,,,,,,,,,,,,,,,,,,,,,,,,359.13848590001,360.1488791999873,357.7274317999836,357.7274317999836,357.7274317999836,357.7274317999836,old_stationery_27.png,34,2.0,1.4076972999610007,,,052,10,2025-02-06_16h39.08.545,Surprise recog test,2023.1.3,60.03694671081082,
34,0,34,0,,,,,,,,,,,,,,,,,,,,,,,,,,,,,,,,,,362.30111100000795,363.3300356999971,360.1488791999873,360.1488791999873,360.1488791999873,360.1488791999873,old_sceneIn_30.png,35,4.0,2.145923800067976,,,052,10,2025-02-06_16h39.08.545,Surprise recog test,2023.1.3,60.03694671081082,
35,0,35,0,,,,,,,,,,,,,,,,,,,,,,,,,,,,,,,,,,365.0993921000045,,363.3300356999971,363.3300356999971,363.3300356999971,363.3300356999971,old_sceneIn_35.png,36,3.0,1.7720227000536397,,,052,10,2025-02-06_16h39.08.545,Surprise recog test,2023.1.3,60.03694671081082,
36,0,36,0,,,,,,,,,,,,,,,,,,,,,,,,,,,,,,,,,,367.4506490000058,,366.13205350004137,366.13205350004137,366.13205350004137,366.13205350004137,new_sceneIn_20.png,37,4.0,1.318297200021334,,,052,10,2025-02-06_16h39.08.545,Surprise recog test,2023.1.3,60.03694671081082,
37,0,37,0,,,,,,,,,,,,,,,,,,,,,,,,,,,,,,,,,,370.0513090000022,,368.4834358000662,368.4834358000662,368.4834358000662,368.4834358000662,new_stationery_30.png,38,1.0,1.5692122000036761,,,052,10,2025-02-06_16h39.08.545,Surprise recog test,2023.1.3,60.03694671081082,
38,0,38,0,,,,,,,,,,,,,,,,,,,,,,,,,,,,,,,,,,372.93743290007114,,371.08072970004287,371.08072970004287,371.08072970004287,371.08072970004287,old_sceneOut_42.png,39,4.0,1.855659499997273,,,052,10,2025-02-06_16h39.08.545,Surprise recog test,2023.1.3,60.03694671081082,
39,0,39,0,,,,,,,,,,,,,,,,,,,,,,,,,,,,,,,,,,376.2554749000119,377.2629092000425,373.9654165999964,373.9654165999964,373.9654165999964,373.9654165999964,new_fruit_1.png,40,3.0,2.290668200002983,,,052,10,2025-02-06_16h39.08.545,Surprise recog test,2023.1.3,60.03694671081082,
40,0,40,0,,,,,,,,,,,,,,,,,,,,,,,,,,,,,,,,,,378.8139285000507,379.837967999978,377.2629092000425,377.2629092000425,377.2629092000425,377.2629092000425,old_sceneOut_43.png,41,2.0,1.5469041999895126,,,052,10,2025-02-06_16h39.08.545,Surprise recog test,2023.1.3,60.03694671081082,
41,0,41,0,,,,,,,,,,,,,,,,,,,,,,,,,,,,,,,,,,381.2997899000766,382.3311865000287,379.837967999978,379.837967999978,379.837967999978,379.837967999978,old_sceneOut_45.png,42,4.0,1.4627894000150263,,,052,10,2025-02-06_16h39.08.545,Surprise recog test,2023.1.3,60.03694671081082,
42,0,42,0,,,,,,,,,,,,,,,,,,,,,,,,,,,,,,,,,,383.807944900007,384.8175180000253,382.3311865000287,382.3311865000287,382.3311865000287,382.3311865000287,new_fruit_47.png,43,3.0,1.4785744999535382,,,052,10,2025-02-06_16h39.08.545,Surprise recog test,2023.1.3,60.03694671081082,
43,0,43,0,,,,,,,,,,,,,,,,,,,,,,,,,,,,,,,,,,387.02863469999284,388.0375330999959,384.8175180000253,384.8175180000253,384.8175180000253,384.8175180000253,old_sceneIn_1.png,44,2.0,2.20586920005735,,,052,10,2025-02-06_16h39.08.545,Surprise recog test,2023.1.3,60.03694671081082,
44,0,44,0,,,,,,,,,,,,,,,,,,,,,,,,,,,,,,,,,,389.6226592999883,390.6398540000664,388.0375330999959,388.0375330999959,388.0375330999959,388.0375330999959,old_fruit_34.png,45,1.0,1.5770346000790596,,,052,10,2025-02-06_16h39.08.545,Surprise recog test,2023.1.3,60.03694671081082,
45,0,45,0,,,,,,,,,,,,,,,,,,,,,,,,,,,,,,,,,,393.1695723000448,394.18035130004864,390.6398540000664,390.6398540000664,390.6398540000664,390.6398540000664,new_sceneIn_11.png,46,4.0,2.5235051999334246,,,052,10,2025-02-06_16h39.08.545,Surprise recog test,2023.1.3,60.03694671081082,
46,0,46,0,,,,,,,,,,,,,,,,,,,,,,,,,,,,,,,,,,397.5379469000036,398.5469371000072,394.18035130004864,394.18035130004864,394.18035130004864,394.18035130004864,old_fruit_14.png,47,3.0,3.3558704000897706,,,052,10,2025-02-06_16h39.08.545,Surprise recog test,2023.1.3,60.03694671081082,
47,0,47,0,,,,,,,,,,,,,,,,,,,,,,,,,,,,,,,,,,400.00828529999126,401.01562750001904,398.5469371000072,398.5469371000072,398.5469371000072,398.5469371000072,old_sceneIn_11.png,48,4.0,1.4571737999795005,,,052,10,2025-02-06_16h39.08.545,Surprise recog test,2023.1.3,60.03694671081082,
48,0,48,0,,,,,,,,,,,,,,,,,,,,,,,,,,,,,,,,,,402.3266391999787,403.3351440000115,401.01562750001904,401.01562750001904,401.01562750001904,401.01562750001904,old_fruit_2.png,49,1.0,1.3067354999948293,,,052,10,2025-02-06_16h39.08.545,Surprise recog test,2023.1.3,60.03694671081082,
49,0,49,0,,,,,,,,,,,,,,,,,,,,,,,,,,,,,,,,,,404.99586959998123,406.0038944000844,403.3351440000115,403.3351440000115,403.3351440000115,403.3351440000115,new_stationery_7.png,50,2.0,1.6567185999592766,,,052,10,2025-02-06_16h39.08.545,Surprise recog test,2023.1.3,60.03694671081082,
50,0,50,0,,,,,,,,,,,,,,,,,,,,,,,,,,,,,,,,,,407.6179480999708,,406.0038944000844,406.0038944000844,406.0038944000844,406.0038944000844,new_sceneIn_41.png,51,5.0,1.6089725999627262,,,052,10,2025-02-06_16h39.08.545,Surprise recog test,2023.1.3,60.03694671081082,
51,0,51,0,,,,,,,,,,,,,,,,,,,,,,,,,,,,,,,,,,411.1911126000341,412.2118225999875,408.648852000013,408.648852000013,408.648852000013,408.648852000013,new_stationery_17.png,52,3.0,2.5424311999231577,,,052,10,2025-02-06_16h39.08.545,Surprise recog test,2023.1.3,60.03694671081082,
52,0,52,0,,,,,,,,,,,,,,,,,,,,,,,,,,,,,,,,,,414.5042072000215,415.50831250008196,412.2118225999875,412.2118225999875,412.2118225999875,412.2118225999875,old_sceneIn_34.png,53,4.0,2.2888059000251815,,,052,10,2025-02-06_16h39.08.545,Surprise recog test,2023.1.3,60.03694671081082,
53,0,53,0,,,,,,,,,,,,,,,,,,,,,,,,,,,,,,,,,,416.7655370000284,417.7913496000692,415.50831250008196,415.50831250008196,415.50831250008196,415.50831250008196,new_stationery_12.png,54,2.0,1.2512379999971017,,,052,10,2025-02-06_16h39.08.545,Surprise recog test,2023.1.3,60.03694671081082,
54,0,54,0,,,,,,,,,,,,,,,,,,,,,,,,,,,,,,,,,,419.25244609999936,420.2647458000574,417.7913496000692,417.7913496000692,417.7913496000692,417.7913496000692,new_stationery_38.png,55,1.0,1.4626399000408128,,,052,10,2025-02-06_16h39.08.545,Surprise recog test,2023.1.3,60.03694671081082,
55,0,55,0,,,,,,,,,,,,,,,,,,,,,,,,,,,,,,,,,,421.6793337999843,,420.2647458000574,420.2647458000574,420.2647458000574,420.2647458000574,old_sceneOut_1.png,56,4.0,1.4077884999569505,,,052,10,2025-02-06_16h39.08.545,Surprise recog test,2023.1.3,60.03694671081082,
56,0,56,0,,,,,,,,,,,,,,,,,,,,,,,,,,,,,,,,,,423.9960930000525,425.0096727000782,422.7133508999832,422.7133508999832,422.7133508999832,422.7133508999832,old_stationery_21.png,57,3.0,1.2849531000247225,,,052,10,2025-02-06_16h39.08.545,Surprise recog test,2023.1.3,60.03694671081082,
57,0,57,0,,,,,,,,,,,,,,,,,,,,,,,,,,,,,,,,,,426.47960790002253,427.5009143999778,425.0096727000782,425.0096727000782,425.0096727000782,425.0096727000782,new_sceneIn_9.png,58,5.0,1.4709213000023738,,,052,10,2025-02-06_16h39.08.545,Surprise recog test,2023.1.3,60.03694671081082,
58,0,58,0,,,,,,,,,,,,,,,,,,,,,,,,,,,,,,,,,,429.07624309998937,430.08919660001993,427.5009143999778,427.5009143999778,427.5009143999778,427.5009143999778,old_sceneOut_44.png,59,4.0,1.5769452000968158,,,052,10,2025-02-06_16h39.08.545,Surprise recog test,2023.1.3,60.03694671081082,
59,0,59,0,,,,,,,,,,,,,,,,,,,,,,,,,,,,,,,,,,432.389077299973,,430.08919660001993,430.08919660001993,430.08919660001993,430.08919660001993,old_fruit_1.png,60,3.0,2.2955306000076234,,,052,10,2025-02-06_16h39.08.545,Surprise recog test,2023.1.3,60.03694671081082,
60,0,60,0,,,,,,,,,,,,,,,,,,,,,,,,,,,,,,,,,,434.475517300074,435.4966054999968,433.4198045000667,433.4198045000667,433.4198045000667,433.4198045000667,old_fruit_13.png,61,3.0,1.0553539999527857,,,052,10,2025-02-06_16h39.08.545,Surprise recog test,2023.1.3,60.03694671081082,
61,0,61,0,,,,,,,,,,,,,,,,,,,,,,,,,,,,,,,,,,436.5606627999805,437.5789977000095,435.4966054999968,435.4966054999968,435.4966054999968,435.4966054999968,new_fruit_41.png,62,3.0,1.0580878000473604,,,052,10,2025-02-06_16h39.08.545,Surprise recog test,2023.1.3,60.03694671081082,
62,0,62,0,,,,,,,,,,,,,,,,,,,,,,,,,,,,,,,,,,438.7653058000142,439.7900636000559,437.5789977000095,437.5789977000095,437.5789977000095,437.5789977000095,new_sceneIn_29.png,63,5.0,1.1815075000049546,,,052,10,2025-02-06_16h39.08.545,Surprise recog test,2023.1.3,60.03694671081082,
63,0,63,0,,,,,,,,,,,,,,,,,,,,,,,,,,,,,,,,,,441.83992739999667,442.8652546000667,439.7900636000559,439.7900636000559,439.7900636000559,439.7900636000559,old_sceneIn_19.png,64,4.0,2.04802580003161,,,052,10,2025-02-06_16h39.08.545,Surprise recog test,2023.1.3,60.03694671081082,
64,0,64,0,,,,,,,,,,,,,,,,,,,,,,,,,,,,,,,,,,445.3330201000208,,442.8652546000667,442.8652546000667,442.8652546000667,442.8652546000667,new_fruit_23.png,65,4.0,2.4685629999730736,,,052,10,2025-02-06_16h39.08.545,Surprise recog test,2023.1.3,60.03694671081082,
65,0,65,0,,,,,,,,,,,,,,,,,,,,,,,,,,,,,,,,,,447.5505133999977,,446.36453780008014,446.36453780008014,446.36453780008014,446.36453780008014,old_stationery_32.png,66,2.0,1.1876367999939248,,,052,10,2025-02-06_16h39.08.545,Surprise recog test,2023.1.3,60.03694671081082,
66,0,66,0,,,,,,,,,,,,,,,,,,,,,,,,,,,,,,,,,,449.6982253000606,450.7202051000204,448.58203240006696,448.58203240006696,448.58203240006696,448.58203240006696,new_sceneIn_34.png,67,4.0,1.118026899988763,,,052,10,2025-02-06_16h39.08.545,Surprise recog test,2023.1.3,60.03694671081082,
67,0,67,0,,,,,,,,,,,,,,,,,,,,,,,,,,,,,,,,,,451.9581458000466,452.98783770005684,450.7202051000204,450.7202051000204,450.7202051000204,450.7202051000204,new_fruit_22.png,68,3.0,1.2393050000537187,,,052,10,2025-02-06_16h39.08.545,Surprise recog test,2023.1.3,60.03694671081082,
68,0,68,0,,,,,,,,,,,,,,,,,,,,,,,,,,,,,,,,,,454.43533430004027,455.4613743000664,452.98783770005684,452.98783770005684,452.98783770005684,452.98783770005684,new_sceneIn_35.png,69,2.0,1.4485339000821114,,,052,10,2025-02-06_16h39.08.545,Surprise recog test,2023.1.3,60.03694671081082,
69,0,69,0,,,,,,,,,,,,,,,,,,,,,,,,,,,,,,,,,,457.25588329997845,458.26163640001323,455.4613743000664,455.4613743000664,455.4613743000664,455.4613743000664,new_sceneIn_39.png,70,5.0,1.7983186000492424,,,052,10,2025-02-06_16h39.08.545,Surprise recog test,2023.1.3,60.03694671081082,
70,0,70,0,,,,,,,,,,,,,,,,,,,,,,,,,,,,,,,,,,459.46209420007654,460.49222929996904,458.26163640001323,458.26163640001323,458.26163640001323,458.26163640001323,old_sceneIn_23.png,71,5.0,1.1958915999857709,,,052,10,2025-02-06_16h39.08.545,Surprise recog test,2023.1.3,60.03694671081082,
71,0,71,0,,,,,,,,,,,,,,,,,,,,,,,,,,,,,,,,,,461.6740987000521,462.6971181000117,460.49222929996904,460.49222929996904,460.49222929996904,460.49222929996904,old_stationery_42.png,72,1.0,1.1831095999805257,,,052,10,2025-02-06_16h39.08.545,Surprise recog test,2023.1.3,60.03694671081082,
72,0,72,0,,,,,,,,,,,,,,,,,,,,,,,,,,,,,,,,,,464.5295183999697,465.5483658000594,462.6971181000117,462.6971181000117,462.6971181000117,462.6971181000117,new_sceneIn_17.png,73,4.0,1.8328972000163049,,,052,10,2025-02-06_16h39.08.545,Surprise recog test,2023.1.3,60.03694671081082,
73,0,73,0,,,,,,,,,,,,,,,,,,,,,,,,,,,,,,,,,,466.7645872000139,467.7847302000737,465.5483658000594,465.5483658000594,465.5483658000594,465.5483658000594,old_sceneOut_34.png,74,4.0,1.218054800061509,,,052,10,2025-02-06_16h39.08.545,Surprise recog test,2023.1.3,60.03694671081082,
74,0,74,0,,,,,,,,,,,,,,,,,,,,,,,,,,,,,,,,,,469.6322868000716,470.65589569997974,467.7847302000737,467.7847302000737,467.7847302000737,467.7847302000737,old_fruit_7.png,75,3.0,1.849384699948132,,,052,10,2025-02-06_16h39.08.545,Surprise recog test,2023.1.3,60.03694671081082,
75,0,75,0,,,,,,,,,,,,,,,,,,,,,,,,,,,,,,,,,,473.5205143999774,474.5279813000234,470.65589569997974,470.65589569997974,470.65589569997974,470.65589569997974,old_stationery_17.png,76,2.0,2.8684122000122443,,,052,10,2025-02-06_16h39.08.545,Surprise recog test,2023.1.3,60.03694671081082,
76,0,76,0,,,,,,,,,,,,,,,,,,,,,,,,,,,,,,,,,,475.94603840005584,476.9784760000184,474.5279813000234,474.5279813000234,474.5279813000234,474.5279813000234,old_sceneOut_14.png,77,4.0,1.4112504000077024,,,052,10,2025-02-06_16h39.08.545,Surprise recog test,2023.1.3,60.03694671081082,
77,0,77,0,,,,,,,,,,,,,,,,,,,,,,,,,,,,,,,,,,478.2509638000047,479.26644709997345,476.9784760000184,476.9784760000184,476.9784760000184,476.9784760000184,new_fruit_29.png,78,3.0,1.276929400046356,,,052,10,2025-02-06_16h39.08.545,Surprise recog test,2023.1.3,60.03694671081082,
78,0,78,0,,,,,,,,,,,,,,,,,,,,,,,,,,,,,,,,,,480.847547100042,481.87513340008445,479.26644709997345,479.26644709997345,479.26644709997345,479.26644709997345,old_sceneIn_7.png,79,4.0,1.5748303000582382,,,052,10,2025-02-06_16h39.08.545,Surprise recog test,2023.1.3,60.03694671081082,
79,0,79,0,,,,,,,,,,,,,,,,,,,,,,,,,,,,,,,,,,483.1603748999769,484.1804041999858,481.87513340008445,481.87513340008445,481.87513340008445,481.87513340008445,old_sceneOut_30.png,80,4.0,1.2856727000325918,,,052,10,2025-02-06_16h39.08.545,Surprise recog test,2023.1.3,60.03694671081082,
80,0,80,0,,,,,,,,,,,,,,,,,,,,,,,,,,,,,,,,,,485.3954811000731,486.42052460007835,484.1804041999858,484.1804041999858,484.1804041999858,484.1804041999858,old_stationery_7.png,81,2.0,1.2134796000318602,,,052,10,2025-02-06_16h39.08.545,Surprise recog test,2023.1.3,60.03694671081082,
81,0,81,0,,,,,,,,,,,,,,,,,,,,,,,,,,,,,,,,,,488.00179180002306,,486.42052460007835,486.42052460007835,486.42052460007835,486.42052460007835,old_fruit_50.png,82,3.0,1.5842741000233218,,,052,10,2025-02-06_16h39.08.545,Surprise recog test,2023.1.3,60.03694671081082,
82,0,82,0,,,,,,,,,,,,,,,,,,,,,,,,,,,,,,,,,,490.6325409000274,491.6408946000738,489.0367114000255,489.0367114000255,489.0367114000255,489.0367114000255,new_stationery_32.png,83,1.0,1.5992624000646174,,,052,10,2025-02-06_16h39.08.545,Surprise recog test,2023.1.3,60.03694671081082,
83,0,83,0,,,,,,,,,,,,,,,,,,,,,,,,,,,,,,,,,,493.14227890002076,494.1713986999821,491.6408946000738,491.6408946000738,491.6408946000738,491.6408946000738,new_sceneIn_13.png,84,4.0,1.4971532999770716,,,052,10,2025-02-06_16h39.08.545,Surprise recog test,2023.1.3,60.03694671081082,
84,0,84,0,,,,,,,,,,,,,,,,,,,,,,,,,,,,,,,,,,495.3963995000813,496.4255429999903,494.1713986999821,494.1713986999821,494.1713986999821,494.1713986999821,old_sceneOut_12.png,85,4.0,1.2280645999126136,,,052,10,2025-02-06_16h39.08.545,Surprise recog test,2023.1.3,60.03694671081082,
85,0,85,0,,,,,,,,,,,,,,,,,,,,,,,,,,,,,,,,,,497.6943896000739,498.72657020005863,496.4255429999903,496.4255429999903,496.4255429999903,496.4255429999903,new_fruit_19.png,86,3.0,1.2679232000373304,,,052,10,2025-02-06_16h39.08.545,Surprise recog test,2023.1.3,60.03694671081082,
86,0,86,0,,,,,,,,,,,,,,,,,,,,,,,,,,,,,,,,,,499.85632630006876,500.87449920002837,498.72657020005863,498.72657020005863,498.72657020005863,498.72657020005863,new_sceneOut_4.png,87,4.0,1.1326046999311075,,,052,10,2025-02-06_16h39.08.545,Surprise recog test,2023.1.3,60.03694671081082,
87,0,87,0,,,,,,,,,,,,,,,,,,,,,,,,,,,,,,,,,,502.1104215000523,503.13024760002736,500.87449920002837,500.87449920002837,500.87449920002837,500.87449920002837,old_fruit_17.png,88,2.0,1.2371826999587938,,,052,10,2025-02-06_16h39.08.545,Surprise recog test,2023.1.3,60.03694671081082,
88,0,88,0,,,,,,,,,,,,,,,,,,,,,,,,,,,,,,,,,,505.2850186000578,506.3066606000066,503.13024760002736,503.13024760002736,503.13024760002736,503.13024760002736,new_sceneIn_44.png,89,4.0,2.15612180007156,,,052,10,2025-02-06_16h39.08.545,Surprise recog test,2023.1.3,60.03694671081082,
89,0,89,0,,,,,,,,,,,,,,,,,,,,,,,,,,,,,,,,,,508.37844530004077,509.4014097000472,506.3066606000066,506.3066606000066,506.3066606000066,506.3066606000066,old_sceneOut_19.png,90,4.0,2.072154799941927,,,052,10,2025-02-06_16h39.08.545,Surprise recog test,2023.1.3,60.03694671081082,
90,0,90,0,,,,,,,,,,,,,,,,,,,,,,,,,,,,,,,,,,512.1842487000395,513.2058642000193,509.4014097000472,509.4014097000472,509.4014097000472,509.4014097000472,old_fruit_39.png,91,3.0,2.781125899986364,,,052,10,2025-02-06_16h39.08.545,Surprise recog test,2023.1.3,60.03694671081082,
91,0,91,0,,,,,,,,,,,,,,,,,,,,,,,,,,,,,,,,,,514.2197076000739,515.239563900046,513.2058642000193,513.2058642000193,513.2058642000193,513.2058642000193,new_fruit_3.png,92,3.0,1.0158575000241399,,,052,10,2025-02-06_16h39.08.545,Surprise recog test,2023.1.3,60.03694671081082,
92,0,92,0,,,,,,,,,,,,,,,,,,,,,,,,,,,,,,,,,,517.3281010000501,518.3459041999886,515.239563900046,515.239563900046,515.239563900046,515.239563900046,old_sceneIn_47.png,93,4.0,2.0910058999434114,,,052,10,2025-02-06_16h39.08.545,Surprise recog test,2023.1.3,60.03694671081082,
93,0,93,0,,,,,,,,,,,,,,,,,,,,,,,,,,,,,,,,,,519.7970633000368,520.827844100073,518.3459041999886,518.3459041999886,518.3459041999886,518.3459041999886,old_stationery_46.png,94,1.0,1.446866000071168,,,052,10,2025-02-06_16h39.08.545,Surprise recog test,2023.1.3,60.03694671081082,
94,0,94,0,,,,,,,,,,,,,,,,,,,,,,,,,,,,,,,,,,522.1405911999755,523.1609705999726,520.827844100073,520.827844100073,520.827844100073,520.827844100073,old_sceneOut_23.png,95,4.0,1.3143806000007316,,,052,10,2025-02-06_16h39.08.545,Surprise recog test,2023.1.3,60.03694671081082,
95,0,95,0,,,,,,,,,,,,,,,,,,,,,,,,,,,,,,,,,,525.5116206000093,526.5282832999947,523.1609705999726,523.1609705999726,523.1609705999726,523.1609705999726,new_sceneIn_32.png,96,3.0,2.3519981999415904,,,052,10,2025-02-06_16h39.08.545,Surprise recog test,2023.1.3,60.03694671081082,
96,0,96,0,,,,,,,,,,,,,,,,,,,,,,,,,,,,,,,,,,529.0124856000766,530.022410399979,526.5282832999947,526.5282832999947,526.5282832999947,526.5282832999947,new_sceneIn_37.png,97,4.0,2.487023100024089,,,052,10,2025-02-06_16h39.08.545,Surprise recog test,2023.1.3,60.03694671081082,
97,0,97,0,,,,,,,,,,,,,,,,,,,,,,,,,,,,,,,,,,531.4002581000095,532.4174106999999,530.022410399979,530.022410399979,530.022410399979,530.022410399979,new_stationery_42.png,98,4.0,1.3736535999923944,,,052,10,2025-02-06_16h39.08.545,Surprise recog test,2023.1.3,60.03694671081082,
98,0,98,0,,,,,,,,,,,,,,,,,,,,,,,,,,,,,,,,,,534.4359939000569,535.4506755999755,532.4174106999999,532.4174106999999,532.4174106999999,532.4174106999999,old_sceneIn_4.png,99,4.0,2.016496399999596,,,052,10,2025-02-06_16h39.08.545,Surprise recog test,2023.1.3,60.03694671081082,
99,0,99,0,,,,,,,,,,,,,,,,,,,,,,,,,,,,,,,,,,536.9997088999953,538.0248534000712,535.4506755999755,535.4506755999755,535.4506755999755,535.4506755999755,new_sceneOut_46.png,100,4.0,1.5498621999286115,,,052,10,2025-02-06_16h39.08.545,Surprise recog test,2023.1.3,60.03694671081082,
100,0,100,0,,,,,,,,,,,,,,,,,,,,,,,,,,,,,,,,,,539.3901732000522,540.3997459000675,538.0248534000712,538.0248534000712,538.0248534000712,538.0248534000712,old_stationery_28.png,101,2.0,1.3600069999229163,,,052,10,2025-02-06_16h39.08.545,Surprise recog test,2023.1.3,60.03694671081082,
101,0,101,0,,,,,,,,,,,,,,,,,,,,,,,,,,,,,,,,,,542.3325345000485,543.3617448000005,540.3997459000675,540.3997459000675,540.3997459000675,540.3997459000675,old_stationery_1.png,102,4.0,1.931035399902612,,,052,10,2025-02-06_16h39.08.545,Surprise recog test,2023.1.3,60.03694671081082,
102,0,102,0,,,,,,,,,,,,,,,,,,,,,,,,,,,,,,,,,,544.2159355999902,,543.3617448000005,543.3617448000005,543.3617448000005,543.3617448000005,new_sceneOut_42.png,103,4.0,0.8534128000028431,,,052,10,2025-02-06_16h39.08.545,Surprise recog test,2023.1.3,60.03694671081082,
103,0,103,0,,,,,,,,,,,,,,,,,,,,,,,,,,,,,,,,,,546.3234134999802,547.3375382000813,545.2452428999823,545.2452428999823,545.2452428999823,545.2452428999823,old_fruit_3.png,104,3.0,1.0779559999937192,,,052,10,2025-02-06_16h39.08.545,Surprise recog test,2023.1.3,60.03694671081082,
104,0,104,0,,,,,,,,,,,,,,,,,,,,,,,,,,,,,,,,,,548.2908690000186,549.3062826000387,547.3375382000813,547.3375382000813,547.3375382000813,547.3375382000813,old_sceneOut_5.png,105,4.0,0.9472851000027731,,,052,10,2025-02-06_16h39.08.545,Surprise recog test,2023.1.3,60.03694671081082,
105,0,105,0,,,,,,,,,,,,,,,,,,,,,,,,,,,,,,,,,,551.6731226000702,552.6917550000362,549.3062826000387,549.3062826000387,549.3062826000387,549.3062826000387,new_stationery_34.png,106,5.0,2.362636600038968,,,052,10,2025-02-06_16h39.08.545,Surprise recog test,2023.1.3,60.03694671081082,
106,0,106,0,,,,,,,,,,,,,,,,,,,,,,,,,,,,,,,,,,553.9226141000399,,552.6917550000362,552.6917550000362,552.6917550000362,552.6917550000362,new_sceneOut_25.png,107,4.0,1.224360299995169,,,052,10,2025-02-06_16h39.08.545,Surprise recog test,2023.1.3,60.03694671081082,
107,0,107,0,,,,,,,,,,,,,,,,,,,,,,,,,,,,,,,,,,556.1138181000715,557.1399215999991,554.9524437000509,554.9524437000509,554.9524437000509,554.9524437000509,new_sceneIn_30.png,108,4.0,1.1640900999773294,,,052,10,2025-02-06_16h39.08.545,Surprise recog test,2023.1.3,60.03694671081082,
108,0,108,0,,,,,,,,,,,,,,,,,,,,,,,,,,,,,,,,,,559.2901717000641,560.311408800073,557.1399215999991,557.1399215999991,557.1399215999991,557.1399215999991,new_fruit_18.png,109,3.0,2.15040849999059,,,052,10,2025-02-06_16h39.08.545,Surprise recog test,2023.1.3,60.03694671081082,
109,0,109,0,,,,,,,,,,,,,,,,,,,,,,,,,,,,,,,,,,561.3243038000073,562.3410037000431,560.311408800073,560.311408800073,560.311408800073,560.311408800073,old_sceneIn_2.png,110,4.0,1.012802799930796,,,052,10,2025-02-06_16h39.08.545,Surprise recog test,2023.1.3,60.03694671081082,
110,0,110,0,,,,,,,,,,,,,,,,,,,,,,,,,,,,,,,,,,563.2403715000255,564.2516080000205,562.3410037000431,562.3410037000431,562.3410037000431,562.3410037000431,new_sceneOut_27.png,111,4.0,0.8997090000193566,,,052,10,2025-02-06_16h39.08.545,Surprise recog test,2023.1.3,60.03694671081082,
111,0,111,0,,,,,,,,,,,,,,,,,,,,,,,,,,,,,,,,,,566.637525600032,567.6530052999733,564.2516080000205,564.2516080000205,564.2516080000205,564.2516080000205,old_fruit_23.png,112,3.0,2.3814746999414638,,,052,10,2025-02-06_16h39.08.545,Surprise recog test,2023.1.3,60.03694671081082,
112,0,112,0,,,,,,,,,,,,,,,,,,,,,,,,,,,,,,,,,,568.8000739000272,,567.6530052999733,567.6530052999733,567.6530052999733,567.6530052999733,old_sceneOut_27.png,113,4.0,1.142888700007461,,,052,10,2025-02-06_16h39.08.545,Surprise recog test,2023.1.3,60.03694671081082,
113,0,113,0,,,,,,,,,,,,,,,,,,,,,,,,,,,,,,,,,,571.7289731000783,572.7488651999738,569.8241567000514,569.8241567000514,569.8241567000514,569.8241567000514,old_stationery_19.png,114,2.0,1.901861699996516,,,052,10,2025-02-06_16h39.08.545,Surprise recog test,2023.1.3,60.03694671081082,
114,0,114,0,,,,,,,,,,,,,,,,,,,,,,,,,,,,,,,,,,573.7280777000124,574.7512198999757,572.7488651999738,572.7488651999738,572.7488651999738,572.7488651999738,new_sceneOut_35.png,115,4.0,0.9811912999721244,,,052,10,2025-02-06_16h39.08.545,Surprise recog test,2023.1.3,60.03694671081082,
115,0,115,0,,,,,,,,,,,,,,,,,,,,,,,,,,,,,,,,,,576.3542697000084,577.3683456999715,574.7512198999757,574.7512198999757,574.7512198999757,574.7512198999757,new_stationery_19.png,116,4.0,1.598081799922511,,,052,10,2025-02-06_16h39.08.545,Surprise recog test,2023.1.3,60.03694671081082,
116,0,116,0,,,,,,,,,,,,,,,,,,,,,,,,,,,,,,,,,,578.9003804000095,579.9243299000664,577.3683456999715,577.3683456999715,577.3683456999715,577.3683456999715,new_stationery_10.png,117,4.0,1.531180200050585,,,052,10,2025-02-06_16h39.08.545,Surprise recog test,2023.1.3,60.03694671081082,
117,0,117,0,,,,,,,,,,,,,,,,,,,,,,,,,,,,,,,,,,582.0899910000153,583.1098339000018,579.9243299000664,579.9243299000664,579.9243299000664,579.9243299000664,old_fruit_28.png,118,3.0,2.1666842000558972,,,052,10,2025-02-06_16h39.08.545,Surprise recog test,2023.1.3,60.03694671081082,
118,0,118,0,,,,,,,,,,,,,,,,,,,,,,,,,,,,,,,,,,584.0963991000317,,583.1098339000018,583.1098339000018,583.1098339000018,583.1098339000018,new_sceneOut_31.png,119,4.0,0.9885162999853492,,,052,10,2025-02-06_16h39.08.545,Surprise recog test,2023.1.3,60.03694671081082,
119,0,119,0,,,,,,,,,,,,,,,,,,,,,,,,,,,,,,,,,,586.9297177999979,587.9374722000211,585.1174914999865,585.1174914999865,585.1174914999865,585.1174914999865,old_fruit_49.png,120,2.0,1.8047395999310538,,,052,10,2025-02-06_16h39.08.545,Surprise recog test,2023.1.3,60.03694671081082,
120,0,120,0,,,,,,,,,,,,,,,,,,,,,,,,,,,,,,,,,,589.1352950000437,,587.9374722000211,587.9374722000211,587.9374722000211,587.9374722000211,new_stationery_44.png,121,3.0,1.1929020000388846,,,052,10,2025-02-06_16h39.08.545,Surprise recog test,2023.1.3,60.03694671081082,
121,0,121,0,,,,,,,,,,,,,,,,,,,,,,,,,,,,,,,,,,591.9833078000229,593.0028630000306,590.1666396000655,590.1666396000655,590.1666396000655,590.1666396000655,old_stationery_3.png,122,4.0,1.8182217000285164,,,052,10,2025-02-06_16h39.08.545,Surprise recog test,2023.1.3,60.03694671081082,
122,0,122,0,,,,,,,,,,,,,,,,,,,,,,,,,,,,,,,,,,593.9490167000331,594.9665995000396,593.0028630000306,593.0028630000306,593.0028630000306,593.0028630000306,new_sceneIn_16.png,123,4.0,0.94638420001138,,,052,10,2025-02-06_16h39.08.545,Surprise recog test,2023.1.3,60.03694671081082,
123,0,123,0,,,,,,,,,,,,,,,,,,,,,,,,,,,,,,,,,,596.4459704000037,597.4740482000634,594.9665995000396,594.9665995000396,594.9665995000396,594.9665995000396,new_sceneIn_50.png,124,4.0,1.4801896000280976,,,052,10,2025-02-06_16h39.08.545,Surprise recog test,2023.1.3,60.03694671081082,
124,0,124,0,,,,,,,,,,,,,,,,,,,,,,,,,,,,,,,,,,599.4902790000197,600.5082292000297,597.4740482000634,597.4740482000634,597.4740482000634,597.4740482000634,new_fruit_32.png,125,2.0,2.0150352000491694,,,052,10,2025-02-06_16h39.08.545,Surprise recog test,2023.1.3,60.03694671081082,
125,0,125,0,,,,,,,,,,,,,,,,,,,,,,,,,,,,,,,,,,602.1074381000362,603.1325708000222,600.5082292000297,600.5082292000297,600.5082292000297,600.5082292000297,old_stationery_26.png,126,1.0,1.6006463000085205,,,052,10,2025-02-06_16h39.08.545,Surprise recog test,2023.1.3,60.03694671081082,
126,0,126,0,,,,,,,,,,,,,,,,,,,,,,,,,,,,,,,,,,604.2607515000273,605.268714100006,603.1325708000222,603.1325708000222,603.1325708000222,603.1325708000222,old_fruit_8.png,127,1.0,1.1304418001091108,,,052,10,2025-02-06_16h39.08.545,Surprise recog test,2023.1.3,60.03694671081082,
127,0,127,0,,,,,,,,,,,,,,,,,,,,,,,,,,,,,,,,,,606.3525279000169,607.3846489000134,605.268714100006,605.268714100006,605.268714100006,605.268714100006,new_sceneOut_39.png,128,4.0,1.079708500066772,,,052,10,2025-02-06_16h39.08.545,Surprise recog test,2023.1.3,60.03694671081082,
128,0,128,0,,,,,,,,,,,,,,,,,,,,,,,,,,,,,,,,,,609.3005668000551,,607.3846489000134,607.3846489000134,607.3846489000134,607.3846489000134,new_fruit_7.png,129,3.0,1.9178158000577241,,,052,10,2025-02-06_16h39.08.545,Surprise recog test,2023.1.3,60.03694671081082,
129,0,129,0,,,,,,,,,,,,,,,,,,,,,,,,,,,,,,,,,,611.8238666000543,612.8488603000296,610.3365343000041,610.3365343000041,610.3365343000041,610.3365343000041,new_fruit_17.png,130,1.0,1.4903148000594229,,,052,10,2025-02-06_16h39.08.545,Surprise recog test,2023.1.3,60.03694671081082,
130,0,130,0,,,,,,,,,,,,,,,,,,,,,,,,,,,,,,,,,,613.8516612000531,614.870949300006,612.8488603000296,612.8488603000296,612.8488603000296,612.8488603000296,new_sceneOut_47.png,131,4.0,1.0042914999648929,,,052,10,2025-02-06_16h39.08.545,Surprise recog test,2023.1.3,60.03694671081082,
131,0,131,0,,,,,,,,,,,,,,,,,,,,,,,,,,,,,,,,,,615.7644609999843,616.7858505999902,614.870949300006,614.870949300006,614.870949300006,614.870949300006,old_sceneIn_16.png,132,4.0,0.8942404999397695,,,052,10,2025-02-06_16h39.08.545,Surprise recog test,2023.1.3,60.03694671081082,
132,0,132,0,,,,,,,,,,,,,,,,,,,,,,,,,,,,,,,,,,617.5148047000403,618.5297713000327,616.7858505999902,616.7858505999902,616.7858505999902,616.7858505999902,old_sceneOut_41.png,133,4.0,0.7311628999887034,,,052,10,2025-02-06_16h39.08.545,Surprise recog test,2023.1.3,60.03694671081082,
133,0,133,0,,,,,,,,,,,,,,,,,,,,,,,,,,,,,,,,,,619.5785673999926,620.5980369000463,618.5297713000327,618.5297713000327,618.5297713000327,618.5297713000327,old_sceneIn_40.png,134,4.0,1.0408174999756739,,,052,10,2025-02-06_16h39.08.545,Surprise recog test,2023.1.3,60.03694671081082,
134,0,134,0,,,,,,,,,,,,,,,,,,,,,,,,,,,,,,,,,,622.842913200031,623.8607845000224,620.5980369000463,620.5980369000463,620.5980369000463,620.5980369000463,new_stationery_8.png,135,5.0,2.2368588999379426,,,052,10,2025-02-06_16h39.08.545,Surprise recog test,2023.1.3,60.03694671081082,
135,0,135,0,,,,,,,,,,,,,,,,,,,,,,,,,,,,,,,,,,625.7125077000819,626.7273378000828,623.8607845000224,623.8607845000224,623.8607845000224,623.8607845000224,new_sceneIn_42.png,136,5.0,1.852300800033845,,,052,10,2025-02-06_16h39.08.545,Surprise recog test,2023.1.3,60.03694671081082,
136,0,136,0,,,,,,,,,,,,,,,,,,,,,,,,,,,,,,,,,,627.7388977999799,628.7591392999748,626.7273378000828,626.7273378000828,626.7273378000828,626.7273378000828,old_sceneIn_32.png,137,4.0,1.0109816000331193,,,052,10,2025-02-06_16h39.08.545,Surprise recog test,2023.1.3,60.03694671081082,
137,0,137,0,,,,,,,,,,,,,,,,,,,,,,,,,,,,,,,,,,629.7124164999695,630.7345200000564,628.7591392999748,628.7591392999748,628.7591392999748,628.7591392999748,new_sceneIn_6.png,138,4.0,0.9524152000667527,,,052,10,2025-02-06_16h39.08.545,Surprise recog test,2023.1.3,60.03694671081082,
138,0,138,0,,,,,,,,,,,,,,,,,,,,,,,,,,,,,,,,,,632.0905741000315,633.1206103999866,630.7345200000564,630.7345200000564,630.7345200000564,630.7345200000564,new_fruit_14.png,139,3.0,1.3561824000207707,,,052,10,2025-02-06_16h39.08.545,Surprise recog test,2023.1.3,60.03694671081082,
139,0,139,0,,,,,,,,,,,,,,,,,,,,,,,,,,,,,,,,,,635.5608845000388,636.593633600045,633.1206103999866,633.1206103999866,633.1206103999866,633.1206103999866,old_stationery_10.png,140,5.0,2.44236860005185,,,052,10,2025-02-06_16h39.08.545,Surprise recog test,2023.1.3,60.03694671081082,
140,0,140,0,,,,,,,,,,,,,,,,,,,,,,,,,,,,,,,,,,637.4286802000133,638.4462572999764,636.593633600045,636.593633600045,636.593633600045,636.593633600045,new_sceneOut_3.png,141,4.0,0.8387685000197962,,,052,10,2025-02-06_16h39.08.545,Surprise recog test,2023.1.3,60.03694671081082,
141,0,141,0,,,,,,,,,,,,,,,,,,,,,,,,,,,,,,,,,,640.0237870999845,641.0313755000243,638.4462572999764,638.4462572999764,638.4462572999764,638.4462572999764,old_stationery_50.png,142,1.0,1.573385399999097,,,052,10,2025-02-06_16h39.08.545,Surprise recog test,2023.1.3,60.03694671081082,
142,0,142,0,,,,,,,,,,,,,,,,,,,,,,,,,,,,,,,,,,643.0938488000538,644.1148730000714,641.0313755000243,641.0313755000243,641.0313755000243,641.0313755000243,new_sceneIn_25.png,143,4.0,2.0573278999654576,,,052,10,2025-02-06_16h39.08.545,Surprise recog test,2023.1.3,60.03694671081082,
143,0,143,0,,,,,,,,,,,,,,,,,,,,,,,,,,,,,,,,,,646.8116606000112,647.817109500058,644.1148730000714,644.1148730000714,644.1148730000714,644.1148730000714,new_sceneOut_23.png,144,2.0,2.6959815999725834,,,052,10,2025-02-06_16h39.08.545,Surprise recog test,2023.1.3,60.03694671081082,
144,0,144,0,,,,,,,,,,,,,,,,,,,,,,,,,,,,,,,,,,649.0531039000489,650.0819591999752,647.817109500058,647.817109500058,647.817109500058,647.817109500058,old_fruit_48.png,145,2.0,1.2298193000024185,,,052,10,2025-02-06_16h39.08.545,Surprise recog test,2023.1.3,60.03694671081082,
145,0,145,0,,,,,,,,,,,,,,,,,,,,,,,,,,,,,,,,,,651.4214634000091,652.4467308999738,650.0819591999752,650.0819591999752,650.0819591999752,650.0819591999752,old_sceneOut_4.png,146,4.0,1.3426437999587506,,,052,10,2025-02-06_16h39.08.545,Surprise recog test,2023.1.3,60.03694671081082,
146,0,146,0,,,,,,,,,,,,,,,,,,,,,,,,,,,,,,,,,,655.0353854000568,656.0564784000162,652.4467308999738,652.4467308999738,652.4467308999738,652.4467308999738,old_sceneOut_35.png,147,4.0,2.586994700017385,,,052,10,2025-02-06_16h39.08.545,Surprise recog test,2023.1.3,60.03694671081082,
147,0,147,0,,,,,,,,,,,,,,,,,,,,,,,,,,,,,,,,,,658.8701517999871,659.8877221000148,656.0564784000162,656.0564784000162,656.0564784000162,656.0564784000162,old_sceneOut_46.png,148,4.0,2.8152623999631032,,,052,10,2025-02-06_16h39.08.545,Surprise recog test,2023.1.3,60.03694671081082,
148,0,148,0,,,,,,,,,,,,,,,,,,,,,,,,,,,,,,,,,,661.539102400071,662.5651311000111,659.8877221000148,659.8877221000148,659.8877221000148,659.8877221000148,new_stationery_48.png,149,5.0,1.6518695999402553,,,052,10,2025-02-06_16h39.08.545,Surprise recog test,2023.1.3,60.03694671081082,
149,0,149,0,,,,,,,,,,,,,,,,,,,,,,,,,,,,,,,,,,663.6656351999845,664.6974028999684,662.5651311000111,662.5651311000111,662.5651311000111,662.5651311000111,new_fruit_6.png,150,3.0,1.102076999959536,,,052,10,2025-02-06_16h39.08.545,Surprise recog test,2023.1.3,60.03694671081082,
150,0,150,0,,,,,,,,,,,,,,,,,,,,,,,,,,,,,,,,,,665.7585516000399,666.7783833000576,664.6974028999684,664.6974028999684,664.6974028999684,664.6974028999684,new_fruit_11.png,151,2.0,1.0624695000005886,,,052,10,2025-02-06_16h39.08.545,Surprise recog test,2023.1.3,60.03694671081082,
151,0,151,0,,,,,,,,,,,,,,,,,,,,,,,,,,,,,,,,,,668.3570448000683,669.3719501000596,666.7783833000576,666.7783833000576,666.7783833000576,666.7783833000576,old_stationery_22.png,152,2.0,1.5817673000274226,,,052,10,2025-02-06_16h39.08.545,Surprise recog test,2023.1.3,60.03694671081082,
152,0,152,0,,,,,,,,,,,,,,,,,,,,,,,,,,,,,,,,,,670.7237728000619,671.7417159000179,669.3719501000596,669.3719501000596,669.3719501000596,669.3719501000596,new_fruit_31.png,153,3.0,1.3472639999818057,,,052,10,2025-02-06_16h39.08.545,Surprise recog test,2023.1.3,60.03694671081082,
153,0,153,0,,,,,,,,,,,,,,,,,,,,,,,,,,,,,,,,,,672.7677228000248,673.783701700042,671.7417159000179,671.7417159000179,671.7417159000179,671.7417159000179,old_stationery_37.png,154,4.0,1.016331100021489,,,052,10,2025-02-06_16h39.08.545,Surprise recog test,2023.1.3,60.03694671081082,
154,0,154,0,,,,,,,,,,,,,,,,,,,,,,,,,,,,,,,,,,677.2715106999967,678.2796432999894,673.783701700042,673.783701700042,673.783701700042,673.783701700042,new_stationery_29.png,155,5.0,3.4829943000804633,,,052,10,2025-02-06_16h39.08.545,Surprise recog test,2023.1.3,60.03694671081082,
155,0,155,0,,,,,,,,,,,,,,,,,,,,,,,,,,,,,,,,,,679.7308066000696,680.7610325000715,678.2796432999894,678.2796432999894,678.2796432999894,678.2796432999894,new_fruit_4.png,156,4.0,1.4465569999301806,,,052,10,2025-02-06_16h39.08.545,Surprise recog test,2023.1.3,60.03694671081082,
156,0,156,0,,,,,,,,,,,,,,,,,,,,,,,,,,,,,,,,,,681.8370087000076,682.8615308000008,680.7610325000715,680.7610325000715,680.7610325000715,680.7610325000715,new_sceneIn_1.png,157,4.0,1.077610500040464,,,052,10,2025-02-06_16h39.08.545,Surprise recog test,2023.1.3,60.03694671081082,
157,0,157,0,,,,,,,,,,,,,,,,,,,,,,,,,,,,,,,,,,684.3128200999927,,682.8615308000008,682.8615308000008,682.8615308000008,682.8615308000008,old_sceneIn_44.png,158,4.0,1.4531854999950156,,,052,10,2025-02-06_16h39.08.545,Surprise recog test,2023.1.3,60.03694671081082,
158,0,158,0,,,,,,,,,,,,,,,,,,,,,,,,,,,,,,,,,,686.8319046000252,,685.3482482000254,685.3482482000254,685.3482482000254,685.3482482000254,new_fruit_20.png,159,3.0,1.4848447000840679,,,052,10,2025-02-06_16h39.08.545,Surprise recog test,2023.1.3,60.03694671081082,
159,0,159,0,,,,,,,,,,,,,,,,,,,,,,,,,,,,,,,,,,688.9811131000752,689.9897754000267,687.8537085000426,687.8537085000426,687.8537085000426,687.8537085000426,new_sceneOut_2.png,160,4.0,1.122952500008978,,,052,10,2025-02-06_16h39.08.545,Surprise recog test,2023.1.3,60.03694671081082,
160,0,160,0,,,,,,,,,,,,,,,,,,,,,,,,,,,,,,,,,,691.3615387000609,692.3808631000575,689.9897754000267,689.9897754000267,689.9897754000267,689.9897754000267,old_sceneOut_49.png,161,4.0,1.3626916999928653,,,052,10,2025-02-06_16h39.08.545,Surprise recog test,2023.1.3,60.03694671081082,
161,0,161,0,,,,,,,,,,,,,,,,,,,,,,,,,,,,,,,,,,693.8764809999848,694.8897583000362,692.3808631000575,692.3808631000575,692.3808631000575,692.3808631000575,new_sceneOut_8.png,162,4.0,1.49638170003891,,,052,10,2025-02-06_16h39.08.545,Surprise recog test,2023.1.3,60.03694671081082,
162,0,162,0,,,,,,,,,,,,,,,,,,,,,,,,,,,,,,,,,,696.4996869000606,697.520148999989,694.8897583000362,694.8897583000362,694.8897583000362,694.8897583000362,new_sceneOut_5.png,163,4.0,1.604772899998352,,,052,10,2025-02-06_16h39.08.545,Surprise recog test,2023.1.3,60.03694671081082,
163,0,163,0,,,,,,,,,,,,,,,,,,,,,,,,,,,,,,,,,,698.9312668000348,699.947843400063,697.520148999989,697.520148999989,697.520148999989,697.520148999989,new_stationery_47.png,164,2.0,1.4112928999820724,,,052,10,2025-02-06_16h39.08.545,Surprise recog test,2023.1.3,60.03694671081082,
164,0,164,0,,,,,,,,,,,,,,,,,,,,,,,,,,,,,,,,,,701.4977228000062,702.5301149999723,699.947843400063,699.947843400063,699.947843400063,699.947843400063,old_stationery_36.png,165,1.0,1.5451583000831306,,,052,10,2025-02-06_16h39.08.545,Surprise recog test,2023.1.3,60.03694671081082,
165,0,165,0,,,,,,,,,,,,,,,,,,,,,,,,,,,,,,,,,,704.9635733000468,,702.5301149999723,702.5301149999723,702.5301149999723,702.5301149999723,new_stationery_20.png,166,3.0,2.4352109000319615,,,052,10,2025-02-06_16h39.08.545,Surprise recog test,2023.1.3,60.03694671081082,
166,0,166,0,,,,,,,,,,,,,,,,,,,,,,,,,,,,,,,,,,707.5912372000748,708.6178228000645,705.9919027000433,705.9919027000433,705.9919027000433,705.9919027000433,old_stationery_39.png,167,2.0,1.6000711999367923,,,052,10,2025-02-06_16h39.08.545,Surprise recog test,2023.1.3,60.03694671081082,
167,0,167,0,,,,,,,,,,,,,,,,,,,,,,,,,,,,,,,,,,710.2324886000715,711.2394557000371,708.6178228000645,708.6178228000645,708.6178228000645,708.6178228000645,old_sceneOut_39.png,168,4.0,1.61791750008706,,,052,10,2025-02-06_16h39.08.545,Surprise recog test,2023.1.3,60.03694671081082,
168,0,168,0,,,,,,,,,,,,,,,,,,,,,,,,,,,,,,,,,,712.534529000055,713.5402340000728,711.2394557000371,711.2394557000371,711.2394557000371,711.2394557000371,new_fruit_42.png,169,3.0,1.2904625000664964,,,052,10,2025-02-06_16h39.08.545,Surprise recog test,2023.1.3,60.03694671081082,
169,0,169,0,,,,,,,,,,,,,,,,,,,,,,,,,,,,,,,,,,715.7807206000434,716.8075987000484,713.5402340000728,713.5402340000728,713.5402340000728,713.5402340000728,new_fruit_37.png,170,2.0,2.2355189999798313,,,052,10,2025-02-06_16h39.08.545,Surprise recog test,2023.1.3,60.03694671081082,
170,0,170,0,,,,,,,,,,,,,,,,,,,,,,,,,,,,,,,,,,717.85597220005,718.8686140000354,716.8075987000484,716.8075987000484,716.8075987000484,716.8075987000484,new_sceneIn_12.png,171,3.0,1.0500585000263527,,,052,10,2025-02-06_16h39.08.545,Surprise recog test,2023.1.3,60.03694671081082,
171,0,171,0,,,,,,,,,,,,,,,,,,,,,,,,,,,,,,,,,,720.9534143999917,721.9628742000787,718.8686140000354,718.8686140000354,718.8686140000354,718.8686140000354,new_fruit_49.png,172,2.0,2.082506899954751,,,052,10,2025-02-06_16h39.08.545,Surprise recog test,2023.1.3,60.03694671081082,
172,0,172,0,,,,,,,,,,,,,,,,,,,,,,,,,,,,,,,,,,723.8911259999732,724.9145691000158,721.9628742000787,721.9628742000787,721.9628742000787,721.9628742000787,old_fruit_9.png,173,1.0,1.9248798999469727,,,052,10,2025-02-06_16h39.08.545,Surprise recog test,2023.1.3,60.03694671081082,
173,0,173,0,,,,,,,,,,,,,,,,,,,,,,,,,,,,,,,,,,726.2691300000297,727.2955956000369,724.9145691000158,724.9145691000158,724.9145691000158,724.9145691000158,new_stationery_4.png,174,3.0,1.356453699991107,,,052,10,2025-02-06_16h39.08.545,Surprise recog test,2023.1.3,60.03694671081082,
174,0,174,0,,,,,,,,,,,,,,,,,,,,,,,,,,,,,,,,,,729.3721236999845,730.3963045000564,727.2955956000369,727.2955956000369,727.2955956000369,727.2955956000369,old_stationery_35.png,175,4.0,2.0769892999669537,,,052,10,2025-02-06_16h39.08.545,Surprise recog test,2023.1.3,60.03694671081082,
175,0,175,0,,,,,,,,,,,,,,,,,,,,,,,,,,,,,,,,,,732.1592851000605,733.1859369999729,730.3963045000564,730.3963045000564,730.3963045000564,730.3963045000564,old_sceneIn_14.png,176,2.0,1.7642829000251368,,,052,10,2025-02-06_16h39.08.545,Surprise recog test,2023.1.3,60.03694671081082,
176,0,176,0,,,,,,,,,,,,,,,,,,,,,,,,,,,,,,,,,,734.2976406000089,735.31203130004,733.1859369999729,733.1859369999729,733.1859369999729,733.1859369999729,new_sceneIn_2.png,177,4.0,1.113479300052859,,,052,10,2025-02-06_16h39.08.545,Surprise recog test,2023.1.3,60.03694671081082,
177,0,177,0,,,,,,,,,,,,,,,,,,,,,,,,,,,,,,,,,,736.5328312000493,737.5563465000596,735.31203130004,735.31203130004,735.31203130004,735.31203130004,old_fruit_25.png,178,3.0,1.217668499913998,,,052,10,2025-02-06_16h39.08.545,Surprise recog test,2023.1.3,60.03694671081082,
178,0,178,0,,,,,,,,,,,,,,,,,,,,,,,,,,,,,,,,,,739.0395656999899,740.0588897999842,737.5563465000596,737.5563465000596,737.5563465000596,737.5563465000596,new_fruit_48.png,179,3.0,1.483945400104858,,,052,10,2025-02-06_16h39.08.545,Surprise recog test,2023.1.3,60.03694671081082,
179,0,179,0,,,,,,,,,,,,,,,,,,,,,,,,,,,,,,,,,,741.7645929000573,742.7923127000686,740.0588897999842,740.0588897999842,740.0588897999842,740.0588897999842,new_sceneIn_27.png,180,4.0,1.707713900017552,,,052,10,2025-02-06_16h39.08.545,Surprise recog test,2023.1.3,60.03694671081082,
180,0,180,0,,,,,,,,,,,,,,,,,,,,,,,,,,,,,,,,,,744.2728535999777,745.2885361000663,742.7923127000686,742.7923127000686,742.7923127000686,742.7923127000686,new_sceneOut_41.png,181,4.0,1.482600999996066,,,052,10,2025-02-06_16h39.08.545,Surprise recog test,2023.1.3,60.03694671081082,
181,0,181,0,,,,,,,,,,,,,,,,,,,,,,,,,,,,,,,,,,746.6291659000563,747.651690699975,745.2885361000663,745.2885361000663,745.2885361000663,745.2885361000663,new_sceneIn_33.png,182,4.0,1.3339527000207454,,,052,10,2025-02-06_16h39.08.545,Surprise recog test,2023.1.3,60.03694671081082,
182,0,182,0,,,,,,,,,,,,,,,,,,,,,,,,,,,,,,,,,,750.0603599000024,751.0878713000566,747.651690699975,747.651690699975,747.651690699975,747.651690699975,old_fruit_46.png,183,1.0,2.41081250004936,,,052,10,2025-02-06_16h39.08.545,Surprise recog test,2023.1.3,60.03694671081082,
183,0,183,0,,,,,,,,,,,,,,,,,,,,,,,,,,,,,,,,,,751.8836094000144,752.8918496000115,751.0878713000566,751.0878713000566,751.0878713000566,751.0878713000566,old_fruit_29.png,184,1.0,0.7923808000050485,,,052,10,2025-02-06_16h39.08.545,Surprise recog test,2023.1.3,60.03694671081082,
184,0,184,0,,,,,,,,,,,,,,,,,,,,,,,,,,,,,,,,,,754.2022283000406,755.2167953000171,752.8918496000115,752.8918496000115,752.8918496000115,752.8918496000115,old_sceneOut_11.png,185,3.0,1.3047450999729335,,,052,10,2025-02-06_16h39.08.545,Surprise recog test,2023.1.3,60.03694671081082,
185,0,185,0,,,,,,,,,,,,,,,,,,,,,,,,,,,,,,,,,,755.9996294999728,757.0266747999704,755.2167953000171,755.2167953000171,755.2167953000171,755.2167953000171,old_sceneOut_48.png,186,4.0,0.7833649000385776,,,052,10,2025-02-06_16h39.08.545,Surprise recog test,2023.1.3,60.03694671081082,
186,0,186,0,,,,,,,,,,,,,,,,,,,,,,,,,,,,,,,,,,757.6218318999745,758.6436533000087,757.0266747999704,757.0266747999704,757.0266747999704,757.0266747999704,new_sceneOut_6.png,187,4.0,0.5975093999877572,,,052,10,2025-02-06_16h39.08.545,Surprise recog test,2023.1.3,60.03694671081082,
187,0,187,0,,,,,,,,,,,,,,,,,,,,,,,,,,,,,,,,,,759.9993994000833,761.0218352000229,758.6436533000087,758.6436533000087,758.6436533000087,758.6436533000087,old_stationery_44.png,188,2.0,1.3575837999815121,,,052,10,2025-02-06_16h39.08.545,Surprise recog test,2023.1.3,60.03694671081082,
188,0,188,0,,,,,,,,,,,,,,,,,,,,,,,,,,,,,,,,,,762.0960188000463,,761.0218352000229,761.0218352000229,761.0218352000229,761.0218352000229,new_stationery_13.png,189,2.0,1.0751725999871269,,,052,10,2025-02-06_16h39.08.545,Surprise recog test,2023.1.3,60.03694671081082,
189,0,189,0,,,,,,,,,,,,,,,,,,,,,,,,,,,,,,,,,,764.0227557000471,765.04824620008,763.1154872999759,763.1154872999759,763.1154872999759,763.1154872999759,old_fruit_44.png,190,3.0,0.9023472999688238,,,052,10,2025-02-06_16h39.08.545,Surprise recog test,2023.1.3,60.03694671081082,
190,0,190,0,,,,,,,,,,,,,,,,,,,,,,,,,,,,,,,,,,766.0335845000809,767.0638655000366,765.04824620008,765.04824620008,765.04824620008,765.04824620008,old_sceneOut_32.png,191,4.0,0.9873891000170261,,,052,10,2025-02-06_16h39.08.545,Surprise recog test,2023.1.3,60.03694671081082,
191,0,191,0,,,,,,,,,,,,,,,,,,,,,,,,,,,,,,,,,,768.1378775000339,769.1703222000506,767.0638655000366,767.0638655000366,767.0638655000366,767.0638655000366,old_sceneOut_21.png,192,4.0,1.0743305999785662,,,052,10,2025-02-06_16h39.08.545,Surprise recog test,2023.1.3,60.03694671081082,
192,0,192,0,,,,,,,,,,,,,,,,,,,,,,,,,,,,,,,,,,771.5057180000003,772.5411637000507,769.1703222000506,769.1703222000506,769.1703222000506,769.1703222000506,old_sceneIn_20.png,193,3.0,2.3370156000601128,,,052,10,2025-02-06_16h39.08.545,Surprise recog test,2023.1.3,60.03694671081082,
193,0,193,0,,,,,,,,,,,,,,,,,,,,,,,,,,,,,,,,,,773.8564586000284,774.8737378000515,772.5411637000507,772.5411637000507,772.5411637000507,772.5411637000507,new_fruit_21.png,194,1.0,1.3177484999177977,,,052,10,2025-02-06_16h39.08.545,Surprise recog test,2023.1.3,60.03694671081082,
194,0,194,0,,,,,,,,,,,,,,,,,,,,,,,,,,,,,,,,,,776.5539710000157,777.5787569000386,774.8737378000515,774.8737378000515,774.8737378000515,774.8737378000515,old_stationery_24.png,195,1.0,1.6691035999683663,,,052,10,2025-02-06_16h39.08.545,Surprise recog test,2023.1.3,60.03694671081082,
195,0,195,0,,,,,,,,,,,,,,,,,,,,,,,,,,,,,,,,,,779.0376107000047,780.0600432000356,777.5787569000386,777.5787569000386,777.5787569000386,777.5787569000386,new_sceneIn_23.png,196,4.0,1.4628569000633433,,,052,10,2025-02-06_16h39.08.545,Surprise recog test,2023.1.3,60.03694671081082,
196,0,196,0,,,,,,,,,,,,,,,,,,,,,,,,,,,,,,,,,,781.3656057000626,782.3967641000636,780.0600432000356,780.0600432000356,780.0600432000356,780.0600432000356,new_stationery_18.png,197,4.0,1.3088994999416173,,,052,10,2025-02-06_16h39.08.545,Surprise recog test,2023.1.3,60.03694671081082,
197,0,197,0,,,,,,,,,,,,,,,,,,,,,,,,,,,,,,,,,,784.1796375999693,,782.3967641000636,782.3967641000636,782.3967641000636,782.3967641000636,new_sceneIn_36.png,198,3.0,1.7854043999686837,,,052,10,2025-02-06_16h39.08.545,Surprise recog test,2023.1.3,60.03694671081082,
198,0,198,0,,,,,,,,,,,,,,,,,,,,,,,,,,,,,,,,,,787.6552343000658,788.6779005000135,785.209970899974,785.209970899974,785.209970899974,785.209970899974,new_stationery_27.png,199,3.0,2.444632099941373,,,052,10,2025-02-06_16h39.08.545,Surprise recog test,2023.1.3,60.03694671081082,
199,0,199,0,,,,,,,,,,,,,,,,,,,,,,,,,,,,,,,,,,789.8294355000835,790.8502428000793,788.6779005000135,788.6779005000135,788.6779005000135,788.6779005000135,new_sceneOut_1.png,200,4.0,1.153940899996087,,,052,10,2025-02-06_16h39.08.545,Surprise recog test,2023.1.3,60.03694671081082,
200,0,200,0,,,,,,,,,,,,,,,,,,,,,,,,,,,,,,,,,,792.7703528000275,,790.8502428000793,790.8502428000793,790.8502428000793,790.8502428000793,old_sceneOut_31.png,201,3.0,1.9223677000263706,,,052,10,2025-02-06_16h39.08.545,Surprise recog test,2023.1.3,60.03694671081082,
201,0,201,0,,,,,,,,,,,,,,,,,,,,,,,,,,,,,,,,,,796.1265654000454,797.1580554000102,793.8031861999771,793.8031861999771,793.8031861999771,793.8031861999771,new_stationery_25.png,202,3.0,2.3258314999984577,,,052,10,2025-02-06_16h39.08.545,Surprise recog test,2023.1.3,60.03694671081082,
202,0,202,0,,,,,,,,,,,,,,,,,,,,,,,,,,,,,,,,,,798.664991299971,799.6904570000479,797.1580554000102,797.1580554000102,797.1580554000102,797.1580554000102,new_stationery_21.png,203,2.0,1.5089258999796584,,,052,10,2025-02-06_16h39.08.545,Surprise recog test,2023.1.3,60.03694671081082,
203,0,203,0,,,,,,,,,,,,,,,,,,,,,,,,,,,,,,,,,,801.5939385000383,,799.6904570000479,799.6904570000479,799.6904570000479,799.6904570000479,new_stationery_36.png,204,3.0,1.9028720000060275,,,052,10,2025-02-06_16h39.08.545,Surprise recog test,2023.1.3,60.03694671081082,
204,0,204,0,,,,,,,,,,,,,,,,,,,,,,,,,,,,,,,,,,803.59524960001,,802.6258229999803,802.6258229999803,802.6258229999803,802.6258229999803,new_sceneIn_45.png,205,4.0,0.9712882000021636,,,052,10,2025-02-06_16h39.08.545,Surprise recog test,2023.1.3,60.03694671081082,
205,0,205,0,,,,,,,,,,,,,,,,,,,,,,,,,,,,,,,,,,805.4559610000579,806.4792602000525,804.6242612000788,804.6242612000788,804.6242612000788,804.6242612000788,new_sceneOut_19.png,206,4.0,0.8318792999489233,,,052,10,2025-02-06_16h39.08.545,Surprise recog test,2023.1.3,60.03694671081082,
206,0,206,0,,,,,,,,,,,,,,,,,,,,,,,,,,,,,,,,,,808.4003978000255,,806.4792602000525,806.4792602000525,806.4792602000525,806.4792602000525,new_stationery_15.png,207,2.0,1.919679000042379,,,052,10,2025-02-06_16h39.08.545,Surprise recog test,2023.1.3,60.03694671081082,
207,0,207,0,,,,,,,,,,,,,,,,,,,,,,,,,,,,,,,,,,811.4055307999952,812.4359467000468,809.4356675000163,809.4356675000163,809.4356675000163,809.4356675000163,new_fruit_36.png,208,2.0,1.9726920999819413,,,052,10,2025-02-06_16h39.08.545,Surprise recog test,2023.1.3,60.03694671081082,
208,0,208,0,,,,,,,,,,,,,,,,,,,,,,,,,,,,,,,,,,814.0625470000086,815.0769321999978,812.4359467000468,812.4359467000468,812.4359467000468,812.4359467000468,old_sceneOut_20.png,209,4.0,1.6282468000426888,,,052,10,2025-02-06_16h39.08.545,Surprise recog test,2023.1.3,60.03694671081082,
209,0,209,0,,,,,,,,,,,,,,,,,,,,,,,,,,,,,,,,,,815.9025799999945,816.9247325999895,815.0769321999978,815.0769321999978,815.0769321999978,815.0769321999978,old_sceneIn_50.png,210,4.0,0.8211545998929068,,,052,10,2025-02-06_16h39.08.545,Surprise recog test,2023.1.3,60.03694671081082,
210,0,210,0,,,,,,,,,,,,,,,,,,,,,,,,,,,,,,,,,,817.5252215000801,,816.9247325999895,816.9247325999895,816.9247325999895,816.9247325999895,new_sceneOut_16.png,211,4.0,0.6031549000181258,,,052,10,2025-02-06_16h39.08.545,Surprise recog test,2023.1.3,60.03694671081082,
211,0,211,0,,,,,,,,,,,,,,,,,,,,,,,,,,,,,,,,,,820.4377837000648,821.4597307000076,818.5563550000079,818.5563550000079,818.5563550000079,818.5563550000079,old_fruit_36.png,212,1.0,1.8826999999582767,,,052,10,2025-02-06_16h39.08.545,Surprise recog test,2023.1.3,60.03694671081082,
212,0,212,0,,,,,,,,,,,,,,,,,,,,,,,,,,,,,,,,,,823.1607838000637,824.1784791999962,821.4597307000076,821.4597307000076,821.4597307000076,821.4597307000076,old_sceneOut_29.png,213,4.0,1.7029149000300094,,,052,10,2025-02-06_16h39.08.545,Surprise recog test,2023.1.3,60.03694671081082,
213,0,213,0,,,,,,,,,,,,,,,,,,,,,,,,,,,,,,,,,,825.9839594999794,827.0163727999898,824.1784791999962,824.1784791999962,824.1784791999962,824.1784791999962,old_fruit_5.png,214,1.0,1.8078866999130696,,,052,10,2025-02-06_16h39.08.545,Surprise recog test,2023.1.3,60.03694671081082,
214,0,214,0,,,,,,,,,,,,,,,,,,,,,,,,,,,,,,,,,,827.9120960000437,828.9308366000187,827.0163727999898,827.0163727999898,827.0163727999898,827.0163727999898,old_sceneOut_2.png,215,4.0,0.8983851000666618,,,052,10,2025-02-06_16h39.08.545,Surprise recog test,2023.1.3,60.03694671081082,
215,0,215,0,,,,,,,,,,,,,,,,,,,,,,,,,,,,,,,,,,829.7022207999835,,828.9308366000187,828.9308366000187,828.9308366000187,828.9308366000187,old_sceneOut_6.png,216,4.0,0.7720808000303805,,,052,10,2025-02-06_16h39.08.545,Surprise recog test,2023.1.3,60.03694671081082,
216,0,216,0,,,,,,,,,,,,,,,,,,,,,,,,,,,,,,,,,,832.4797250999836,833.4904247000813,830.7224147000816,830.7224147000816,830.7224147000816,830.7224147000816,old_stationery_40.png,217,1.0,1.750184700009413,,,052,10,2025-02-06_16h39.08.545,Surprise recog test,2023.1.3,60.03694671081082,
217,0,217,0,,,,,,,,,,,,,,,,,,,,,,,,,,,,,,,,,,834.5416980000446,835.5708654000191,833.4904247000813,833.4904247000813,833.4904247000813,833.4904247000813,new_fruit_13.png,218,1.0,1.0466069999383762,,,052,10,2025-02-06_16h39.08.545,Surprise recog test,2023.1.3,60.03694671081082,
218,0,218,0,,,,,,,,,,,,,,,,,,,,,,,,,,,,,,,,,,837.7264757000376,838.7464425000362,835.5708654000191,835.5708654000191,835.5708654000191,835.5708654000191,old_fruit_41.png,219,4.0,2.1572694000788033,,,052,10,2025-02-06_16h39.08.545,Surprise recog test,2023.1.3,60.03694671081082,
219,0,219,0,,,,,,,,,,,,,,,,,,,,,,,,,,,,,,,,,,839.4746544000227,840.4887348000193,838.7464425000362,838.7464425000362,838.7464425000362,838.7464425000362,new_sceneIn_47.png,220,4.0,0.7239426999585703,,,052,10,2025-02-06_16h39.08.545,Surprise recog test,2023.1.3,60.03694671081082,
220,0,220,0,,,,,,,,,,,,,,,,,,,,,,,,,,,,,,,,,,842.9368411999894,843.9502785999794,840.4887348000193,840.4887348000193,840.4887348000193,840.4887348000193,old_stationery_30.png,221,4.0,2.447661199956201,,,052,10,2025-02-06_16h39.08.545,Surprise recog test,2023.1.3,60.03694671081082,
221,0,221,0,,,,,,,,,,,,,,,,,,,,,,,,,,,,,,,,,,846.3291520000203,847.345625200076,843.9502785999794,843.9502785999794,843.9502785999794,843.9502785999794,new_stationery_22.png,222,3.0,2.374162400024943,,,052,10,2025-02-06_16h39.08.545,Surprise recog test,2023.1.3,60.03694671081082,
222,0,222,0,,,,,,,,,,,,,,,,,,,,,,,,,,,,,,,,,,848.6213913999964,849.6504451000364,847.345625200076,847.345625200076,847.345625200076,847.345625200076,new_sceneOut_12.png,223,4.0,1.2775179999880493,,,052,10,2025-02-06_16h39.08.545,Surprise recog test,2023.1.3,60.03694671081082,
223,0,223,0,,,,,,,,,,,,,,,,,,,,,,,,,,,,,,,,,,850.6224143999862,851.6536748000653,849.6504451000364,849.6504451000364,849.6504451000364,849.6504451000364,new_sceneOut_14.png,224,4.0,0.9732160000130534,,,052,10,2025-02-06_16h39.08.545,Surprise recog test,2023.1.3,60.03694671081082,
224,0,224,0,,,,,,,,,,,,,,,,,,,,,,,,,,,,,,,,,,852.8840392000275,853.9054533999879,851.6536748000653,851.6536748000653,851.6536748000653,851.6536748000653,old_sceneIn_36.png,225,4.0,1.2288303000386804,,,052,10,2025-02-06_16h39.08.545,Surprise recog test,2023.1.3,60.03694671081082,
225,0,225,0,,,,,,,,,,,,,,,,,,,,,,,,,,,,,,,,,,856.1222873000661,,853.9054533999879,853.9054533999879,853.9054533999879,853.9054533999879,old_fruit_47.png,226,3.0,2.2166149000404403,,,052,10,2025-02-06_16h39.08.545,Surprise recog test,2023.1.3,60.03694671081082,
226,0,226,0,,,,,,,,,,,,,,,,,,,,,,,,,,,,,,,,,,859.2142740000272,860.2271432999987,857.1555404000683,857.1555404000683,857.1555404000683,857.1555404000683,new_sceneIn_5.png,227,2.0,2.0592935000313446,,,052,10,2025-02-06_16h39.08.545,Surprise recog test,2023.1.3,60.03694671081082,
227,0,227,0,,,,,,,,,,,,,,,,,,,,,,,,,,,,,,,,,,862.0319887000369,863.0582193000009,860.2271432999987,860.2271432999987,860.2271432999987,860.2271432999987,old_stationery_31.png,228,1.0,1.8011849999893457,,,052,10,2025-02-06_16h39.08.545,Surprise recog test,2023.1.3,60.03694671081082,
228,0,228,0,,,,,,,,,,,,,,,,,,,,,,,,,,,,,,,,,,863.9187471000478,864.9437443000497,863.0582193000009,863.0582193000009,863.0582193000009,863.0582193000009,old_fruit_26.png,229,1.0,0.8613306999905035,,,052,10,2025-02-06_16h39.08.545,Surprise recog test,2023.1.3,60.03694671081082,
229,0,229,0,,,,,,,,,,,,,,,,,,,,,,,,,,,,,,,,,,866.7295242000837,867.7382089999737,864.9437443000497,864.9437443000497,864.9437443000497,864.9437443000497,old_stationery_34.png,230,2.0,1.785648399963975,,,052,10,2025-02-06_16h39.08.545,Surprise recog test,2023.1.3,60.03694671081082,
230,0,230,0,,,,,,,,,,,,,,,,,,,,,,,,,,,,,,,,,,869.6167764000129,,867.7382089999737,867.7382089999737,867.7382089999737,867.7382089999737,new_fruit_34.png,231,2.0,1.874646699987352,,,052,10,2025-02-06_16h39.08.545,Surprise recog test,2023.1.3,60.03694671081082,
231,0,231,0,,,,,,,,,,,,,,,,,,,,,,,,,,,,,,,,,,873.1042209999869,,870.6475942999823,870.6475942999823,870.6475942999823,870.6475942999823,new_stationery_39.png,232,2.0,2.4585684000048786,,,052,10,2025-02-06_16h39.08.545,Surprise recog test,2023.1.3,60.03694671081082,
232,0,232,0,,,,,,,,,,,,,,,,,,,,,,,,,,,,,,,,,,875.5588387000607,876.5922271000454,874.138776000007,874.138776000007,874.138776000007,874.138776000007,new_sceneIn_7.png,233,4.0,1.4207381999585778,,,052,10,2025-02-06_16h39.08.545,Surprise recog test,2023.1.3,60.03694671081082,
233,0,233,0,,,,,,,,,,,,,,,,,,,,,,,,,,,,,,,,,,877.3355461000465,878.3597926000366,876.5922271000454,876.5922271000454,876.5922271000454,876.5922271000454,old_sceneOut_8.png,234,4.0,0.7439853999530897,,,052,10,2025-02-06_16h39.08.545,Surprise recog test,2023.1.3,60.03694671081082,
234,0,234,0,,,,,,,,,,,,,,,,,,,,,,,,,,,,,,,,,,879.3897250000155,880.4109804000473,878.3597926000366,878.3597926000366,878.3597926000366,878.3597926000366,old_stationery_43.png,235,4.0,1.032242500106804,,,052,10,2025-02-06_16h39.08.545,Surprise recog test,2023.1.3,60.03694671081082,
235,0,235,0,,,,,,,,,,,,,,,,,,,,,,,,,,,,,,,,,,881.5050394000718,882.5161092000781,880.4109804000473,880.4109804000473,880.4109804000473,880.4109804000473,new_fruit_15.png,236,3.0,1.0962892000097781,,,052,10,2025-02-06_16h39.08.545,Surprise recog test,2023.1.3,60.03694671081082,
236,0,236,0,,,,,,,,,,,,,,,,,,,,,,,,,,,,,,,,,,883.7285620999755,,882.5161092000781,882.5161092000781,882.5161092000781,882.5161092000781,old_stationery_48.png,237,2.0,1.2059482000768185,,,052,10,2025-02-06_16h39.08.545,Surprise recog test,2023.1.3,60.03694671081082,
237,0,237,0,,,,,,,,,,,,,,,,,,,,,,,,,,,,,,,,,,885.9409709000029,886.9727756000357,884.7625662999926,884.7625662999926,884.7625662999926,884.7625662999926,old_sceneOut_26.png,238,4.0,1.18131509993691,,,052,10,2025-02-06_16h39.08.545,Surprise recog test,2023.1.3,60.03694671081082,
238,0,238,0,,,,,,,,,,,,,,,,,,,,,,,,,,,,,,,,,,887.678496700013,888.6974767000647,886.9727756000357,886.9727756000357,886.9727756000357,886.9727756000357,old_sceneOut_9.png,239,4.0,0.7072670999914408,,,052,10,2025-02-06_16h39.08.545,Surprise recog test,2023.1.3,60.03694671081082,
239,0,239,0,,,,,,,,,,,,,,,,,,,,,,,,,,,,,,,,,,889.994516100036,891.0154168000445,888.6974767000647,888.6974767000647,888.6974767000647,888.6974767000647,old_stationery_6.png,240,3.0,1.2981053999392316,,,052,10,2025-02-06_16h39.08.545,Surprise recog test,2023.1.3,60.03694671081082,
240,0,240,0,,,,,,,,,,,,,,,,,,,,,,,,,,,,,,,,,,892.9416023000376,893.9601911000209,891.0154168000445,891.0154168000445,891.0154168000445,891.0154168000445,new_stationery_26.png,241,2.0,1.9269033999880776,,,052,10,2025-02-06_16h39.08.545,Surprise recog test,2023.1.3,60.03694671081082,
241,0,241,0,,,,,,,,,,,,,,,,,,,,,,,,,,,,,,,,,,894.71364490001,895.7386126000201,893.9601911000209,893.9601911000209,893.9601911000209,893.9601911000209,new_fruit_28.png,242,2.0,0.7481964000035077,,,052,10,2025-02-06_16h39.08.545,Surprise recog test,2023.1.3,60.03694671081082,
242,0,242,0,,,,,,,,,,,,,,,,,,,,,,,,,,,,,,,,,,898.1632844000123,899.1794440000085,895.7386126000201,895.7386126000201,895.7386126000201,895.7386126000201,old_sceneIn_24.png,243,4.0,2.4265936999581754,,,052,10,2025-02-06_16h39.08.545,Surprise recog test,2023.1.3,60.03694671081082,
243,0,243,0,,,,,,,,,,,,,,,,,,,,,,,,,,,,,,,,,,900.0066810999997,901.0274000000209,899.1794440000085,899.1794440000085,899.1794440000085,899.1794440000085,old_sceneIn_25.png,244,4.0,0.8215744999470189,,,052,10,2025-02-06_16h39.08.545,Surprise recog test,2023.1.3,60.03694671081082,
244,0,244,0,,,,,,,,,,,,,,,,,,,,,,,,,,,,,,,,,,902.4109616000205,,901.0274000000209,901.0274000000209,901.0274000000209,901.0274000000209,new_stationery_33.png,245,1.0,1.3833119999617338,,,052,10,2025-02-06_16h39.08.545,Surprise recog test,2023.1.3,60.03694671081082,
245,0,245,0,,,,,,,,,,,,,,,,,,,,,,,,,,,,,,,,,,904.6640885000816,,903.4359148000367,903.4359148000367,903.4359148000367,903.4359148000367,new_stationery_50.png,246,1.0,1.2241791000124067,,,052,10,2025-02-06_16h39.08.545,Surprise recog test,2023.1.3,60.03694671081082,
246,0,246,0,,,,,,,,,,,,,,,,,,,,,,,,,,,,,,,,,,906.8669481000397,907.8920225000475,905.6843908000737,905.6843908000737,905.6843908000737,905.6843908000737,old_stationery_13.png,247,1.0,1.1782375000184402,,,052,10,2025-02-06_16h39.08.545,Surprise recog test,2023.1.3,60.03694671081082,
247,0,247,0,,,,,,,,,,,,,,,,,,,,,,,,,,,,,,,,,,909.7250942999963,910.7385950000025,907.8920225000475,907.8920225000475,907.8920225000475,907.8920225000475,old_sceneOut_37.png,248,4.0,1.8272661999799311,,,052,10,2025-02-06_16h39.08.545,Surprise recog test,2023.1.3,60.03694671081082,
248,0,248,0,,,,,,,,,,,,,,,,,,,,,,,,,,,,,,,,,,911.696239800076,912.7218159000622,910.7385950000025,910.7385950000025,910.7385950000025,910.7385950000025,new_sceneIn_48.png,249,4.0,0.9497824000427499,,,052,10,2025-02-06_16h39.08.545,Surprise recog test,2023.1.3,60.03694671081082,
249,0,249,0,,,,,,,,,,,,,,,,,,,,,,,,,,,,,,,,,,913.5973823000677,914.6258978999685,912.7218159000622,912.7218159000622,912.7218159000622,912.7218159000622,new_sceneIn_46.png,250,4.0,0.8769521999638528,,,052,10,2025-02-06_16h39.08.545,Surprise recog test,2023.1.3,60.03694671081082,
250,0,250,0,,,,,,,,,,,,,,,,,,,,,,,,,,,,,,,,,,915.7632244999986,916.7901537000434,914.6258978999685,914.6258978999685,914.6258978999685,914.6258978999685,new_sceneIn_28.png,251,4.0,1.1400477000279352,,,052,10,2025-02-06_16h39.08.545,Surprise recog test,2023.1.3,60.03694671081082,
251,0,251,0,,,,,,,,,,,,,,,,,,,,,,,,,,,,,,,,,,917.658518500044,,916.7901537000434,916.7901537000434,916.7901537000434,916.7901537000434,new_sceneOut_45.png,252,4.0,0.8701074999989942,,,052,10,2025-02-06_16h39.08.545,Surprise recog test,2023.1.3,60.03694671081082,
252,0,252,0,,,,,,,,,,,,,,,,,,,,,,,,,,,,,,,,,,920.1342455999693,921.1584171999712,918.6909573000157,918.6909573000157,918.6909573000157,918.6909573000157,old_fruit_27.png,253,3.0,1.4445237999316305,,,052,10,2025-02-06_16h39.08.545,Surprise recog test,2023.1.3,60.03694671081082,
253,0,253,0,,,,,,,,,,,,,,,,,,,,,,,,,,,,,,,,,,924.3527121000225,925.3823768000584,921.1584171999712,921.1584171999712,921.1584171999712,921.1584171999712,old_sceneIn_38.png,254,4.0,3.1953151000197977,,,052,10,2025-02-06_16h39.08.545,Surprise recog test,2023.1.3,60.03694671081082,
254,0,254,0,,,,,,,,,,,,,,,,,,,,,,,,,,,,,,,,,,927.1489006000338,,925.3823768000584,925.3823768000584,925.3823768000584,925.3823768000584,old_stationery_12.png,255,1.0,1.769808299955912,,,052,10,2025-02-06_16h39.08.545,Surprise recog test,2023.1.3,60.03694671081082,
255,0,255,0,,,,,,,,,,,,,,,,,,,,,,,,,,,,,,,,,,929.0019609000301,,928.1782704000361,928.1782704000361,928.1782704000361,928.1782704000361,old_fruit_15.png,256,1.0,0.8245091000571847,,,052,10,2025-02-06_16h39.08.545,Surprise recog test,2023.1.3,60.03694671081082,
256,0,256,0,,,,,,,,,,,,,,,,,,,,,,,,,,,,,,,,,,931.7393717999803,932.7704788000556,930.0221186999697,930.0221186999697,930.0221186999697,930.0221186999697,old_stationery_5.png,257,3.0,1.7092709999997169,,,052,10,2025-02-06_16h39.08.545,Surprise recog test,2023.1.3,60.03694671081082,
257,0,257,0,,,,,,,,,,,,,,,,,,,,,,,,,,,,,,,,,,935.3133573000086,936.3291869000532,932.7704788000556,932.7704788000556,932.7704788000556,932.7704788000556,old_stationery_23.png,258,3.0,2.5422196000581607,,,052,10,2025-02-06_16h39.08.545,Surprise recog test,2023.1.3,60.03694671081082,
258,0,258,0,,,,,,,,,,,,,,,,,,,,,,,,,,,,,,,,,,937.4061965000583,938.4239943000721,936.3291869000532,936.3291869000532,936.3291869000532,936.3291869000532,old_sceneIn_42.png,259,4.0,1.0763448000652716,,,052,10,2025-02-06_16h39.08.545,Surprise recog test,2023.1.3,60.03694671081082,
259,0,259,0,,,,,,,,,,,,,,,,,,,,,,,,,,,,,,,,,,939.2956426000455,940.3275511000538,938.4239943000721,938.4239943000721,938.4239943000721,938.4239943000721,old_sceneIn_13.png,260,4.0,0.873399700038135,,,052,10,2025-02-06_16h39.08.545,Surprise recog test,2023.1.3,60.03694671081082,
260,0,260,0,,,,,,,,,,,,,,,,,,,,,,,,,,,,,,,,,,941.1905387999723,942.2146155000664,940.3275511000538,940.3275511000538,940.3275511000538,940.3275511000538,new_sceneIn_38.png,261,4.0,0.8645951000507921,,,052,10,2025-02-06_16h39.08.545,Surprise recog test,2023.1.3,60.03694671081082,
261,0,261,0,,,,,,,,,,,,,,,,,,,,,,,,,,,,,,,,,,943.3339946999913,944.3622583000688,942.2146155000664,942.2146155000664,942.2146155000664,942.2146155000664,new_fruit_2.png,262,3.0,1.119958100025542,,,052,10,2025-02-06_16h39.08.545,Surprise recog test,2023.1.3,60.03694671081082,
262,0,262,0,,,,,,,,,,,,,,,,,,,,,,,,,,,,,,,,,,946.8543321000179,947.8707795999944,944.3622583000688,944.3622583000688,944.3622583000688,944.3622583000688,new_fruit_5.png,263,2.0,2.4903720000293106,,,052,10,2025-02-06_16h39.08.545,Surprise recog test,2023.1.3,60.03694671081082,
263,0,263,0,,,,,,,,,,,,,,,,,,,,,,,,,,,,,,,,,,948.9685964999953,949.996184800053,947.8707795999944,947.8707795999944,947.8707795999944,947.8707795999944,new_fruit_9.png,264,2.0,1.0934319000225514,,,052,10,2025-02-06_16h39.08.545,Surprise recog test,2023.1.3,60.03694671081082,
264,0,264,0,,,,,,,,,,,,,,,,,,,,,,,,,,,,,,,,,,951.3000529999845,952.3209322000621,949.996184800053,949.996184800053,949.996184800053,949.996184800053,new_sceneIn_10.png,265,4.0,1.3059118000091985,,,052,10,2025-02-06_16h39.08.545,Surprise recog test,2023.1.3,60.03694671081082,
265,0,265,0,,,,,,,,,,,,,,,,,,,,,,,,,,,,,,,,,,953.4030125000281,954.4218069000635,952.3209322000621,952.3209322000621,952.3209322000621,952.3209322000621,old_sceneIn_27.png,266,4.0,1.0847214000532404,,,052,10,2025-02-06_16h39.08.545,Surprise recog test,2023.1.3,60.03694671081082,
266,0,266,0,,,,,,,,,,,,,,,,,,,,,,,,,,,,,,,,,,956.1045685000718,957.1139536000555,954.4218069000635,954.4218069000635,954.4218069000635,954.4218069000635,new_sceneIn_19.png,267,4.0,1.681180499959737,,,052,10,2025-02-06_16h39.08.545,Surprise recog test,2023.1.3,60.03694671081082,
267,0,267,0,,,,,,,,,,,,,,,,,,,,,,,,,,,,,,,,,,957.8516787000699,958.8744148000842,957.1139536000555,957.1139536000555,957.1139536000555,957.1139536000555,new_sceneOut_30.png,268,4.0,0.7368162999628112,,,052,10,2025-02-06_16h39.08.545,Surprise recog test,2023.1.3,60.03694671081082,
268,0,268,0,,,,,,,,,,,,,,,,,,,,,,,,,,,,,,,,,,959.6015678000404,960.6103527999949,958.8744148000842,958.8744148000842,958.8744148000842,958.8744148000842,new_sceneOut_32.png,269,4.0,0.7286402999889106,,,052,10,2025-02-06_16h39.08.545,Surprise recog test,2023.1.3,60.03694671081082,
269,0,269,0,,,,,,,,,,,,,,,,,,,,,,,,,,,,,,,,,,961.997929800069,963.0328528999817,960.6103527999949,960.6103527999949,960.6103527999949,960.6103527999949,old_fruit_21.png,270,2.0,1.3824857000727206,,,052,10,2025-02-06_16h39.08.545,Surprise recog test,2023.1.3,60.03694671081082,
270,0,270,0,,,,,,,,,,,,,,,,,,,,,,,,,,,,,,,,,,964.6428427000064,965.6624071999686,963.0328528999817,963.0328528999817,963.0328528999817,963.0328528999817,new_fruit_25.png,271,2.0,1.6137826000340283,,,052,10,2025-02-06_16h39.08.545,Surprise recog test,2023.1.3,60.03694671081082,
271,0,271,0,,,,,,,,,,,,,,,,,,,,,,,,,,,,,,,,,,967.220402100007,968.2429750000592,965.6624071999686,965.6624071999686,965.6624071999686,965.6624071999686,new_fruit_38.png,272,2.0,1.5595055000158027,,,052,10,2025-02-06_16h39.08.545,Surprise recog test,2023.1.3,60.03694671081082,
272,0,272,0,,,,,,,,,,,,,,,,,,,,,,,,,,,,,,,,,,970.0799847000744,971.0989465999883,968.2429750000592,968.2429750000592,968.2429750000592,968.2429750000592,new_fruit_43.png,273,4.0,1.8357596999267116,,,052,10,2025-02-06_16h39.08.545,Surprise recog test,2023.1.3,60.03694671081082,
273,0,273,0,,,,,,,,,,,,,,,,,,,,,,,,,,,,,,,,,,972.2336248999927,973.2480435000034,971.0989465999883,971.0989465999883,971.0989465999883,971.0989465999883,old_fruit_45.png,274,4.0,1.1331066000275314,,,052,10,2025-02-06_16h39.08.545,Surprise recog test,2023.1.3,60.03694671081082,
274,0,274,0,,,,,,,,,,,,,,,,,,,,,,,,,,,,,,,,,,973.9943059000652,975.0201666000066,973.2480435000034,973.2480435000034,973.2480435000034,973.2480435000034,old_sceneOut_13.png,275,4.0,0.7443084999686107,,,052,10,2025-02-06_16h39.08.545,Surprise recog test,2023.1.3,60.03694671081082,
275,0,275,0,,,,,,,,,,,,,,,,,,,,,,,,,,,,,,,,,,976.5854846000439,977.6043108999729,975.0201666000066,975.0201666000066,975.0201666000066,975.0201666000066,new_stationery_11.png,276,3.0,1.567058700020425,,,052,10,2025-02-06_16h39.08.545,Surprise recog test,2023.1.3,60.03694671081082,
276,0,276,0,,,,,,,,,,,,,,,,,,,,,,,,,,,,,,,,,,980.8228737000609,981.8417843000498,977.6043108999729,977.6043108999729,977.6043108999729,977.6043108999729,old_sceneIn_49.png,277,4.0,3.220382400089875,,,052,10,2025-02-06_16h39.08.545,Surprise recog test,2023.1.3,60.03694671081082,
277,0,277,0,,,,,,,,,,,,,,,,,,,,,,,,,,,,,,,,,,983.286246899981,984.3138154000044,981.8417843000498,981.8417843000498,981.8417843000498,981.8417843000498,new_stationery_1.png,278,2.0,1.4422827999806032,,,052,10,2025-02-06_16h39.08.545,Surprise recog test,2023.1.3,60.03694671081082,
278,0,278,0,,,,,,,,,,,,,,,,,,,,,,,,,,,,,,,,,,986.703946200083,987.7317540000658,984.3138154000044,984.3138154000044,984.3138154000044,984.3138154000044,new_sceneOut_11.png,279,3.0,2.3925704000284895,,,052,10,2025-02-06_16h39.08.545,Surprise recog test,2023.1.3,60.03694671081082,
279,0,279,0,,,,,,,,,,,,,,,,,,,,,,,,,,,,,,,,,,989.1312565000262,990.1486163000809,987.7317540000658,987.7317540000658,987.7317540000658,987.7317540000658,old_sceneIn_22.png,280,4.0,1.401612399960868,,,052,10,2025-02-06_16h39.08.545,Surprise recog test,2023.1.3,60.03694671081082,
280,0,280,0,,,,,,,,,,,,,,,,,,,,,,,,,,,,,,,,,,991.0528842000058,,990.1486163000809,990.1486163000809,990.1486163000809,990.1486163000809,old_sceneIn_15.png,281,4.0,0.9056939999572933,,,052,10,2025-02-06_16h39.08.545,Surprise recog test,2023.1.3,60.03694671081082,
281,0,281,0,,,,,,,,,,,,,,,,,,,,,,,,,,,,,,,,,,993.7103111000033,994.7302342000185,992.0849391000811,992.0849391000811,992.0849391000811,992.0849391000811,old_fruit_33.png,282,1.0,1.6231508000055328,,,052,10,2025-02-06_16h39.08.545,Surprise recog test,2023.1.3,60.03694671081082,
282,0,282,0,,,,,,,,,,,,,,,,,,,,,,,,,,,,,,,,,,995.7247887999984,996.7596276999684,994.7302342000185,994.7302342000185,994.7302342000185,994.7302342000185,new_sceneOut_43.png,283,3.0,0.9942960999906063,,,052,10,2025-02-06_16h39.08.545,Surprise recog test,2023.1.3,60.03694671081082,
283,0,283,0,,,,,,,,,,,,,,,,,,,,,,,,,,,,,,,,,,998.2566733000567,999.261836700025,996.7596276999684,996.7596276999684,996.7596276999684,996.7596276999684,old_fruit_20.png,284,2.0,1.4968858999200165,,,052,10,2025-02-06_16h39.08.545,Surprise recog test,2023.1.3,60.03694671081082,
284,0,284,0,,,,,,,,,,,,,,,,,,,,,,,,,,,,,,,,,,1001.209811000037,,999.261836700025,999.261836700025,999.261836700025,999.261836700025,old_sceneIn_18.png,285,5.0,1.9429271999979392,,,052,10,2025-02-06_16h39.08.545,Surprise recog test,2023.1.3,60.03694671081082,
285,0,285,0,,,,,,,,,,,,,,,,,,,,,,,,,,,,,,,,,,1003.8463766999776,,1002.2389003999997,1002.2389003999997,1002.2389003999997,1002.2389003999997,old_stationery_45.png,286,4.0,1.6041674999287352,,,052,10,2025-02-06_16h39.08.545,Surprise recog test,2023.1.3,60.03694671081082,
286,0,286,0,,,,,,,,,,,,,,,,,,,,,,,,,,,,,,,,,,1007.1378446000163,1008.1538627999835,1004.8812192999758,1004.8812192999758,1004.8812192999758,1004.8812192999758,old_stationery_9.png,287,4.0,2.2588159000733867,,,052,10,2025-02-06_16h39.08.545,Surprise recog test,2023.1.3,60.03694671081082,
287,0,287,0,,,,,,,,,,,,,,,,,,,,,,,,,,,,,,,,,,1010.1245121000102,1011.1511256999802,1008.1538627999835,1008.1538627999835,1008.1538627999835,1008.1538627999835,new_stationery_49.png,288,4.0,1.9661352999974042,,,052,10,2025-02-06_16h39.08.545,Surprise recog test,2023.1.3,60.03694671081082,
288,0,288,0,,,,,,,,,,,,,,,,,,,,,,,,,,,,,,,,,,1012.84113169997,1013.8708993999753,1011.1511256999802,1011.1511256999802,1011.1511256999802,1011.1511256999802,new_stationery_45.png,289,4.0,1.6910904999822378,,,052,10,2025-02-06_16h39.08.545,Surprise recog test,2023.1.3,60.03694671081082,
289,0,289,0,,,,,,,,,,,,,,,,,,,,,,,,,,,,,,,,,,1016.0270943000214,1017.0532413000474,1013.8708993999753,1013.8708993999753,1013.8708993999753,1013.8708993999753,new_fruit_30.png,290,3.0,2.1464120999444276,,,052,10,2025-02-06_16h39.08.545,Surprise recog test,2023.1.3,60.03694671081082,
290,0,290,0,,,,,,,,,,,,,,,,,,,,,,,,,,,,,,,,,,1018.0280736000277,1019.0607239999808,1017.0532413000474,1017.0532413000474,1017.0532413000474,1017.0532413000474,new_fruit_50.png,291,3.0,0.9760560999857262,,,052,10,2025-02-06_16h39.08.545,Surprise recog test,2023.1.3,60.03694671081082,
291,0,291,0,,,,,,,,,,,,,,,,,,,,,,,,,,,,,,,,,,1020.9704821000341,1021.9864985999884,1019.0607239999808,1019.0607239999808,1019.0607239999808,1019.0607239999808,old_fruit_11.png,292,2.0,1.911534999962896,,,052,10,2025-02-06_16h39.08.545,Surprise recog test,2023.1.3,60.03694671081082,
292,0,292,0,,,,,,,,,,,,,,,,,,,,,,,,,,,,,,,,,,1024.8878024000442,1025.9044383000582,1021.9864985999884,1021.9864985999884,1021.9864985999884,1021.9864985999884,new_sceneOut_37.png,293,4.0,2.8986292000627145,,,052,10,2025-02-06_16h39.08.545,Surprise recog test,2023.1.3,60.03694671081082,
293,0,293,0,,,,,,,,,,,,,,,,,,,,,,,,,,,,,,,,,,1026.7489934000187,,1025.9044383000582,1025.9044383000582,1025.9044383000582,1025.9044383000582,new_sceneOut_48.png,294,4.0,0.8373492000391707,,,052,10,2025-02-06_16h39.08.545,Surprise recog test,2023.1.3,60.03694671081082,
294,0,294,0,,,,,,,,,,,,,,,,,,,,,,,,,,,,,,,,,,1028.830465200008,1029.84978769999,1027.7764729000628,1027.7764729000628,1027.7764729000628,1027.7764729000628,new_fruit_8.png,295,4.0,1.0554744999390095,,,052,10,2025-02-06_16h39.08.545,Surprise recog test,2023.1.3,60.03694671081082,
295,0,295,0,,,,,,,,,,,,,,,,,,,,,,,,,,,,,,,,,,1031.9725566999987,1032.9900622999994,1029.84978769999,1029.84978769999,1029.84978769999,1029.84978769999,old_stationery_18.png,296,1.0,2.1202667000470683,,,052,10,2025-02-06_16h39.08.545,Surprise recog test,2023.1.3,60.03694671081082,
296,0,296,0,,,,,,,,,,,,,,,,,,,,,,,,,,,,,,,,,,1034.9531264000107,1035.9580738000805,1032.9900622999994,1032.9900622999994,1032.9900622999994,1032.9900622999994,old_sceneOut_47.png,297,3.0,1.9588586000027135,,,052,10,2025-02-06_16h39.08.545,Surprise recog test,2023.1.3,60.03694671081082,
297,0,297,0,,,,,,,,,,,,,,,,,,,,,,,,,,,,,,,,,,1037.9213821999729,1038.9300003000535,1035.9580738000805,1035.9580738000805,1035.9580738000805,1035.9580738000805,old_sceneIn_45.png,298,2.0,1.9562948000384495,,,052,10,2025-02-06_16h39.08.545,Surprise recog test,2023.1.3,60.03694671081082,
298,0,298,0,,,,,,,,,,,,,,,,,,,,,,,,,,,,,,,,,,1041.544573900057,,1038.9300003000535,1038.9300003000535,1038.9300003000535,1038.9300003000535,old_sceneOut_28.png,299,5.0,2.610162000055425,,,052,10,2025-02-06_16h39.08.545,Surprise recog test,2023.1.3,60.03694671081082,
299,0,299,0,,,,,,,,,,,,,,,,,,,,,,,,,,,,,,,,,,1044.027450600057,1045.035277100047,1042.5764765000204,1042.5764765000204,1042.5764765000204,1042.5764765000204,new_fruit_39.png,300,3.0,1.4537081000162289,,,052,10,2025-02-06_16h39.08.545,Surprise recog test,2023.1.3,60.03694671081082,
300,0,300,0,,,,,,,,,,,,,,,,,,,,,,,,,,,,,,,,,,1045.880030500004,1046.8859817000339,1045.035277100047,1045.035277100047,1045.035277100047,1045.035277100047,old_sceneIn_3.png,301,4.0,0.8407337999669835,,,052,10,2025-02-06_16h39.08.545,Surprise recog test,2023.1.3,60.03694671081082,
301,0,301,0,,,,,,,,,,,,,,,,,,,,,,,,,,,,,,,,,,1047.5813157000812,,1046.8859817000339,1046.8859817000339,1046.8859817000339,1046.8859817000339,old_sceneOut_3.png,302,4.0,0.6910020000068471,,,052,10,2025-02-06_16h39.08.545,Surprise recog test,2023.1.3,60.03694671081082,
302,0,302,0,,,,,,,,,,,,,,,,,,,,,,,,,,,,,,,,,,1050.068210400059,,1048.6187702000607,1048.6187702000607,1048.6187702000607,1048.6187702000607,old_sceneIn_37.png,303,4.0,1.4500847000163049,,,052,10,2025-02-06_16h39.08.545,Surprise recog test,2023.1.3,60.03694671081082,
303,0,303,0,,,,,,,,,,,,,,,,,,,,,,,,,,,,,,,,,,1051.8519088000758,,1051.0891785999993,1051.0891785999993,1051.0891785999993,1051.0891785999993,new_sceneIn_26.png,304,4.0,0.758499399991706,,,052,10,2025-02-06_16h39.08.545,Surprise recog test,2023.1.3,60.03694671081082,
304,0,304,0,,,,,,,,,,,,,,,,,,,,,,,,,,,,,,,,,,1053.8560595000163,1054.8856362000806,1052.8836052999832,1052.8836052999832,1052.8836052999832,1052.8836052999832,old_fruit_31.png,305,4.0,0.9746021999744698,,,052,10,2025-02-06_16h39.08.545,Surprise recog test,2023.1.3,60.03694671081082,
305,0,305,0,,,,,,,,,,,,,,,,,,,,,,,,,,,,,,,,,,1056.0602413000306,1057.091186900041,1054.8856362000806,1054.8856362000806,1054.8856362000806,1054.8856362000806,new_fruit_40.png,306,2.0,1.1747912999708205,,,052,10,2025-02-06_16h39.08.545,Surprise recog test,2023.1.3,60.03694671081082,
306,0,306,0,,,,,,,,,,,,,,,,,,,,,,,,,,,,,,,,,,1058.9056596000446,1059.91379780008,1057.091186900041,1057.091186900041,1057.091186900041,1057.091186900041,old_sceneIn_6.png,307,4.0,1.8107068000826985,,,052,10,2025-02-06_16h39.08.545,Surprise recog test,2023.1.3,60.03694671081082,
307,0,307,0,,,,,,,,,,,,,,,,,,,,,,,,,,,,,,,,,,1061.0433705999749,,1059.91379780008,1059.91379780008,1059.91379780008,1059.91379780008,old_fruit_35.png,308,3.0,1.1254033000441268,,,052,10,2025-02-06_16h39.08.545,Surprise recog test,2023.1.3,60.03694671081082,
308,0,308,0,,,,,,,,,,,,,,,,,,,,,,,,,,,,,,,,,,1062.7594785999972,1063.7808429000434,1062.0800125000533,1062.0800125000533,1062.0800125000533,1062.0800125000533,new_sceneOut_21.png,309,4.0,0.6826017999555916,,,052,10,2025-02-06_16h39.08.545,Surprise recog test,2023.1.3,60.03694671081082,
309,0,309,0,,,,,,,,,,,,,,,,,,,,,,,,,,,,,,,,,,1064.2855058000423,1065.309917800012,1063.7808429000434,1063.7808429000434,1063.7808429000434,1063.7808429000434,new_sceneOut_40.png,310,4.0,0.5070965000195429,,,052,10,2025-02-06_16h39.08.545,Surprise recog test,2023.1.3,60.03694671081082,
310,0,310,0,,,,,,,,,,,,,,,,,,,,,,,,,,,,,,,,,,1066.699154800037,,1065.309917800012,1065.309917800012,1065.309917800012,1065.309917800012,old_sceneIn_28.png,311,4.0,1.3909241000656039,,,052,10,2025-02-06_16h39.08.545,Surprise recog test,2023.1.3,60.03694671081082,
311,0,311,0,,,,,,,,,,,,,,,,,,,,,,,,,,,,,,,,,,1069.7108282999834,1070.7304072000552,1067.731124300044,1067.731124300044,1067.731124300044,1067.731124300044,new_fruit_44.png,312,3.0,1.9805942999664694,,,052,10,2025-02-06_16h39.08.545,Surprise recog test,2023.1.3,60.03694671081082,
312,0,312,0,,,,,,,,,,,,,,,,,,,,,,,,,,,,,,,,,,1071.9102464000462,1072.9376048999839,1070.7304072000552,1070.7304072000552,1070.7304072000552,1070.7304072000552,old_stationery_41.png,313,2.0,1.1811539999907836,,,052,10,2025-02-06_16h39.08.545,Surprise recog test,2023.1.3,60.03694671081082,
313,0,313,0,,,,,,,,,,,,,,,,,,,,,,,,,,,,,,,,,,1073.9656093000667,1074.9759412000421,1072.9376048999839,1072.9376048999839,1072.9376048999839,1072.9376048999839,new_fruit_35.png,314,3.0,1.0296672999393195,,,052,10,2025-02-06_16h39.08.545,Surprise recog test,2023.1.3,60.03694671081082,
314,0,314,0,,,,,,,,,,,,,,,,,,,,,,,,,,,,,,,,,,1076.703499400057,1077.7240867000073,1074.9759412000421,1074.9759412000421,1074.9759412000421,1074.9759412000421,old_sceneOut_16.png,315,4.0,1.7178891999647021,,,052,10,2025-02-06_16h39.08.545,Surprise recog test,2023.1.3,60.03694671081082,
315,0,315,0,,,,,,,,,,,,,,,,,,,,,,,,,,,,,,,,,,1078.7177372999722,1079.7309907000745,1077.7240867000073,1077.7240867000073,1077.7240867000073,1077.7240867000073,old_sceneIn_12.png,316,4.0,0.99540260003414,,,052,10,2025-02-06_16h39.08.545,Surprise recog test,2023.1.3,60.03694671081082,
316,0,316,0,,,,,,,,,,,,,,,,,,,,,,,,,,,,,,,,,,1081.5128168000374,1082.545952500077,1079.7309907000745,1079.7309907000745,1079.7309907000745,1079.7309907000745,old_sceneIn_21.png,317,4.0,1.7767296000383794,,,052,10,2025-02-06_16h39.08.545,Surprise recog test,2023.1.3,60.03694671081082,
317,0,317,0,,,,,,,,,,,,,,,,,,,,,,,,,,,,,,,,,,1084.5087268999778,1085.5174855000805,1082.545952500077,1082.545952500077,1082.545952500077,1082.545952500077,new_fruit_10.png,318,4.0,1.9626056000124663,,,052,10,2025-02-06_16h39.08.545,Surprise recog test,2023.1.3,60.03694671081082,
318,0,318,0,,,,,,,,,,,,,,,,,,,,,,,,,,,,,,,,,,1087.0528400000185,1088.071570900036,1085.5174855000805,1085.5174855000805,1085.5174855000805,1085.5174855000805,new_stationery_14.png,319,2.0,1.5303501000162214,,,052,10,2025-02-06_16h39.08.545,Surprise recog test,2023.1.3,60.03694671081082,
319,0,319,0,,,,,,,,,,,,,,,,,,,,,,,,,,,,,,,,,,1089.3503265000181,,1088.071570900036,1088.071570900036,1088.071570900036,1088.071570900036,new_sceneOut_49.png,320,4.0,1.2744394999463111,,,052,10,2025-02-06_16h39.08.545,Surprise recog test,2023.1.3,60.03694671081082,
320,0,320,0,,,,,,,,,,,,,,,,,,,,,,,,,,,,,,,,,,1091.079176499974,1092.0887315999717,1090.3828083999688,1090.3828083999688,1090.3828083999688,1090.3828083999688,new_sceneOut_17.png,321,4.0,0.6986794000258669,,,052,10,2025-02-06_16h39.08.545,Surprise recog test,2023.1.3,60.03694671081082,
321,0,321,0,,,,,,,,,,,,,,,,,,,,,,,,,,,,,,,,,,1093.556162700057,1094.5867718000663,1092.0887315999717,1092.0887315999717,1092.0887315999717,1092.0887315999717,old_stationery_25.png,322,2.0,1.4623439999995753,,,052,10,2025-02-06_16h39.08.545,Surprise recog test,2023.1.3,60.03694671081082,
322,0,322,0,,,,,,,,,,,,,,,,,,,,,,,,,,,,,,,,,,1096.0555552999722,,1094.5867718000663,1094.5867718000663,1094.5867718000663,1094.5867718000663,old_sceneIn_26.png,323,4.0,1.471436299965717,,,052,10,2025-02-06_16h39.08.545,Surprise recog test,2023.1.3,60.03694671081082,
323,0,323,0,,,,,,,,,,,,,,,,,,,,,,,,,,,,,,,,,,1097.921239700052,1098.9268251999747,1097.091388800065,1097.091388800065,1097.091388800065,1097.091388800065,old_sceneOut_36.png,324,4.0,0.830942599917762,,,052,10,2025-02-06_16h39.08.545,Surprise recog test,2023.1.3,60.03694671081082,
324,0,324,0,,,,,,,,,,,,,,,,,,,,,,,,,,,,,,,,,,1100.10994200001,,1098.9268251999747,1098.9268251999747,1098.9268251999747,1098.9268251999747,new_stationery_24.png,325,1.0,1.179847399936989,,,052,10,2025-02-06_16h39.08.545,Surprise recog test,2023.1.3,60.03694671081082,
325,0,325,0,,,,,,,,,,,,,,,,,,,,,,,,,,,,,,,,,,1102.3879612999735,1103.3992631,1101.1300051000435,1101.1300051000435,1101.1300051000435,1101.1300051000435,new_stationery_43.png,326,3.0,1.2534151000436395,,,052,10,2025-02-06_16h39.08.545,Surprise recog test,2023.1.3,60.03694671081082,
326,0,326,0,,,,,,,,,,,,,,,,,,,,,,,,,,,,,,,,,,1104.2578820000635,1105.2743613000493,1103.3992631,1103.3992631,1103.3992631,1103.3992631,old_fruit_38.png,327,3.0,0.8522487999871373,,,052,10,2025-02-06_16h39.08.545,Surprise recog test,2023.1.3,60.03694671081082,
327,0,327,0,,,,,,,,,,,,,,,,,,,,,,,,,,,,,,,,,,1106.5046105000656,1107.5200026000384,1105.2743613000493,1105.2743613000493,1105.2743613000493,1105.2743613000493,old_sceneOut_22.png,328,4.0,1.2309113000519574,,,052,10,2025-02-06_16h39.08.545,Surprise recog test,2023.1.3,60.03694671081082,
328,0,328,0,,,,,,,,,,,,,,,,,,,,,,,,,,,,,,,,,,1108.3957935000071,1109.4113012000453,1107.5200026000384,1107.5200026000384,1107.5200026000384,1107.5200026000384,old_sceneIn_46.png,329,4.0,0.871425100020133,,,052,10,2025-02-06_16h39.08.545,Surprise recog test,2023.1.3,60.03694671081082,
329,0,329,0,,,,,,,,,,,,,,,,,,,,,,,,,,,,,,,,,,1110.114383700071,1111.1349645999726,1109.4113012000453,1109.4113012000453,1109.4113012000453,1109.4113012000453,new_sceneOut_9.png,330,4.0,0.7037010999629274,,,052,10,2025-02-06_16h39.08.545,Surprise recog test,2023.1.3,60.03694671081082,
330,0,330,0,,,,,,,,,,,,,,,,,,,,,,,,,,,,,,,,,,1111.9308857000433,1112.9540764000267,1111.1349645999726,1111.1349645999726,1111.1349645999726,1111.1349645999726,new_sceneIn_14.png,331,4.0,0.7955004000104964,,,052,10,2025-02-06_16h39.08.545,Surprise recog test,2023.1.3,60.03694671081082,
331,0,331,0,,,,,,,,,,,,,,,,,,,,,,,,,,,,,,,,,,1114.2947825000156,1115.321044899989,1112.9540764000267,1112.9540764000267,1112.9540764000267,1112.9540764000267,old_fruit_18.png,332,1.0,1.3429793999530375,,,052,10,2025-02-06_16h39.08.545,Surprise recog test,2023.1.3,60.03694671081082,
332,0,332,0,,,,,,,,,,,,,,,,,,,,,,,,,,,,,,,,,,1116.40326130006,1117.415663300082,1115.321044899989,1115.321044899989,1115.321044899989,1115.321044899989,old_fruit_12.png,333,1.0,1.0778617999749258,,,052,10,2025-02-06_16h39.08.545,Surprise recog test,2023.1.3,60.03694671081082,
333,0,333,0,,,,,,,,,,,,,,,,,,,,,,,,,,,,,,,,,,1119.043373499997,1120.0724968999857,1117.415663300082,1117.415663300082,1117.415663300082,1117.415663300082,old_stationery_47.png,334,3.0,1.628251999965869,,,052,10,2025-02-06_16h39.08.545,Surprise recog test,2023.1.3,60.03694671081082,
334,0,334,0,,,,,,,,,,,,,,,,,,,,,,,,,,,,,,,,,,1121.614739199984,1122.630425499985,1120.0724968999857,1120.0724968999857,1120.0724968999857,1120.0724968999857,new_fruit_24.png,335,4.0,1.5437595000257716,,,052,10,2025-02-06_16h39.08.545,Surprise recog test,2023.1.3,60.03694671081082,
335,0,335,0,,,,,,,,,,,,,,,,,,,,,,,,,,,,,,,,,,1125.503940399969,1126.5228250999935,1122.630425499985,1122.630425499985,1122.630425499985,1122.630425499985,old_fruit_24.png,336,4.0,2.8693028000416234,,,052,10,2025-02-06_16h39.08.545,Surprise recog test,2023.1.3,60.03694671081082,
336,0,336,0,,,,,,,,,,,,,,,,,,,,,,,,,,,,,,,,,,1128.5221309000626,1129.5438706000568,1126.5228250999935,1126.5228250999935,1126.5228250999935,1126.5228250999935,old_fruit_10.png,337,4.0,1.9963175000157207,,,052,10,2025-02-06_16h39.08.545,Surprise recog test,2023.1.3,60.03694671081082,
337,0,337,0,,,,,,,,,,,,,,,,,,,,,,,,,,,,,,,,,,1131.0183125999756,,1129.5438706000568,1129.5438706000568,1129.5438706000568,1129.5438706000568,old_sceneOut_40.png,338,4.0,1.4724586000666022,,,052,10,2025-02-06_16h39.08.545,Surprise recog test,2023.1.3,60.03694671081082,
338,0,338,0,,,,,,,,,,,,,,,,,,,,,,,,,,,,,,,,,,1133.5906936000101,1134.618578499998,1132.0528006000677,1132.0528006000677,1132.0528006000677,1132.0528006000677,new_fruit_33.png,339,2.0,1.5402333999518305,,,052,10,2025-02-06_16h39.08.545,Surprise recog test,2023.1.3,60.03694671081082,
339,0,339,0,,,,,,,,,,,,,,,,,,,,,,,,,,,,,,,,,,1135.5669483999955,1136.579548800015,1134.618578499998,1134.618578499998,1134.618578499998,1134.618578499998,old_fruit_43.png,340,2.0,0.9471940000075847,,,052,10,2025-02-06_16h39.08.545,Surprise recog test,2023.1.3,60.03694671081082,
340,0,340,0,,,,,,,,,,,,,,,,,,,,,,,,,,,,,,,,,,1137.6313902999973,1138.6483461000025,1136.579548800015,1136.579548800015,1136.579548800015,1136.579548800015,old_sceneOut_38.png,341,4.0,1.0488161001121625,,,052,10,2025-02-06_16h39.08.545,Surprise recog test,2023.1.3,60.03694671081082,
341,0,341,0,,,,,,,,,,,,,,,,,,,,,,,,,,,,,,,,,,1139.6431482000044,,1138.6483461000025,1138.6483461000025,1138.6483461000025,1138.6483461000025,new_sceneOut_24.png,342,4.0,0.9907285000663251,,,052,10,2025-02-06_16h39.08.545,Surprise recog test,2023.1.3,60.03694671081082,
342,0,342,0,,,,,,,,,,,,,,,,,,,,,,,,,,,,,,,,,,1141.878466000082,,1140.6751066000434,1140.6751066000434,1140.6751066000434,1140.6751066000434,old_stationery_4.png,343,2.0,1.2058034000219777,,,052,10,2025-02-06_16h39.08.545,Surprise recog test,2023.1.3,60.03694671081082,
343,0,343,0,,,,,,,,,,,,,,,,,,,,,,,,,,,,,,,,,,1144.2126196000027,,1142.9075505000073,1142.9075505000073,1142.9075505000073,1142.9075505000073,new_stationery_16.png,344,1.0,1.307618600083515,,,052,10,2025-02-06_16h39.08.545,Surprise recog test,2023.1.3,60.03694671081082,
344,0,344,0,,,,,,,,,,,,,,,,,,,,,,,,,,,,,,,,,,1146.7037013000809,1147.73127009999,1145.2468496999936,1145.2468496999936,1145.2468496999936,1145.2468496999936,new_sceneOut_7.png,345,4.0,1.4582218000432476,,,052,10,2025-02-06_16h39.08.545,Surprise recog test,2023.1.3,60.03694671081082,
345,0,345,0,,,,,,,,,,,,,,,,,,,,,,,,,,,,,,,,,,1148.296422500047,1149.3134147999808,1147.73127009999,1147.73127009999,1147.73127009999,1147.73127009999,old_sceneOut_18.png,346,4.0,0.5601298999972641,,,052,10,2025-02-06_16h39.08.545,Surprise recog test,2023.1.3,60.03694671081082,
346,0,346,0,,,,,,,,,,,,,,,,,,,,,,,,,,,,,,,,,,1149.865458699991,1150.8831539000385,1149.3134147999808,1149.3134147999808,1149.3134147999808,1149.3134147999808,old_sceneIn_10.png,347,4.0,0.5537523999810219,,,052,10,2025-02-06_16h39.08.545,Surprise recog test,2023.1.3,60.03694671081082,
347,0,347,0,,,,,,,,,,,,,,,,,,,,,,,,,,,,,,,,,,1151.6140873000259,1152.6359171000076,1150.8831539000385,1150.8831539000385,1150.8831539000385,1150.8831539000385,new_sceneOut_26.png,348,4.0,0.7324812000151724,,,052,10,2025-02-06_16h39.08.545,Surprise recog test,2023.1.3,60.03694671081082,
348,0,348,0,,,,,,,,,,,,,,,,,,,,,,,,,,,,,,,,,,1153.928655500058,1154.9422808000818,1152.6359171000076,1152.6359171000076,1152.6359171000076,1152.6359171000076,new_sceneOut_22.png,349,4.0,1.2908237999072298,,,052,10,2025-02-06_16h39.08.545,Surprise recog test,2023.1.3,60.03694671081082,
349,0,349,0,,,,,,,,,,,,,,,,,,,,,,,,,,,,,,,,,,1157.3706874999916,1158.3794203000143,1154.9422808000818,1154.9422808000818,1154.9422808000818,1154.9422808000818,new_stationery_6.png,350,4.0,2.425349900033325,,,052,10,2025-02-06_16h39.08.545,Surprise recog test,2023.1.3,60.03694671081082,
350,0,350,0,,,,,,,,,,,,,,,,,,,,,,,,,,,,,,,,,,1159.7663059000624,1160.7953746999847,1158.3794203000143,1158.3794203000143,1158.3794203000143,1158.3794203000143,new_sceneOut_10.png,351,4.0,1.381843899958767,,,052,10,2025-02-06_16h39.08.545,Surprise recog test,2023.1.3,60.03694671081082,
351,0,351,0,,,,,,,,,,,,,,,,,,,,,,,,,,,,,,,,,,1162.8487604000838,1163.867747600074,1160.7953746999847,1160.7953746999847,1160.7953746999847,1160.7953746999847,new_sceneOut_18.png,352,5.0,2.0544069000752643,,,052,10,2025-02-06_16h39.08.545,Surprise recog test,2023.1.3,60.03694671081082,
352,0,352,0,,,,,,,,,,,,,,,,,,,,,,,,,,,,,,,,,,1164.8235321000684,1165.8346126000397,1163.867747600074,1163.867747600074,1163.867747600074,1163.867747600074,old_sceneIn_8.png,353,5.0,0.9515704000368714,,,052,10,2025-02-06_16h39.08.545,Surprise recog test,2023.1.3,60.03694671081082,
353,0,353,0,,,,,,,,,,,,,,,,,,,,,,,,,,,,,,,,,,1166.8385758000659,1167.8629086000146,1165.8346126000397,1165.8346126000397,1165.8346126000397,1165.8346126000397,old_sceneIn_17.png,354,5.0,0.9873014999320731,,,052,10,2025-02-06_16h39.08.545,Surprise recog test,2023.1.3,60.03694671081082,
