trial_loop.thisRepN,trial_loop.thisTrialN,trial_loop.thisN,trial_loop.thisIndex,VAS_slider.started,VAS_text.started,VAS_notstressed_text.started,VAS_stressed_text.started,continue_input.started,continue_text.started,label0.started,label10.started,label20.started,label30.started,label40.started,label50.started,label60.started,label70.started,label80.started,label90.started,label100.started,VAS_slider.response,VAS_slider.rt,VAS_slider.history,Answer_VAS,continue_input.keys,instruction_text.started,continue_text_2.started,continue_input_2.started,continue_input_2.keys,continue_input_2.rt,continue_input_2.duration,example_text.started,example_slider_2.started,example_image.started,example_slider_2.response,example_slider_2.rt,fixcross.started,fixcross.stopped,front_square.started,stim_images.started,trial_inst_images.started,slider_images.started,thisImg,trial_count,slider_images.response,slider_images.rt,slider_images.stopped,outro.started,participant,condition,date,expName,psychopyVersion,frameRate,
,,,,193.4108156000002,193.4108156000002,193.4108156000002,193.4108156000002,193.4108156000002,193.4108156000002,193.4108156000002,193.4108156000002,193.4108156000002,193.4108156000002,193.4108156000002,193.4108156000002,193.4108156000002,193.4108156000002,193.4108156000002,193.4108156000002,193.4108156000002,0.07777777777777772,7.012377400009427,"[(0.07777777777777772, 7.012377400009427)]",0.07777777777777772,None,,,,,,,,,,,,,,,,,,,,,,,,054,10,2025-02-14_14h01.27.763,Surprise recog test,2023.1.3,59.94628812684629,
,,,,,,,,,,,,,,,,,,,,,,,,,,200.45624460000545,200.45624460000545,200.45624460000545,space,38.789335699999356,None,,,,,,,,,,,,,,,,,,054,10,2025-02-14_14h01.27.763,Surprise recog test,2023.1.3,59.94628812684629,
0,0,0,0,,,,,,,,,,,,,,,,,,,,,,,,,,,,,239.3787059000024,239.3787059000024,239.3787059000024,5.0,13.269300699990708,256.06323610000254,257.0854827000003,253.59946320000745,253.59946320000745,253.59946320000745,253.59946320000745,new_fruit_41.png,1,4.0,2.468196000001626,,,054,10,2025-02-14_14h01.27.763,Surprise recog test,2023.1.3,59.94628812684629,
1,0,1,0,,,,,,,,,,,,,,,,,,,,,,,,,,,,,,,,,,259.3187328000058,,257.0854827000003,257.0854827000003,257.0854827000003,257.0854827000003,old_fruit_24.png,2,3.0,2.234142500004964,,,054,10,2025-02-14_14h01.27.763,Surprise recog test,2023.1.3,59.94628812684629,
2,0,2,0,,,,,,,,,,,,,,,,,,,,,,,,,,,,,,,,,,261.911021500011,262.94567740001366,260.3534437000053,260.3534437000053,260.3534437000053,260.3534437000053,new_fruit_17.png,3,1.0,1.561243000003742,,,054,10,2025-02-14_14h01.27.763,Surprise recog test,2023.1.3,59.94628812684629,
3,0,3,0,,,,,,,,,,,,,,,,,,,,,,,,,,,,,,,,,,265.27062020001176,266.29708930000197,262.94567740001366,262.94567740001366,262.94567740001366,262.94567740001366,old_sceneOut_39.png,4,4.0,2.328351999996812,,,054,10,2025-02-14_14h01.27.763,Surprise recog test,2023.1.3,59.94628812684629,
4,0,4,0,,,,,,,,,,,,,,,,,,,,,,,,,,,,,,,,,,268.0900027000025,269.09618630001205,266.29708930000197,266.29708930000197,266.29708930000197,266.29708930000197,new_stationery_14.png,5,5.0,1.7947587999951793,,,054,10,2025-02-14_14h01.27.763,Surprise recog test,2023.1.3,59.94628812684629,
5,0,5,0,,,,,,,,,,,,,,,,,,,,,,,,,,,,,,,,,,271.0860764000099,272.1136256000027,269.09618630001205,269.09618630001205,269.09618630001205,269.09618630001205,old_sceneIn_43.png,6,5.0,1.9860252999933437,,,054,10,2025-02-14_14h01.27.763,Surprise recog test,2023.1.3,59.94628812684629,
6,0,6,0,,,,,,,,,,,,,,,,,,,,,,,,,,,,,,,,,,275.33584850000625,276.3535026000027,272.1136256000027,272.1136256000027,272.1136256000027,272.1136256000027,new_stationery_22.png,7,3.0,3.225533400007407,,,054,10,2025-02-14_14h01.27.763,Surprise recog test,2023.1.3,59.94628812684629,
7,0,7,0,,,,,,,,,,,,,,,,,,,,,,,,,,,,,,,,,,278.12682950000453,279.1483481000032,276.3535026000027,276.3535026000027,276.3535026000027,276.3535026000027,old_stationery_30.png,8,5.0,1.76817850000225,,,054,10,2025-02-14_14h01.27.763,Surprise recog test,2023.1.3,59.94628812684629,
8,0,8,0,,,,,,,,,,,,,,,,,,,,,,,,,,,,,,,,,,280.5469884000049,281.5637962000037,279.1483481000032,279.1483481000032,279.1483481000032,279.1483481000032,new_stationery_8.png,9,5.0,1.3965306999889435,,,054,10,2025-02-14_14h01.27.763,Surprise recog test,2023.1.3,59.94628812684629,
9,0,9,0,,,,,,,,,,,,,,,,,,,,,,,,,,,,,,,,,,282.7021298000036,283.71880010000314,281.5637962000037,281.5637962000037,281.5637962000037,281.5637962000037,new_sceneOut_17.png,10,5.0,1.1355213000060758,,,054,10,2025-02-14_14h01.27.763,Surprise recog test,2023.1.3,59.94628812684629,
10,0,10,0,,,,,,,,,,,,,,,,,,,,,,,,,,,,,,,,,,285.7822259000095,286.80748050000693,283.71880010000314,283.71880010000314,283.71880010000314,283.71880010000314,new_sceneOut_44.png,11,5.0,2.0653099000046495,,,054,10,2025-02-14_14h01.27.763,Surprise recog test,2023.1.3,59.94628812684629,
11,0,11,0,,,,,,,,,,,,,,,,,,,,,,,,,,,,,,,,,,288.61625060001097,289.6282870000141,286.80748050000693,286.80748050000693,286.80748050000693,286.80748050000693,new_stationery_21.png,12,5.0,1.809439900011057,,,054,10,2025-02-14_14h01.27.763,Surprise recog test,2023.1.3,59.94628812684629,
12,0,12,0,,,,,,,,,,,,,,,,,,,,,,,,,,,,,,,,,,291.3924687000108,292.3970962000021,289.6282870000141,289.6282870000141,289.6282870000141,289.6282870000141,old_sceneOut_9.png,13,5.0,1.7538013000012143,,,054,10,2025-02-14_14h01.27.763,Surprise recog test,2023.1.3,59.94628812684629,
13,0,13,0,,,,,,,,,,,,,,,,,,,,,,,,,,,,,,,,,,294.14479100001336,295.15092970000114,292.3970962000021,292.3970962000021,292.3970962000021,292.3970962000021,new_fruit_36.png,14,2.0,1.738202700013062,,,054,10,2025-02-14_14h01.27.763,Surprise recog test,2023.1.3,59.94628812684629,
14,0,14,0,,,,,,,,,,,,,,,,,,,,,,,,,,,,,,,,,,298.3396509000013,299.3575579000026,295.15092970000114,295.15092970000114,295.15092970000114,295.15092970000114,new_fruit_44.png,15,3.0,3.1869230999873253,,,054,10,2025-02-14_14h01.27.763,Surprise recog test,2023.1.3,59.94628812684629,
15,0,15,0,,,,,,,,,,,,,,,,,,,,,,,,,,,,,,,,,,301.2209814000089,,299.3575579000026,299.3575579000026,299.3575579000026,299.3575579000026,old_sceneIn_48.png,16,5.0,1.8623638999997638,,,054,10,2025-02-14_14h01.27.763,Surprise recog test,2023.1.3,59.94628812684629,
16,0,16,0,,,,,,,,,,,,,,,,,,,,,,,,,,,,,,,,,,304.4323752000055,305.45264110001153,302.2419734000141,302.2419734000141,302.2419734000141,302.2419734000141,new_sceneIn_14.png,17,5.0,2.1841840999986744,,,054,10,2025-02-14_14h01.27.763,Surprise recog test,2023.1.3,59.94628812684629,
17,0,17,0,,,,,,,,,,,,,,,,,,,,,,,,,,,,,,,,,,306.5718124000123,307.57646020001266,305.45264110001153,305.45264110001153,305.45264110001153,305.45264110001153,old_sceneIn_21.png,18,5.0,1.1183361999865156,,,054,10,2025-02-14_14h01.27.763,Surprise recog test,2023.1.3,59.94628812684629,
18,0,18,0,,,,,,,,,,,,,,,,,,,,,,,,,,,,,,,,,,310.6822627000074,311.71365550000337,307.57646020001266,307.57646020001266,307.57646020001266,307.57646020001266,old_fruit_3.png,19,3.0,3.101389300005394,,,054,10,2025-02-14_14h01.27.763,Surprise recog test,2023.1.3,59.94628812684629,
19,0,19,0,,,,,,,,,,,,,,,,,,,,,,,,,,,,,,,,,,313.64980660000583,314.66568689999986,311.71365550000337,311.71365550000337,311.71365550000337,311.71365550000337,old_sceneIn_31.png,20,5.0,1.9360558000043966,,,054,10,2025-02-14_14h01.27.763,Surprise recog test,2023.1.3,59.94628812684629,
20,0,20,0,,,,,,,,,,,,,,,,,,,,,,,,,,,,,,,,,,316.5698623000062,317.5910075000138,314.66568689999986,314.66568689999986,314.66568689999986,314.66568689999986,new_sceneIn_38.png,21,4.0,1.8998263999965275,,,054,10,2025-02-14_14h01.27.763,Surprise recog test,2023.1.3,59.94628812684629,
21,0,21,0,,,,,,,,,,,,,,,,,,,,,,,,,,,,,,,,,,318.94874210000853,319.95388130001083,317.5910075000138,317.5910075000138,317.5910075000138,317.5910075000138,old_fruit_48.png,22,2.0,1.3500250000070082,,,054,10,2025-02-14_14h01.27.763,Surprise recog test,2023.1.3,59.94628812684629,
22,0,22,0,,,,,,,,,,,,,,,,,,,,,,,,,,,,,,,,,,322.60789560001285,323.6378044000012,319.95388130001083,319.95388130001083,319.95388130001083,319.95388130001083,new_fruit_48.png,23,3.0,2.6490383000054862,,,054,10,2025-02-14_14h01.27.763,Surprise recog test,2023.1.3,59.94628812684629,
23,0,23,0,,,,,,,,,,,,,,,,,,,,,,,,,,,,,,,,,,325.8687823000073,326.8860918000137,323.6378044000012,323.6378044000012,323.6378044000012,323.6378044000012,new_sceneIn_6.png,24,5.0,2.2327386000106344,,,054,10,2025-02-14_14h01.27.763,Surprise recog test,2023.1.3,59.94628812684629,
24,0,24,0,,,,,,,,,,,,,,,,,,,,,,,,,,,,,,,,,,328.38537450000877,329.4109652000043,326.8860918000137,326.8860918000137,326.8860918000137,326.8860918000137,old_sceneOut_50.png,25,5.0,1.5005686999938916,,,054,10,2025-02-14_14h01.27.763,Surprise recog test,2023.1.3,59.94628812684629,
25,0,25,0,,,,,,,,,,,,,,,,,,,,,,,,,,,,,,,,,,332.14603900001384,,329.4109652000043,329.4109652000043,329.4109652000043,329.4109652000043,new_fruit_46.png,26,4.0,2.7351876000029733,,,054,10,2025-02-14_14h01.27.763,Surprise recog test,2023.1.3,59.94628812684629,
26,0,26,0,,,,,,,,,,,,,,,,,,,,,,,,,,,,,,,,,,334.70420960000774,335.7306772000011,333.1755031000066,333.1755031000066,333.1755031000066,333.1755031000066,old_sceneOut_29.png,27,5.0,1.5317554000066593,,,054,10,2025-02-14_14h01.27.763,Surprise recog test,2023.1.3,59.94628812684629,
27,0,27,0,,,,,,,,,,,,,,,,,,,,,,,,,,,,,,,,,,337.9276884000137,338.9522631,335.7306772000011,335.7306772000011,335.7306772000011,335.7306772000011,old_sceneOut_5.png,28,5.0,2.1956008999986807,,,054,10,2025-02-14_14h01.27.763,Surprise recog test,2023.1.3,59.94628812684629,
28,0,28,0,,,,,,,,,,,,,,,,,,,,,,,,,,,,,,,,,,342.4384351000044,,338.9522631,338.9522631,338.9522631,338.9522631,new_sceneIn_21.png,29,4.0,3.488508800001,,,054,10,2025-02-14_14h01.27.763,Surprise recog test,2023.1.3,59.94628812684629,
29,0,29,0,,,,,,,,,,,,,,,,,,,,,,,,,,,,,,,,,,345.222379800005,346.24030970000604,343.46000820001063,343.46000820001063,343.46000820001063,343.46000820001063,old_sceneOut_21.png,30,5.0,1.7569332999992184,,,054,10,2025-02-14_14h01.27.763,Surprise recog test,2023.1.3,59.94628812684629,
30,0,30,0,,,,,,,,,,,,,,,,,,,,,,,,,,,,,,,,,,348.33112470000924,349.34858240000904,346.24030970000604,346.24030970000604,346.24030970000604,346.24030970000604,old_stationery_47.png,31,2.0,2.09031149999646,,,054,10,2025-02-14_14h01.27.763,Surprise recog test,2023.1.3,59.94628812684629,
31,0,31,0,,,,,,,,,,,,,,,,,,,,,,,,,,,,,,,,,,350.9264578000002,351.9446893000131,349.34858240000904,349.34858240000904,349.34858240000904,349.34858240000904,new_sceneIn_39.png,32,5.0,1.5737762999924598,,,054,10,2025-02-14_14h01.27.763,Surprise recog test,2023.1.3,59.94628812684629,
32,0,32,0,,,,,,,,,,,,,,,,,,,,,,,,,,,,,,,,,,355.4881213000044,356.5148709000059,351.9446893000131,351.9446893000131,351.9446893000131,351.9446893000131,old_fruit_9.png,33,3.0,3.5459254999877885,,,054,10,2025-02-14_14h01.27.763,Surprise recog test,2023.1.3,59.94628812684629,
33,0,33,0,,,,,,,,,,,,,,,,,,,,,,,,,,,,,,,,,,360.01762600000075,361.03843570000026,356.5148709000059,356.5148709000059,356.5148709000059,356.5148709000059,new_stationery_16.png,34,4.0,3.504620599996997,,,054,10,2025-02-14_14h01.27.763,Surprise recog test,2023.1.3,59.94628812684629,
34,0,34,0,,,,,,,,,,,,,,,,,,,,,,,,,,,,,,,,,,362.70039910000924,363.70892470001127,361.03843570000026,361.03843570000026,361.03843570000026,361.03843570000026,old_sceneIn_26.png,35,5.0,1.6650495999929262,,,054,10,2025-02-14_14h01.27.763,Surprise recog test,2023.1.3,59.94628812684629,
35,0,35,0,,,,,,,,,,,,,,,,,,,,,,,,,,,,,,,,,,366.7326560000074,367.74660470000526,363.70892470001127,363.70892470001127,363.70892470001127,363.70892470001127,old_fruit_40.png,36,3.0,3.019765399993048,,,054,10,2025-02-14_14h01.27.763,Surprise recog test,2023.1.3,59.94628812684629,
36,0,36,0,,,,,,,,,,,,,,,,,,,,,,,,,,,,,,,,,,369.36540270000114,370.38777950000076,367.74660470000526,367.74660470000526,367.74660470000526,367.74660470000526,new_fruit_35.png,37,2.0,1.6148439999960829,,,054,10,2025-02-14_14h01.27.763,Surprise recog test,2023.1.3,59.94628812684629,
37,0,37,0,,,,,,,,,,,,,,,,,,,,,,,,,,,,,,,,,,372.0748091000132,373.08443840000837,370.38777950000076,370.38777950000076,370.38777950000076,370.38777950000076,old_stationery_48.png,38,1.0,1.6877332000003662,,,054,10,2025-02-14_14h01.27.763,Surprise recog test,2023.1.3,59.94628812684629,
38,0,38,0,,,,,,,,,,,,,,,,,,,,,,,,,,,,,,,,,,374.47090050000406,375.50019380000595,373.08443840000837,373.08443840000837,373.08443840000837,373.08443840000837,new_sceneOut_36.png,39,5.0,1.3793050999956904,,,054,10,2025-02-14_14h01.27.763,Surprise recog test,2023.1.3,59.94628812684629,
39,0,39,0,,,,,,,,,,,,,,,,,,,,,,,,,,,,,,,,,,376.7889940000023,377.8029638000007,375.50019380000595,375.50019380000595,375.50019380000595,375.50019380000595,old_sceneIn_12.png,40,5.0,1.2916766999987885,,,054,10,2025-02-14_14h01.27.763,Surprise recog test,2023.1.3,59.94628812684629,
40,0,40,0,,,,,,,,,,,,,,,,,,,,,,,,,,,,,,,,,,379.50472550000995,380.5230225000123,377.8029638000007,377.8029638000007,377.8029638000007,377.8029638000007,new_fruit_13.png,41,2.0,1.69516129999829,,,054,10,2025-02-14_14h01.27.763,Surprise recog test,2023.1.3,59.94628812684629,
41,0,41,0,,,,,,,,,,,,,,,,,,,,,,,,,,,,,,,,,,381.900990500013,382.9254482000106,380.5230225000123,380.5230225000123,380.5230225000123,380.5230225000123,old_fruit_38.png,42,1.0,1.3720253999927081,,,054,10,2025-02-14_14h01.27.763,Surprise recog test,2023.1.3,59.94628812684629,
42,0,42,0,,,,,,,,,,,,,,,,,,,,,,,,,,,,,,,,,,386.372973000005,387.38953160001256,382.9254482000106,382.9254482000106,382.9254482000106,382.9254482000106,new_stationery_20.png,43,4.0,3.4530180000001565,,,054,10,2025-02-14_14h01.27.763,Surprise recog test,2023.1.3,59.94628812684629,
43,0,43,0,,,,,,,,,,,,,,,,,,,,,,,,,,,,,,,,,,388.8250823000126,389.83176270000695,387.38953160001256,387.38953160001256,387.38953160001256,387.38953160001256,new_sceneIn_47.png,44,5.0,1.4374408000003314,,,054,10,2025-02-14_14h01.27.763,Surprise recog test,2023.1.3,59.94628812684629,
44,0,44,0,,,,,,,,,,,,,,,,,,,,,,,,,,,,,,,,,,391.1617261000065,,389.83176270000695,389.83176270000695,389.83176270000695,389.83176270000695,old_fruit_30.png,45,1.0,1.3251605000114068,,,054,10,2025-02-14_14h01.27.763,Surprise recog test,2023.1.3,59.94628812684629,
45,0,45,0,,,,,,,,,,,,,,,,,,,,,,,,,,,,,,,,,,394.58570840000175,395.6144404000079,392.1801869000046,392.1801869000046,392.1801869000046,392.1801869000046,new_sceneOut_6.png,46,5.0,2.400009000004502,,,054,10,2025-02-14_14h01.27.763,Surprise recog test,2023.1.3,59.94628812684629,
46,0,46,0,,,,,,,,,,,,,,,,,,,,,,,,,,,,,,,,,,397.46536560000095,398.48022760001186,395.6144404000079,395.6144404000079,395.6144404000079,395.6144404000079,old_stationery_32.png,47,4.0,1.8526684000098612,,,054,10,2025-02-14_14h01.27.763,Surprise recog test,2023.1.3,59.94628812684629,
47,0,47,0,,,,,,,,,,,,,,,,,,,,,,,,,,,,,,,,,,399.7728068000142,400.79463800000667,398.48022760001186,398.48022760001186,398.48022760001186,398.48022760001186,old_fruit_27.png,48,1.0,1.2916821999970125,,,054,10,2025-02-14_14h01.27.763,Surprise recog test,2023.1.3,59.94628812684629,
48,0,48,0,,,,,,,,,,,,,,,,,,,,,,,,,,,,,,,,,,403.103537700008,404.12328790000174,400.79463800000667,400.79463800000667,400.79463800000667,400.79463800000667,old_sceneIn_4.png,49,5.0,2.3094195000012405,,,054,10,2025-02-14_14h01.27.763,Surprise recog test,2023.1.3,59.94628812684629,
49,0,49,0,,,,,,,,,,,,,,,,,,,,,,,,,,,,,,,,,,405.64647750000586,406.674516900006,404.12328790000174,404.12328790000174,404.12328790000174,404.12328790000174,old_stationery_8.png,50,1.0,1.5262277000001632,,,054,10,2025-02-14_14h01.27.763,Surprise recog test,2023.1.3,59.94628812684629,
50,0,50,0,,,,,,,,,,,,,,,,,,,,,,,,,,,,,,,,,,408.3897680000082,409.4030580000108,406.674516900006,406.674516900006,406.674516900006,406.674516900006,new_stationery_19.png,51,4.0,1.7105072999984259,,,054,10,2025-02-14_14h01.27.763,Surprise recog test,2023.1.3,59.94628812684629,
51,0,51,0,,,,,,,,,,,,,,,,,,,,,,,,,,,,,,,,,,411.0593489000021,412.0669843000069,409.4030580000108,409.4030580000108,409.4030580000108,409.4030580000108,new_stationery_28.png,52,4.0,1.6565904000017326,,,054,10,2025-02-14_14h01.27.763,Surprise recog test,2023.1.3,59.94628812684629,
52,0,52,0,,,,,,,,,,,,,,,,,,,,,,,,,,,,,,,,,,413.55524260000675,414.57657480001217,412.0669843000069,412.0669843000069,412.0669843000069,412.0669843000069,new_sceneIn_30.png,53,5.0,1.4840946999902371,,,054,10,2025-02-14_14h01.27.763,Surprise recog test,2023.1.3,59.94628812684629,
53,0,53,0,,,,,,,,,,,,,,,,,,,,,,,,,,,,,,,,,,417.86524360001204,418.8855736000114,414.57657480001217,414.57657480001217,414.57657480001217,414.57657480001217,new_stationery_5.png,54,3.0,3.2871194000035757,,,054,10,2025-02-14_14h01.27.763,Surprise recog test,2023.1.3,59.94628812684629,
54,0,54,0,,,,,,,,,,,,,,,,,,,,,,,,,,,,,,,,,,422.316519400003,423.337030900002,418.8855736000114,418.8855736000114,418.8855736000114,418.8855736000114,old_fruit_16.png,55,3.0,3.4339554000034695,,,054,10,2025-02-14_14h01.27.763,Surprise recog test,2023.1.3,59.94628812684629,
55,0,55,0,,,,,,,,,,,,,,,,,,,,,,,,,,,,,,,,,,424.83054160000756,425.8589029000141,423.337030900002,423.337030900002,423.337030900002,423.337030900002,new_fruit_39.png,56,2.0,1.496215299994219,,,054,10,2025-02-14_14h01.27.763,Surprise recog test,2023.1.3,59.94628812684629,
56,0,56,0,,,,,,,,,,,,,,,,,,,,,,,,,,,,,,,,,,429.03086900000926,430.0500662000122,425.8589029000141,425.8589029000141,425.8589029000141,425.8589029000141,old_sceneOut_13.png,57,4.0,3.176394699999946,,,054,10,2025-02-14_14h01.27.763,Surprise recog test,2023.1.3,59.94628812684629,
57,0,57,0,,,,,,,,,,,,,,,,,,,,,,,,,,,,,,,,,,431.6954845,,430.0500662000122,430.0500662000122,430.0500662000122,430.0500662000122,new_sceneOut_9.png,58,5.0,1.6377708000072744,,,054,10,2025-02-14_14h01.27.763,Surprise recog test,2023.1.3,59.94628812684629,
58,0,58,0,,,,,,,,,,,,,,,,,,,,,,,,,,,,,,,,,,436.36572650000744,,432.71735590000753,432.71735590000753,432.71735590000753,432.71735590000753,new_sceneOut_34.png,59,3.0,3.645277499992517,,,054,10,2025-02-14_14h01.27.763,Surprise recog test,2023.1.3,59.94628812684629,
59,0,59,0,,,,,,,,,,,,,,,,,,,,,,,,,,,,,,,,,,439.48437470001227,,437.4059852000064,437.4059852000064,437.4059852000064,437.4059852000064,old_stationery_4.png,60,3.0,2.083420800001477,,,054,10,2025-02-14_14h01.27.763,Surprise recog test,2023.1.3,59.94628812684629,
60,0,60,0,,,,,,,,,,,,,,,,,,,,,,,,,,,,,,,,,,442.050916600012,443.07650670000294,440.51480980000633,440.51480980000633,440.51480980000633,440.51480980000633,new_stationery_42.png,61,5.0,1.5335878000041703,,,054,10,2025-02-14_14h01.27.763,Surprise recog test,2023.1.3,59.94628812684629,
61,0,61,0,,,,,,,,,,,,,,,,,,,,,,,,,,,,,,,,,,445.30063170001085,446.3196994000027,443.07650670000294,443.07650670000294,443.07650670000294,443.07650670000294,new_sceneOut_15.png,62,5.0,2.2255212999880314,,,054,10,2025-02-14_14h01.27.763,Surprise recog test,2023.1.3,59.94628812684629,
62,0,62,0,,,,,,,,,,,,,,,,,,,,,,,,,,,,,,,,,,447.6293896000134,448.66188740001235,446.3196994000027,446.3196994000027,446.3196994000027,446.3196994000027,old_sceneOut_38.png,63,5.0,1.3103800999961095,,,054,10,2025-02-14_14h01.27.763,Surprise recog test,2023.1.3,59.94628812684629,
63,0,63,0,,,,,,,,,,,,,,,,,,,,,,,,,,,,,,,,,,450.66330910001125,451.69798860000446,448.66188740001235,448.66188740001235,448.66188740001235,448.66188740001235,new_sceneOut_30.png,64,4.0,2.0042100999999093,,,054,10,2025-02-14_14h01.27.763,Surprise recog test,2023.1.3,59.94628812684629,
64,0,64,0,,,,,,,,,,,,,,,,,,,,,,,,,,,,,,,,,,455.13686790000065,456.17407620001177,451.69798860000446,451.69798860000446,451.69798860000446,451.69798860000446,old_sceneOut_6.png,65,4.0,3.441231599994353,,,054,10,2025-02-14_14h01.27.763,Surprise recog test,2023.1.3,59.94628812684629,
65,0,65,0,,,,,,,,,,,,,,,,,,,,,,,,,,,,,,,,,,457.3804722000059,458.397979500005,456.17407620001177,456.17407620001177,456.17407620001177,456.17407620001177,old_sceneIn_23.png,66,5.0,1.2078523000091081,,,054,10,2025-02-14_14h01.27.763,Surprise recog test,2023.1.3,59.94628812684629,
66,0,66,0,,,,,,,,,,,,,,,,,,,,,,,,,,,,,,,,,,459.73885240001255,460.76901120001276,458.397979500005,458.397979500005,458.397979500005,458.397979500005,old_sceneIn_50.png,67,5.0,1.3422903999889968,,,054,10,2025-02-14_14h01.27.763,Surprise recog test,2023.1.3,59.94628812684629,
67,0,67,0,,,,,,,,,,,,,,,,,,,,,,,,,,,,,,,,,,462.19608130000415,463.2165928000031,460.76901120001276,460.76901120001276,460.76901120001276,460.76901120001276,new_fruit_34.png,68,2.0,1.4300534999929368,,,054,10,2025-02-14_14h01.27.763,Surprise recog test,2023.1.3,59.94628812684629,
68,0,68,0,,,,,,,,,,,,,,,,,,,,,,,,,,,,,,,,,,464.59391230001347,465.6221493000048,463.2165928000031,463.2165928000031,463.2165928000031,463.2165928000031,new_sceneIn_17.png,69,5.0,1.3754822999908356,,,054,10,2025-02-14_14h01.27.763,Surprise recog test,2023.1.3,59.94628812684629,
69,0,69,0,,,,,,,,,,,,,,,,,,,,,,,,,,,,,,,,,,467.1490734000108,468.18645750000724,465.6221493000048,465.6221493000048,465.6221493000048,465.6221493000048,old_sceneOut_33.png,70,5.0,1.5264134999888483,,,054,10,2025-02-14_14h01.27.763,Surprise recog test,2023.1.3,59.94628812684629,
70,0,70,0,,,,,,,,,,,,,,,,,,,,,,,,,,,,,,,,,,470.24104310000257,471.24913430000015,468.18645750000724,468.18645750000724,468.18645750000724,468.18645750000724,new_stationery_34.png,71,1.0,2.057583000001614,,,054,10,2025-02-14_14h01.27.763,Surprise recog test,2023.1.3,59.94628812684629,
71,0,71,0,,,,,,,,,,,,,,,,,,,,,,,,,,,,,,,,,,472.9411405000137,473.95918960000563,471.24913430000015,471.24913430000015,471.24913430000015,471.24913430000015,old_sceneOut_17.png,72,4.0,1.6858338000020012,,,054,10,2025-02-14_14h01.27.763,Surprise recog test,2023.1.3,59.94628812684629,
72,0,72,0,,,,,,,,,,,,,,,,,,,,,,,,,,,,,,,,,,476.20285500001046,477.23302230000263,473.95918960000563,473.95918960000563,473.95918960000563,473.95918960000563,old_stationery_23.png,73,4.0,2.2461582999967504,,,054,10,2025-02-14_14h01.27.763,Surprise recog test,2023.1.3,59.94628812684629,
73,0,73,0,,,,,,,,,,,,,,,,,,,,,,,,,,,,,,,,,,480.99216100000194,482.0213389000128,477.23302230000263,477.23302230000263,477.23302230000263,477.23302230000263,old_fruit_6.png,74,3.0,3.7610492999956477,,,054,10,2025-02-14_14h01.27.763,Surprise recog test,2023.1.3,59.94628812684629,
74,0,74,0,,,,,,,,,,,,,,,,,,,,,,,,,,,,,,,,,,484.25291220001236,485.26209990000643,482.0213389000128,482.0213389000128,482.0213389000128,482.0213389000128,new_sceneOut_40.png,75,4.0,2.2288619999890216,,,054,10,2025-02-14_14h01.27.763,Surprise recog test,2023.1.3,59.94628812684629,
75,0,75,0,,,,,,,,,,,,,,,,,,,,,,,,,,,,,,,,,,486.4864177000127,487.5030608000088,485.26209990000643,485.26209990000643,485.26209990000643,485.26209990000643,old_sceneIn_49.png,76,5.0,1.2231136999907903,,,054,10,2025-02-14_14h01.27.763,Surprise recog test,2023.1.3,59.94628812684629,
76,0,76,0,,,,,,,,,,,,,,,,,,,,,,,,,,,,,,,,,,489.2957514000009,490.31783610000275,487.5030608000088,487.5030608000088,487.5030608000088,487.5030608000088,new_fruit_26.png,77,2.0,1.7951035000005504,,,054,10,2025-02-14_14h01.27.763,Surprise recog test,2023.1.3,59.94628812684629,
77,0,77,0,,,,,,,,,,,,,,,,,,,,,,,,,,,,,,,,,,491.6840321000054,492.7120894000109,490.31783610000275,490.31783610000275,490.31783610000275,490.31783610000275,new_sceneIn_25.png,78,5.0,1.3660802999947919,,,054,10,2025-02-14_14h01.27.763,Surprise recog test,2023.1.3,59.94628812684629,
78,0,78,0,,,,,,,,,,,,,,,,,,,,,,,,,,,,,,,,,,496.28572270000586,497.3034553000034,492.7120894000109,492.7120894000109,492.7120894000109,492.7120894000109,new_stationery_45.png,79,5.0,3.575298000010662,,,054,10,2025-02-14_14h01.27.763,Surprise recog test,2023.1.3,59.94628812684629,
79,0,79,0,,,,,,,,,,,,,,,,,,,,,,,,,,,,,,,,,,499.72387020000315,500.74003120001,497.3034553000034,497.3034553000034,497.3034553000034,497.3034553000034,old_sceneOut_20.png,80,5.0,2.4167130999994697,,,054,10,2025-02-14_14h01.27.763,Surprise recog test,2023.1.3,59.94628812684629,
80,0,80,0,,,,,,,,,,,,,,,,,,,,,,,,,,,,,,,,,,502.0838683000038,503.08874350000406,500.74003120001,500.74003120001,500.74003120001,500.74003120001,new_sceneOut_14.png,81,5.0,1.336620900008711,,,054,10,2025-02-14_14h01.27.763,Surprise recog test,2023.1.3,59.94628812684629,
81,0,81,0,,,,,,,,,,,,,,,,,,,,,,,,,,,,,,,,,,504.6863350000058,505.71235400000296,503.08874350000406,503.08874350000406,503.08874350000406,503.08874350000406,new_stationery_41.png,82,4.0,1.5931548999942606,,,054,10,2025-02-14_14h01.27.763,Surprise recog test,2023.1.3,59.94628812684629,
82,0,82,0,,,,,,,,,,,,,,,,,,,,,,,,,,,,,,,,,,507.0397540000122,508.0536815000087,505.71235400000296,505.71235400000296,505.71235400000296,505.71235400000296,new_sceneIn_46.png,83,5.0,1.3315908000076888,,,054,10,2025-02-14_14h01.27.763,Surprise recog test,2023.1.3,59.94628812684629,
83,0,83,0,,,,,,,,,,,,,,,,,,,,,,,,,,,,,,,,,,510.33623750001425,511.3641179000115,508.0536815000087,508.0536815000087,508.0536815000087,508.0536815000087,old_sceneOut_47.png,84,5.0,2.278346600010991,,,054,10,2025-02-14_14h01.27.763,Surprise recog test,2023.1.3,59.94628812684629,
84,0,84,0,,,,,,,,,,,,,,,,,,,,,,,,,,,,,,,,,,513.0432137000025,514.0515647000138,511.3641179000115,511.3641179000115,511.3641179000115,511.3641179000115,new_sceneOut_41.png,85,4.0,1.6759978000045521,,,054,10,2025-02-14_14h01.27.763,Surprise recog test,2023.1.3,59.94628812684629,
85,0,85,0,,,,,,,,,,,,,,,,,,,,,,,,,,,,,,,,,,515.4674273000128,516.4869432000123,514.0515647000138,514.0515647000138,514.0515647000138,514.0515647000138,old_sceneIn_47.png,86,5.0,1.4118675999925472,,,054,10,2025-02-14_14h01.27.763,Surprise recog test,2023.1.3,59.94628812684629,
86,0,86,0,,,,,,,,,,,,,,,,,,,,,,,,,,,,,,,,,,518.5665893000114,,516.4869432000123,516.4869432000123,516.4869432000123,516.4869432000123,new_sceneIn_20.png,87,5.0,2.0755840000056196,,,054,10,2025-02-14_14h01.27.763,Surprise recog test,2023.1.3,59.94628812684629,
87,0,87,0,,,,,,,,,,,,,,,,,,,,,,,,,,,,,,,,,,521.2663223000127,522.2882385000121,519.5950868000073,519.5950868000073,519.5950868000073,519.5950868000073,new_fruit_5.png,88,3.0,1.6702218000136781,,,054,10,2025-02-14_14h01.27.763,Surprise recog test,2023.1.3,59.94628812684629,
88,0,88,0,,,,,,,,,,,,,,,,,,,,,,,,,,,,,,,,,,523.9951607000112,525.0203729000059,522.2882385000121,522.2882385000121,522.2882385000121,522.2882385000121,old_sceneOut_36.png,89,4.0,1.7064079999981914,,,054,10,2025-02-14_14h01.27.763,Surprise recog test,2023.1.3,59.94628812684629,
89,0,89,0,,,,,,,,,,,,,,,,,,,,,,,,,,,,,,,,,,526.9810189000127,528.0077323000005,525.0203729000059,525.0203729000059,525.0203729000059,525.0203729000059,old_sceneIn_10.png,90,1.0,1.9631793000007747,,,054,10,2025-02-14_14h01.27.763,Surprise recog test,2023.1.3,59.94628812684629,
90,0,90,0,,,,,,,,,,,,,,,,,,,,,,,,,,,,,,,,,,530.8091322000109,531.8223978000024,528.0077323000005,528.0077323000005,528.0077323000005,528.0077323000005,old_fruit_17.png,91,3.0,2.802566400001524,,,054,10,2025-02-14_14h01.27.763,Surprise recog test,2023.1.3,59.94628812684629,
91,0,91,0,,,,,,,,,,,,,,,,,,,,,,,,,,,,,,,,,,533.2839048000023,534.3009531000134,531.8223978000024,531.8223978000024,531.8223978000024,531.8223978000024,new_stationery_46.png,92,5.0,1.4620238000061363,,,054,10,2025-02-14_14h01.27.763,Surprise recog test,2023.1.3,59.94628812684629,
92,0,92,0,,,,,,,,,,,,,,,,,,,,,,,,,,,,,,,,,,536.4999393000035,,534.3009531000134,534.3009531000134,534.3009531000134,534.3009531000134,old_stationery_25.png,93,4.0,2.1940030999976443,,,054,10,2025-02-14_14h01.27.763,Surprise recog test,2023.1.3,59.94628812684629,
93,0,93,0,,,,,,,,,,,,,,,,,,,,,,,,,,,,,,,,,,541.0164593000081,542.0240339000011,537.5244531000062,537.5244531000062,537.5244531000062,537.5244531000062,new_stationery_17.png,94,4.0,3.484628200007137,,,054,10,2025-02-14_14h01.27.763,Surprise recog test,2023.1.3,59.94628812684629,
94,0,94,0,,,,,,,,,,,,,,,,,,,,,,,,,,,,,,,,,,545.1272530000133,546.145242300001,542.0240339000011,542.0240339000011,542.0240339000011,542.0240339000011,new_fruit_4.png,95,2.0,3.099375299992971,,,054,10,2025-02-14_14h01.27.763,Surprise recog test,2023.1.3,59.94628812684629,
95,0,95,0,,,,,,,,,,,,,,,,,,,,,,,,,,,,,,,,,,549.806390200014,550.8249541000114,546.145242300001,546.145242300001,546.145242300001,546.145242300001,new_fruit_15.png,96,3.0,3.657269200004521,,,054,10,2025-02-14_14h01.27.763,Surprise recog test,2023.1.3,59.94628812684629,
96,0,96,0,,,,,,,,,,,,,,,,,,,,,,,,,,,,,,,,,,552.656083000009,553.6742345000093,550.8249541000114,550.8249541000114,550.8249541000114,550.8249541000114,new_stationery_7.png,97,3.0,1.8336069000069983,,,054,10,2025-02-14_14h01.27.763,Surprise recog test,2023.1.3,59.94628812684629,
97,0,97,0,,,,,,,,,,,,,,,,,,,,,,,,,,,,,,,,,,555.1619473000028,556.1704593000031,553.6742345000093,553.6742345000093,553.6742345000093,553.6742345000093,new_stationery_50.png,98,4.0,1.4857514999894192,,,054,10,2025-02-14_14h01.27.763,Surprise recog test,2023.1.3,59.94628812684629,
98,0,98,0,,,,,,,,,,,,,,,,,,,,,,,,,,,,,,,,,,557.5322248000011,,556.1704593000031,556.1704593000031,556.1704593000031,556.1704593000031,old_sceneIn_29.png,99,5.0,1.3571853000030387,,,054,10,2025-02-14_14h01.27.763,Surprise recog test,2023.1.3,59.94628812684629,
99,0,99,0,,,,,,,,,,,,,,,,,,,,,,,,,,,,,,,,,,560.9662055000081,561.9706487000076,558.5586851000116,558.5586851000116,558.5586851000116,558.5586851000116,old_fruit_18.png,100,3.0,2.4092256000003545,,,054,10,2025-02-14_14h01.27.763,Surprise recog test,2023.1.3,59.94628812684629,
100,0,100,0,,,,,,,,,,,,,,,,,,,,,,,,,,,,,,,,,,563.3272171000135,564.3543778000021,561.9706487000076,561.9706487000076,561.9706487000076,561.9706487000076,new_sceneOut_48.png,101,5.0,1.3528131000057328,,,054,10,2025-02-14_14h01.27.763,Surprise recog test,2023.1.3,59.94628812684629,
101,0,101,0,,,,,,,,,,,,,,,,,,,,,,,,,,,,,,,,,,566.94401810001,567.9626072000101,564.3543778000021,564.3543778000021,564.3543778000021,564.3543778000021,new_fruit_29.png,102,4.0,2.5916288000007626,,,054,10,2025-02-14_14h01.27.763,Surprise recog test,2023.1.3,59.94628812684629,
102,0,102,0,,,,,,,,,,,,,,,,,,,,,,,,,,,,,,,,,,569.575728900003,,567.9626072000101,567.9626072000101,567.9626072000101,567.9626072000101,new_fruit_11.png,103,3.0,1.6089357000018936,,,054,10,2025-02-14_14h01.27.763,Surprise recog test,2023.1.3,59.94628812684629,
103,0,103,0,,,,,,,,,,,,,,,,,,,,,,,,,,,,,,,,,,572.5316286000016,573.5655456000095,570.6085943000071,570.6085943000071,570.6085943000071,570.6085943000071,old_stationery_37.png,104,5.0,1.924217799998587,,,054,10,2025-02-14_14h01.27.763,Surprise recog test,2023.1.3,59.94628812684629,
104,0,104,0,,,,,,,,,,,,,,,,,,,,,,,,,,,,,,,,,,575.278659100004,576.2862941000058,573.5655456000095,573.5655456000095,573.5655456000095,573.5655456000095,old_sceneIn_42.png,105,5.0,1.7165856000065105,,,054,10,2025-02-14_14h01.27.763,Surprise recog test,2023.1.3,59.94628812684629,
105,0,105,0,,,,,,,,,,,,,,,,,,,,,,,,,,,,,,,,,,578.2705452000082,579.3030425000034,576.2862941000058,576.2862941000058,576.2862941000058,576.2862941000058,old_stationery_14.png,106,3.0,1.9779923999885796,,,054,10,2025-02-14_14h01.27.763,Surprise recog test,2023.1.3,59.94628812684629,
106,0,106,0,,,,,,,,,,,,,,,,,,,,,,,,,,,,,,,,,,584.2833761000074,,579.3030425000034,579.3030425000034,579.3030425000034,579.3030425000034,new_sceneIn_24.png,107,None,None,,,054,10,2025-02-14_14h01.27.763,Surprise recog test,2023.1.3,59.94628812684629,
107,0,107,0,,,,,,,,,,,,,,,,,,,,,,,,,,,,,,,,,,588.3094429000048,,585.3039456000115,585.3039456000115,585.3039456000115,585.3039456000115,new_fruit_20.png,108,3.0,3.007245500004501,,,054,10,2025-02-14_14h01.27.763,Surprise recog test,2023.1.3,59.94628812684629,
108,0,108,0,,,,,,,,,,,,,,,,,,,,,,,,,,,,,,,,,,592.3256733000017,593.3455967000045,589.3301784000068,589.3301784000068,589.3301784000068,589.3301784000068,new_fruit_6.png,109,2.0,2.9847799000126543,,,054,10,2025-02-14_14h01.27.763,Surprise recog test,2023.1.3,59.94628812684629,
109,0,109,0,,,,,,,,,,,,,,,,,,,,,,,,,,,,,,,,,,596.1342177000042,597.1659454000037,593.3455967000045,593.3455967000045,593.3455967000045,593.3455967000045,old_fruit_23.png,110,3.0,2.791043399993214,,,054,10,2025-02-14_14h01.27.763,Surprise recog test,2023.1.3,59.94628812684629,
110,0,110,0,,,,,,,,,,,,,,,,,,,,,,,,,,,,,,,,,,599.1980245000013,600.2175706000126,597.1659454000037,597.1659454000037,597.1659454000037,597.1659454000037,new_sceneOut_24.png,111,5.0,2.029799900003127,,,054,10,2025-02-14_14h01.27.763,Surprise recog test,2023.1.3,59.94628812684629,
111,0,111,0,,,,,,,,,,,,,,,,,,,,,,,,,,,,,,,,,,603.6050608000078,,600.2175706000126,600.2175706000126,600.2175706000126,600.2175706000126,old_fruit_36.png,112,4.0,3.3904809999949066,,,054,10,2025-02-14_14h01.27.763,Surprise recog test,2023.1.3,59.94628812684629,
112,0,112,0,,,,,,,,,,,,,,,,,,,,,,,,,,,,,,,,,,606.0303578000021,607.0455236000125,604.6349105000118,604.6349105000118,604.6349105000118,604.6349105000118,old_fruit_2.png,113,1.0,1.3958142000046792,,,054,10,2025-02-14_14h01.27.763,Surprise recog test,2023.1.3,59.94628812684629,
113,0,113,0,,,,,,,,,,,,,,,,,,,,,,,,,,,,,,,,,,609.0162404000002,610.0433635000081,607.0455236000125,607.0455236000125,607.0455236000125,607.0455236000125,new_sceneOut_4.png,114,5.0,1.965969299999415,,,054,10,2025-02-14_14h01.27.763,Surprise recog test,2023.1.3,59.94628812684629,
114,0,114,0,,,,,,,,,,,,,,,,,,,,,,,,,,,,,,,,,,611.4180544000119,612.4460097000119,610.0433635000081,610.0433635000081,610.0433635000081,610.0433635000081,new_sceneIn_49.png,115,5.0,1.3780480999994325,,,054,10,2025-02-14_14h01.27.763,Surprise recog test,2023.1.3,59.94628812684629,
115,0,115,0,,,,,,,,,,,,,,,,,,,,,,,,,,,,,,,,,,614.0394719000033,615.0719607000065,612.4460097000119,612.4460097000119,612.4460097000119,612.4460097000119,new_fruit_9.png,116,2.0,1.5937848999892594,,,054,10,2025-02-14_14h01.27.763,Surprise recog test,2023.1.3,59.94628812684629,
116,0,116,0,,,,,,,,,,,,,,,,,,,,,,,,,,,,,,,,,,616.712136400005,617.7334819000098,615.0719607000065,615.0719607000065,615.0719607000065,615.0719607000065,new_sceneIn_44.png,117,5.0,1.64195629999449,,,054,10,2025-02-14_14h01.27.763,Surprise recog test,2023.1.3,59.94628812684629,
117,0,117,0,,,,,,,,,,,,,,,,,,,,,,,,,,,,,,,,,,619.2344896000141,,617.7334819000098,617.7334819000098,617.7334819000098,617.7334819000098,new_fruit_2.png,118,1.0,1.4997848000057274,,,054,10,2025-02-14_14h01.27.763,Surprise recog test,2023.1.3,59.94628812684629,
118,0,118,0,,,,,,,,,,,,,,,,,,,,,,,,,,,,,,,,,,622.3403208000091,623.3546640000131,620.2653179000044,620.2653179000044,620.2653179000044,620.2653179000044,new_fruit_32.png,119,3.0,2.0743766000086907,,,054,10,2025-02-14_14h01.27.763,Surprise recog test,2023.1.3,59.94628812684629,
119,0,119,0,,,,,,,,,,,,,,,,,,,,,,,,,,,,,,,,,,625.6811317000102,626.6912375000102,623.3546640000131,623.3546640000131,623.3546640000131,623.3546640000131,new_stationery_27.png,120,4.0,2.3227679999981774,,,054,10,2025-02-14_14h01.27.763,Surprise recog test,2023.1.3,59.94628812684629,
120,0,120,0,,,,,,,,,,,,,,,,,,,,,,,,,,,,,,,,,,627.905273100012,628.9300931000034,626.6912375000102,626.6912375000102,626.6912375000102,626.6912375000102,new_sceneIn_22.png,121,5.0,1.2051750999962678,,,054,10,2025-02-14_14h01.27.763,Surprise recog test,2023.1.3,59.94628812684629,
121,0,121,0,,,,,,,,,,,,,,,,,,,,,,,,,,,,,,,,,,631.3683283999999,632.3954737000022,628.9300931000034,628.9300931000034,628.9300931000034,628.9300931000034,old_sceneOut_22.png,122,5.0,2.441112999993493,,,054,10,2025-02-14_14h01.27.763,Surprise recog test,2023.1.3,59.94628812684629,
122,0,122,0,,,,,,,,,,,,,,,,,,,,,,,,,,,,,,,,,,634.9790146000014,635.9863978000067,632.3954737000022,632.3954737000022,632.3954737000022,632.3954737000022,old_sceneIn_6.png,123,5.0,2.5831290000060108,,,054,10,2025-02-14_14h01.27.763,Surprise recog test,2023.1.3,59.94628812684629,
123,0,123,0,,,,,,,,,,,,,,,,,,,,,,,,,,,,,,,,,,637.2989995000098,,635.9863978000067,635.9863978000067,635.9863978000067,635.9863978000067,new_sceneOut_7.png,124,5.0,1.30533300001116,,,054,10,2025-02-14_14h01.27.763,Surprise recog test,2023.1.3,59.94628812684629,
124,0,124,0,,,,,,,,,,,,,,,,,,,,,,,,,,,,,,,,,,640.2771573000064,641.3022037000046,638.3277146000037,638.3277146000037,638.3277146000037,638.3277146000037,old_sceneOut_10.png,125,1.0,1.9514741999882972,,,054,10,2025-02-14_14h01.27.763,Surprise recog test,2023.1.3,59.94628812684629,
125,0,125,0,,,,,,,,,,,,,,,,,,,,,,,,,,,,,,,,,,644.3295887000131,645.3551147000107,641.3022037000046,641.3022037000046,641.3022037000046,641.3022037000046,old_stationery_15.png,126,3.0,3.0266257999901427,,,054,10,2025-02-14_14h01.27.763,Surprise recog test,2023.1.3,59.94628812684629,
126,0,126,0,,,,,,,,,,,,,,,,,,,,,,,,,,,,,,,,,,646.5810427000106,647.6065875000058,645.3551147000107,645.3551147000107,645.3551147000107,645.3551147000107,new_sceneOut_26.png,127,5.0,1.225245299996459,,,054,10,2025-02-14_14h01.27.763,Surprise recog test,2023.1.3,59.94628812684629,
127,0,127,0,,,,,,,,,,,,,,,,,,,,,,,,,,,,,,,,,,649.0395662000083,650.0601442000043,647.6065875000058,647.6065875000058,647.6065875000058,647.6065875000058,new_sceneOut_19.png,128,5.0,1.4347293000028003,,,054,10,2025-02-14_14h01.27.763,Surprise recog test,2023.1.3,59.94628812684629,
128,0,128,0,,,,,,,,,,,,,,,,,,,,,,,,,,,,,,,,,,653.0427230000059,654.0627717000025,650.0601442000043,650.0601442000043,650.0601442000043,650.0601442000043,old_stationery_3.png,129,1.0,2.978491899993969,,,054,10,2025-02-14_14h01.27.763,Surprise recog test,2023.1.3,59.94628812684629,
129,0,129,0,,,,,,,,,,,,,,,,,,,,,,,,,,,,,,,,,,655.5844501000101,656.6140144000092,654.0627717000025,654.0627717000025,654.0627717000025,654.0627717000025,new_sceneIn_40.png,130,4.0,1.521569799995632,,,054,10,2025-02-14_14h01.27.763,Surprise recog test,2023.1.3,59.94628812684629,
130,0,130,0,,,,,,,,,,,,,,,,,,,,,,,,,,,,,,,,,,658.6265133000124,659.6533917000052,656.6140144000092,656.6140144000092,656.6140144000092,656.6140144000092,new_fruit_27.png,131,3.0,2.0115408999990905,,,054,10,2025-02-14_14h01.27.763,Surprise recog test,2023.1.3,59.94628812684629,
131,0,131,0,,,,,,,,,,,,,,,,,,,,,,,,,,,,,,,,,,661.0030615000142,,659.6533917000052,659.6533917000052,659.6533917000052,659.6533917000052,old_sceneOut_41.png,132,5.0,1.350447200005874,,,054,10,2025-02-14_14h01.27.763,Surprise recog test,2023.1.3,59.94628812684629,
132,0,132,0,,,,,,,,,,,,,,,,,,,,,,,,,,,,,,,,,,665.4940044000105,666.5265079000092,662.0344715000101,662.0344715000101,662.0344715000101,662.0344715000101,new_fruit_42.png,133,4.0,3.46157569999923,,,054,10,2025-02-14_14h01.27.763,Surprise recog test,2023.1.3,59.94628812684629,
133,0,133,0,,,,,,,,,,,,,,,,,,,,,,,,,,,,,,,,,,668.3972587000026,669.4233688000095,666.5265079000092,666.5265079000092,666.5265079000092,666.5265079000092,new_sceneIn_8.png,134,5.0,1.8702857000025688,,,054,10,2025-02-14_14h01.27.763,Surprise recog test,2023.1.3,59.94628812684629,
134,0,134,0,,,,,,,,,,,,,,,,,,,,,,,,,,,,,,,,,,670.746725200006,671.7779701000109,669.4233688000095,669.4233688000095,669.4233688000095,669.4233688000095,old_fruit_8.png,135,1.0,1.3249923999974271,,,054,10,2025-02-14_14h01.27.763,Surprise recog test,2023.1.3,59.94628812684629,
135,0,135,0,,,,,,,,,,,,,,,,,,,,,,,,,,,,,,,,,,674.9350826000009,675.964764400007,671.7779701000109,671.7779701000109,671.7779701000109,671.7779701000109,new_sceneOut_13.png,136,5.0,3.1571358000073815,,,054,10,2025-02-14_14h01.27.763,Surprise recog test,2023.1.3,59.94628812684629,
136,0,136,0,,,,,,,,,,,,,,,,,,,,,,,,,,,,,,,,,,679.1091202000098,680.1342100000038,675.964764400007,675.964764400007,675.964764400007,675.964764400007,old_sceneOut_8.png,137,5.0,3.1450673999934224,,,054,10,2025-02-14_14h01.27.763,Surprise recog test,2023.1.3,59.94628812684629,
137,0,137,0,,,,,,,,,,,,,,,,,,,,,,,,,,,,,,,,,,682.3113003000035,683.3210784000112,680.1342100000038,680.1342100000038,680.1342100000038,680.1342100000038,old_stationery_12.png,138,1.0,2.1789979999884963,,,054,10,2025-02-14_14h01.27.763,Surprise recog test,2023.1.3,59.94628812684629,
138,0,138,0,,,,,,,,,,,,,,,,,,,,,,,,,,,,,,,,,,686.4655571000039,687.4837178000016,683.3210784000112,683.3210784000112,683.3210784000112,683.3210784000112,old_fruit_32.png,139,3.0,3.1407477999891853,,,054,10,2025-02-14_14h01.27.763,Surprise recog test,2023.1.3,59.94628812684629,
139,0,139,0,,,,,,,,,,,,,,,,,,,,,,,,,,,,,,,,,,689.3364927000075,690.3598071000015,687.4837178000016,687.4837178000016,687.4837178000016,687.4837178000016,old_sceneIn_30.png,140,5.0,1.8536488999961875,,,054,10,2025-02-14_14h01.27.763,Surprise recog test,2023.1.3,59.94628812684629,
140,0,140,0,,,,,,,,,,,,,,,,,,,,,,,,,,,,,,,,,,691.9599525000085,692.9770306000137,690.3598071000015,690.3598071000015,690.3598071000015,690.3598071000015,new_stationery_32.png,141,4.0,1.6012827999948058,,,054,10,2025-02-14_14h01.27.763,Surprise recog test,2023.1.3,59.94628812684629,
141,0,141,0,,,,,,,,,,,,,,,,,,,,,,,,,,,,,,,,,,696.278269500006,697.2871828000061,692.9770306000137,692.9770306000137,692.9770306000137,692.9770306000137,new_stationery_43.png,142,4.0,3.3019684000028064,,,054,10,2025-02-14_14h01.27.763,Surprise recog test,2023.1.3,59.94628812684629,
142,0,142,0,,,,,,,,,,,,,,,,,,,,,,,,,,,,,,,,,,700.0108746000042,701.0364671000134,697.2871828000061,697.2871828000061,697.2871828000061,697.2871828000061,old_stationery_39.png,143,4.0,2.7196811999892816,,,054,10,2025-02-14_14h01.27.763,Surprise recog test,2023.1.3,59.94628812684629,
143,0,143,0,,,,,,,,,,,,,,,,,,,,,,,,,,,,,,,,,,702.9674488000019,703.9766272000124,701.0364671000134,701.0364671000134,701.0364671000134,701.0364671000134,new_sceneIn_33.png,144,5.0,1.9270762999949511,,,054,10,2025-02-14_14h01.27.763,Surprise recog test,2023.1.3,59.94628812684629,
144,0,144,0,,,,,,,,,,,,,,,,,,,,,,,,,,,,,,,,,,705.4456680000003,706.4673945000104,703.9766272000124,703.9766272000124,703.9766272000124,703.9766272000124,new_sceneOut_20.png,145,5.0,1.4642135000030976,,,054,10,2025-02-14_14h01.27.763,Surprise recog test,2023.1.3,59.94628812684629,
145,0,145,0,,,,,,,,,,,,,,,,,,,,,,,,,,,,,,,,,,707.7381585000112,708.7457299000089,706.4673945000104,706.4673945000104,706.4673945000104,706.4673945000104,new_sceneIn_45.png,146,5.0,1.2696158999897307,,,054,10,2025-02-14_14h01.27.763,Surprise recog test,2023.1.3,59.94628812684629,
146,0,146,0,,,,,,,,,,,,,,,,,,,,,,,,,,,,,,,,,,711.441350500012,712.457637200001,708.7457299000089,708.7457299000089,708.7457299000089,708.7457299000089,old_fruit_10.png,147,1.0,2.6896745999983978,,,054,10,2025-02-14_14h01.27.763,Surprise recog test,2023.1.3,59.94628812684629,
147,0,147,0,,,,,,,,,,,,,,,,,,,,,,,,,,,,,,,,,,714.3504354000033,715.3662782000029,712.457637200001,712.457637200001,712.457637200001,712.457637200001,new_fruit_19.png,148,3.0,1.8951415000046836,,,054,10,2025-02-14_14h01.27.763,Surprise recog test,2023.1.3,59.94628812684629,
148,0,148,0,,,,,,,,,,,,,,,,,,,,,,,,,,,,,,,,,,716.9630139000074,717.9834136000136,715.3662782000029,715.3662782000029,715.3662782000029,715.3662782000029,old_sceneIn_8.png,149,5.0,1.5932065999950282,,,054,10,2025-02-14_14h01.27.763,Surprise recog test,2023.1.3,59.94628812684629,
149,0,149,0,,,,,,,,,,,,,,,,,,,,,,,,,,,,,,,,,,719.6811438000004,720.6890522000031,717.9834136000136,717.9834136000136,717.9834136000136,717.9834136000136,old_stationery_50.png,150,1.0,1.7001107999967644,,,054,10,2025-02-14_14h01.27.763,Surprise recog test,2023.1.3,59.94628812684629,
150,0,150,0,,,,,,,,,,,,,,,,,,,,,,,,,,,,,,,,,,722.176062700004,723.1980978000065,720.6890522000031,720.6890522000031,720.6890522000031,720.6890522000031,old_sceneOut_25.png,151,4.0,1.4832025000068825,,,054,10,2025-02-14_14h01.27.763,Surprise recog test,2023.1.3,59.94628812684629,
151,0,151,0,,,,,,,,,,,,,,,,,,,,,,,,,,,,,,,,,,725.3070673000038,726.3286592000077,723.1980978000065,723.1980978000065,723.1980978000065,723.1980978000065,old_stationery_43.png,152,3.0,2.110730100001092,,,054,10,2025-02-14_14h01.27.763,Surprise recog test,2023.1.3,59.94628812684629,
152,0,152,0,,,,,,,,,,,,,,,,,,,,,,,,,,,,,,,,,,727.6543483000132,728.6632244000066,726.3286592000077,726.3286592000077,726.3286592000077,726.3286592000077,old_sceneOut_28.png,153,5.0,1.3226796000089962,,,054,10,2025-02-14_14h01.27.763,Surprise recog test,2023.1.3,59.94628812684629,
153,0,153,0,,,,,,,,,,,,,,,,,,,,,,,,,,,,,,,,,,730.3947969000001,,728.6632244000066,728.6632244000066,728.6632244000066,728.6632244000066,old_sceneOut_42.png,154,5.0,1.7277915000013309,,,054,10,2025-02-14_14h01.27.763,Surprise recog test,2023.1.3,59.94628812684629,
154,0,154,0,,,,,,,,,,,,,,,,,,,,,,,,,,,,,,,,,,733.7928686000087,734.8108699000004,731.4260638000123,731.4260638000123,731.4260638000123,731.4260638000123,old_sceneOut_40.png,155,4.0,2.367692800005898,,,054,10,2025-02-14_14h01.27.763,Surprise recog test,2023.1.3,59.94628812684629,
155,0,155,0,,,,,,,,,,,,,,,,,,,,,,,,,,,,,,,,,,736.4202966000012,737.4500688000116,734.8108699000004,734.8108699000004,734.8108699000004,734.8108699000004,old_stationery_31.png,156,3.0,1.6110960000078194,,,054,10,2025-02-14_14h01.27.763,Surprise recog test,2023.1.3,59.94628812684629,
156,0,156,0,,,,,,,,,,,,,,,,,,,,,,,,,,,,,,,,,,739.017127500003,,737.4500688000116,737.4500688000116,737.4500688000116,737.4500688000116,old_stationery_16.png,157,4.0,1.5712081999954535,,,054,10,2025-02-14_14h01.27.763,Surprise recog test,2023.1.3,59.94628812684629,
157,0,157,0,,,,,,,,,,,,,,,,,,,,,,,,,,,,,,,,,,743.8135782000027,744.8227683000005,740.043387200014,740.043387200014,740.043387200014,740.043387200014,new_fruit_31.png,158,2.0,3.7710271999967517,,,054,10,2025-02-14_14h01.27.763,Surprise recog test,2023.1.3,59.94628812684629,
158,0,158,0,,,,,,,,,,,,,,,,,,,,,,,,,,,,,,,,,,747.9158027000085,748.9254767000093,744.8227683000005,744.8227683000005,744.8227683000005,744.8227683000005,new_stationery_36.png,159,4.0,3.0894482000003336,,,054,10,2025-02-14_14h01.27.763,Surprise recog test,2023.1.3,59.94628812684629,
159,0,159,0,,,,,,,,,,,,,,,,,,,,,,,,,,,,,,,,,,752.557023500005,753.5776287000044,748.9254767000093,748.9254767000093,748.9254767000093,748.9254767000093,new_stationery_47.png,160,3.0,3.626798899989808,,,054,10,2025-02-14_14h01.27.763,Surprise recog test,2023.1.3,59.94628812684629,
160,0,160,0,,,,,,,,,,,,,,,,,,,,,,,,,,,,,,,,,,754.8676622000057,755.8956904000079,753.5776287000044,753.5776287000044,753.5776287000044,753.5776287000044,old_sceneIn_40.png,161,5.0,1.2924835000012536,,,054,10,2025-02-14_14h01.27.763,Surprise recog test,2023.1.3,59.94628812684629,
161,0,161,0,,,,,,,,,,,,,,,,,,,,,,,,,,,,,,,,,,759.5690613000043,760.5956751000049,755.8956904000079,755.8956904000079,755.8956904000079,755.8956904000079,old_stationery_27.png,162,3.0,3.673077599989483,,,054,10,2025-02-14_14h01.27.763,Surprise recog test,2023.1.3,59.94628812684629,
162,0,162,0,,,,,,,,,,,,,,,,,,,,,,,,,,,,,,,,,,763.1680395000003,764.1759517000028,760.5956751000049,760.5956751000049,760.5956751000049,760.5956751000049,new_fruit_12.png,163,2.0,2.573063000003458,,,054,10,2025-02-14_14h01.27.763,Surprise recog test,2023.1.3,59.94628812684629,
163,0,163,0,,,,,,,,,,,,,,,,,,,,,,,,,,,,,,,,,,767.2937552000076,768.3256679000042,764.1759517000028,764.1759517000028,764.1759517000028,764.1759517000028,new_fruit_38.png,164,4.0,3.1121715999906883,,,054,10,2025-02-14_14h01.27.763,Surprise recog test,2023.1.3,59.94628812684629,
164,0,164,0,,,,,,,,,,,,,,,,,,,,,,,,,,,,,,,,,,770.5449076000077,771.5731473000051,768.3256679000042,768.3256679000042,768.3256679000042,768.3256679000042,old_fruit_46.png,165,5.0,2.221623300007195,,,054,10,2025-02-14_14h01.27.763,Surprise recog test,2023.1.3,59.94628812684629,
165,0,165,0,,,,,,,,,,,,,,,,,,,,,,,,,,,,,,,,,,773.4569540000084,774.4676851000113,771.5731473000051,771.5731473000051,771.5731473000051,771.5731473000051,new_stationery_37.png,166,4.0,1.8853974000085145,,,054,10,2025-02-14_14h01.27.763,Surprise recog test,2023.1.3,59.94628812684629,
166,0,166,0,,,,,,,,,,,,,,,,,,,,,,,,,,,,,,,,,,776.0542598000029,777.0811356000049,774.4676851000113,774.4676851000113,774.4676851000113,774.4676851000113,old_stationery_34.png,167,3.0,1.5795173999940744,,,054,10,2025-02-14_14h01.27.763,Surprise recog test,2023.1.3,59.94628812684629,
167,0,167,0,,,,,,,,,,,,,,,,,,,,,,,,,,,,,,,,,,779.139540300006,780.1624671000027,777.0811356000049,777.0811356000049,777.0811356000049,777.0811356000049,new_fruit_50.png,168,3.0,2.060515300006955,,,054,10,2025-02-14_14h01.27.763,Surprise recog test,2023.1.3,59.94628812684629,
168,0,168,0,,,,,,,,,,,,,,,,,,,,,,,,,,,,,,,,,,783.1082496000017,784.1344654000131,780.1624671000027,780.1624671000027,780.1624671000027,780.1624671000027,old_sceneIn_16.png,169,1.0,2.947172500003944,,,054,10,2025-02-14_14h01.27.763,Surprise recog test,2023.1.3,59.94628812684629,
169,0,169,0,,,,,,,,,,,,,,,,,,,,,,,,,,,,,,,,,,786.0197310000076,787.0291855000105,784.1344654000131,784.1344654000131,784.1344654000131,784.1344654000131,old_sceneOut_16.png,170,4.0,1.8873051999980817,,,054,10,2025-02-14_14h01.27.763,Surprise recog test,2023.1.3,59.94628812684629,
170,0,170,0,,,,,,,,,,,,,,,,,,,,,,,,,,,,,,,,,,790.7426670000132,,787.0291855000105,787.0291855000105,787.0291855000105,787.0291855000105,new_fruit_18.png,171,2.0,3.7089950000081444,,,054,10,2025-02-14_14h01.27.763,Surprise recog test,2023.1.3,59.94628812684629,
171,0,171,0,,,,,,,,,,,,,,,,,,,,,,,,,,,,,,,,,,795.1624097000022,796.1805239000096,791.7777051000012,791.7777051000012,791.7777051000012,791.7777051000012,new_sceneIn_27.png,172,3.0,3.387093300014385,,,054,10,2025-02-14_14h01.27.763,Surprise recog test,2023.1.3,59.94628812684629,
172,0,172,0,,,,,,,,,,,,,,,,,,,,,,,,,,,,,,,,,,797.766251500012,,796.1805239000096,796.1805239000096,796.1805239000096,796.1805239000096,new_sceneIn_15.png,173,4.0,1.582944800000405,,,054,10,2025-02-14_14h01.27.763,Surprise recog test,2023.1.3,59.94628812684629,
173,0,173,0,,,,,,,,,,,,,,,,,,,,,,,,,,,,,,,,,,801.0900039000117,802.1168592000031,798.8036961000034,798.8036961000034,798.8036961000034,798.8036961000034,old_stationery_49.png,174,3.0,2.2904968000075314,,,054,10,2025-02-14_14h01.27.763,Surprise recog test,2023.1.3,59.94628812684629,
174,0,174,0,,,,,,,,,,,,,,,,,,,,,,,,,,,,,,,,,,803.9167723000137,804.925416500002,802.1168592000031,802.1168592000031,802.1168592000031,802.1168592000031,old_sceneIn_3.png,175,4.0,1.8016749000089476,,,054,10,2025-02-14_14h01.27.763,Surprise recog test,2023.1.3,59.94628812684629,
175,0,175,0,,,,,,,,,,,,,,,,,,,,,,,,,,,,,,,,,,806.1840782000072,807.1994475000101,804.925416500002,804.925416500002,804.925416500002,804.925416500002,new_stationery_35.png,176,1.0,1.2546905999915907,,,054,10,2025-02-14_14h01.27.763,Surprise recog test,2023.1.3,59.94628812684629,
176,0,176,0,,,,,,,,,,,,,,,,,,,,,,,,,,,,,,,,,,809.9387566000078,810.9615091000014,807.1994475000101,807.1994475000101,807.1994475000101,807.1994475000101,old_stationery_28.png,177,3.0,2.7383604000060586,,,054,10,2025-02-14_14h01.27.763,Surprise recog test,2023.1.3,59.94628812684629,
177,0,177,0,,,,,,,,,,,,,,,,,,,,,,,,,,,,,,,,,,812.662848100008,,810.9615091000014,810.9615091000014,810.9615091000014,810.9615091000014,new_sceneIn_5.png,178,4.0,1.7017092000023695,,,054,10,2025-02-14_14h01.27.763,Surprise recog test,2023.1.3,59.94628812684629,
178,0,178,0,,,,,,,,,,,,,,,,,,,,,,,,,,,,,,,,,,815.5129211000021,,813.6831096000096,813.6831096000096,813.6831096000096,813.6831096000096,old_stationery_33.png,179,4.0,1.8265011000039522,,,054,10,2025-02-14_14h01.27.763,Surprise recog test,2023.1.3,59.94628812684629,
179,0,179,0,,,,,,,,,,,,,,,,,,,,,,,,,,,,,,,,,,818.4350960000011,819.4677679000015,816.5415725000057,816.5415725000057,816.5415725000057,816.5415725000057,old_sceneIn_35.png,180,5.0,1.8944453000003705,,,054,10,2025-02-14_14h01.27.763,Surprise recog test,2023.1.3,59.94628812684629,
180,0,180,0,,,,,,,,,,,,,,,,,,,,,,,,,,,,,,,,,,823.400277400011,824.4233060000115,819.4677679000015,819.4677679000015,819.4677679000015,819.4677679000015,new_sceneIn_32.png,181,4.0,3.9338658999913605,,,054,10,2025-02-14_14h01.27.763,Surprise recog test,2023.1.3,59.94628812684629,
181,0,181,0,,,,,,,,,,,,,,,,,,,,,,,,,,,,,,,,,,825.7037243000086,826.7110766000114,824.4233060000115,824.4233060000115,824.4233060000115,824.4233060000115,new_sceneOut_29.png,182,5.0,1.2833361999946646,,,054,10,2025-02-14_14h01.27.763,Surprise recog test,2023.1.3,59.94628812684629,
182,0,182,0,,,,,,,,,,,,,,,,,,,,,,,,,,,,,,,,,,828.0045468000026,829.0090024000092,826.7110766000114,826.7110766000114,826.7110766000114,826.7110766000114,new_sceneOut_1.png,183,5.0,1.2845250999962445,,,054,10,2025-02-14_14h01.27.763,Surprise recog test,2023.1.3,59.94628812684629,
183,0,183,0,,,,,,,,,,,,,,,,,,,,,,,,,,,,,,,,,,830.3825782000058,831.3977479000023,829.0090024000092,829.0090024000092,829.0090024000092,829.0090024000092,old_sceneIn_18.png,184,5.0,1.3674115000030724,,,054,10,2025-02-14_14h01.27.763,Surprise recog test,2023.1.3,59.94628812684629,
184,0,184,0,,,,,,,,,,,,,,,,,,,,,,,,,,,,,,,,,,833.785655300002,834.8152454000083,831.3977479000023,831.3977479000023,831.3977479000023,831.3977479000023,new_sceneOut_43.png,185,4.0,2.384117599998717,,,054,10,2025-02-14_14h01.27.763,Surprise recog test,2023.1.3,59.94628812684629,
185,0,185,0,,,,,,,,,,,,,,,,,,,,,,,,,,,,,,,,,,838.7241007000121,839.7524540000013,834.8152454000083,834.8152454000083,834.8152454000083,834.8152454000083,new_sceneOut_12.png,186,3.0,3.909112199995434,,,054,10,2025-02-14_14h01.27.763,Surprise recog test,2023.1.3,59.94628812684629,
186,0,186,0,,,,,,,,,,,,,,,,,,,,,,,,,,,,,,,,,,843.9097508000123,844.9340600000141,839.7524540000013,839.7524540000013,839.7524540000013,839.7524540000013,old_sceneIn_13.png,187,1.0,4.158998700004304,,,054,10,2025-02-14_14h01.27.763,Surprise recog test,2023.1.3,59.94628812684629,
187,0,187,0,,,,,,,,,,,,,,,,,,,,,,,,,,,,,,,,,,846.9912041000061,,844.9340600000141,844.9340600000141,844.9340600000141,844.9340600000141,new_fruit_14.png,188,2.0,2.057410000008531,,,054,10,2025-02-14_14h01.27.763,Surprise recog test,2023.1.3,59.94628812684629,
188,0,188,0,,,,,,,,,,,,,,,,,,,,,,,,,,,,,,,,,,849.8106736000045,850.8435163000104,848.0210128000035,848.0210128000035,848.0210128000035,848.0210128000035,new_stationery_2.png,189,4.0,1.790062100000796,,,054,10,2025-02-14_14h01.27.763,Surprise recog test,2023.1.3,59.94628812684629,
189,0,189,0,,,,,,,,,,,,,,,,,,,,,,,,,,,,,,,,,,853.4923358000087,854.5011358000047,850.8435163000104,850.8435163000104,850.8435163000104,850.8435163000104,old_stationery_45.png,190,3.0,2.6459749000059674,,,054,10,2025-02-14_14h01.27.763,Surprise recog test,2023.1.3,59.94628812684629,
190,0,190,0,,,,,,,,,,,,,,,,,,,,,,,,,,,,,,,,,,858.2295499000029,859.235196300011,854.5011358000047,854.5011358000047,854.5011358000047,854.5011358000047,new_fruit_24.png,191,4.0,3.717761799998698,,,054,10,2025-02-14_14h01.27.763,Surprise recog test,2023.1.3,59.94628812684629,
191,0,191,0,,,,,,,,,,,,,,,,,,,,,,,,,,,,,,,,,,863.1003159000102,864.105693000005,859.235196300011,859.235196300011,859.235196300011,859.235196300011,new_fruit_33.png,192,4.0,3.8576304000016535,,,054,10,2025-02-14_14h01.27.763,Surprise recog test,2023.1.3,59.94628812684629,
192,0,192,0,,,,,,,,,,,,,,,,,,,,,,,,,,,,,,,,,,865.4689259000006,866.4735818000045,864.105693000005,864.105693000005,864.105693000005,864.105693000005,new_sceneOut_11.png,193,5.0,1.3537499999947613,,,054,10,2025-02-14_14h01.27.763,Surprise recog test,2023.1.3,59.94628812684629,
193,0,193,0,,,,,,,,,,,,,,,,,,,,,,,,,,,,,,,,,,869.3554423000023,870.3599338000058,866.4735818000045,866.4735818000045,866.4735818000045,866.4735818000045,old_sceneOut_49.png,194,4.0,2.872512599991751,,,054,10,2025-02-14_14h01.27.763,Surprise recog test,2023.1.3,59.94628812684629,
194,0,194,0,,,,,,,,,,,,,,,,,,,,,,,,,,,,,,,,,,872.5080628000142,873.5127703000035,870.3599338000058,870.3599338000058,870.3599338000058,870.3599338000058,new_stationery_6.png,195,5.0,2.137521700002253,,,054,10,2025-02-14_14h01.27.763,Surprise recog test,2023.1.3,59.94628812684629,
195,0,195,0,,,,,,,,,,,,,,,,,,,,,,,,,,,,,,,,,,876.0275794000045,877.0326740000019,873.5127703000035,873.5127703000035,873.5127703000035,873.5127703000035,old_stationery_44.png,196,4.0,2.5044608999887714,,,054,10,2025-02-14_14h01.27.763,Surprise recog test,2023.1.3,59.94628812684629,
196,0,196,0,,,,,,,,,,,,,,,,,,,,,,,,,,,,,,,,,,879.4804329000035,880.4853504000057,877.0326740000019,877.0326740000019,877.0326740000019,877.0326740000019,new_fruit_7.png,197,3.0,2.437268000008771,,,054,10,2025-02-14_14h01.27.763,Surprise recog test,2023.1.3,59.94628812684629,
197,0,197,0,,,,,,,,,,,,,,,,,,,,,,,,,,,,,,,,,,883.3504353000026,884.3549860000057,880.4853504000057,880.4853504000057,880.4853504000057,880.4853504000057,old_fruit_37.png,198,3.0,2.8549864000087837,,,054,10,2025-02-14_14h01.27.763,Surprise recog test,2023.1.3,59.94628812684629,
198,0,198,0,,,,,,,,,,,,,,,,,,,,,,,,,,,,,,,,,,887.5706033000024,888.5759563000029,884.3549860000057,884.3549860000057,884.3549860000057,884.3549860000057,old_sceneIn_37.png,199,5.0,3.2051993000059156,,,054,10,2025-02-14_14h01.27.763,Surprise recog test,2023.1.3,59.94628812684629,
199,0,199,0,,,,,,,,,,,,,,,,,,,,,,,,,,,,,,,,,,890.1393247000087,891.1447822000046,888.5759563000029,888.5759563000029,888.5759563000029,888.5759563000029,new_fruit_1.png,200,3.0,1.5524841000005836,,,054,10,2025-02-14_14h01.27.763,Surprise recog test,2023.1.3,59.94628812684629,
200,0,200,0,,,,,,,,,,,,,,,,,,,,,,,,,,,,,,,,,,892.5246579000086,893.529458200006,891.1447822000046,891.1447822000046,891.1447822000046,891.1447822000046,new_sceneOut_2.png,201,5.0,1.370914899991476,,,054,10,2025-02-14_14h01.27.763,Surprise recog test,2023.1.3,59.94628812684629,
201,0,201,0,,,,,,,,,,,,,,,,,,,,,,,,,,,,,,,,,,895.7607115999999,896.7651183000125,893.529458200006,893.529458200006,893.529458200006,893.529458200006,old_sceneOut_26.png,202,5.0,2.2211977999977535,,,054,10,2025-02-14_14h01.27.763,Surprise recog test,2023.1.3,59.94628812684629,
202,0,202,0,,,,,,,,,,,,,,,,,,,,,,,,,,,,,,,,,,899.5471518000122,900.5522615000082,896.7651183000125,896.7651183000125,896.7651183000125,896.7651183000125,new_sceneIn_23.png,203,4.0,2.771976900010486,,,054,10,2025-02-14_14h01.27.763,Surprise recog test,2023.1.3,59.94628812684629,
203,0,203,0,,,,,,,,,,,,,,,,,,,,,,,,,,,,,,,,,,902.0325422000024,903.0382968000049,900.5522615000082,900.5522615000082,900.5522615000082,900.5522615000082,old_sceneIn_20.png,204,5.0,1.4735316000005696,,,054,10,2025-02-14_14h01.27.763,Surprise recog test,2023.1.3,59.94628812684629,
204,0,204,0,,,,,,,,,,,,,,,,,,,,,,,,,,,,,,,,,,907.0598052000132,908.0887119000108,903.0382968000049,903.0382968000049,903.0382968000049,903.0382968000049,old_fruit_14.png,205,4.0,4.018593500004499,,,054,10,2025-02-14_14h01.27.763,Surprise recog test,2023.1.3,59.94628812684629,
205,0,205,0,,,,,,,,,,,,,,,,,,,,,,,,,,,,,,,,,,910.9087620000064,911.9295315000054,908.0887119000108,908.0887119000108,908.0887119000108,908.0887119000108,old_stationery_24.png,206,3.0,2.8216772000014316,,,054,10,2025-02-14_14h01.27.763,Surprise recog test,2023.1.3,59.94628812684629,
206,0,206,0,,,,,,,,,,,,,,,,,,,,,,,,,,,,,,,,,,913.6090675000014,914.6215910000028,911.9295315000054,911.9295315000054,911.9295315000054,911.9295315000054,old_sceneOut_12.png,207,5.0,1.6759528999973554,,,054,10,2025-02-14_14h01.27.763,Surprise recog test,2023.1.3,59.94628812684629,
207,0,207,0,,,,,,,,,,,,,,,,,,,,,,,,,,,,,,,,,,918.9968753000139,920.010870500002,914.6215910000028,914.6215910000028,914.6215910000028,914.6215910000028,old_fruit_5.png,208,4.0,4.376319999995758,,,054,10,2025-02-14_14h01.27.763,Surprise recog test,2023.1.3,59.94628812684629,
208,0,208,0,,,,,,,,,,,,,,,,,,,,,,,,,,,,,,,,,,923.6147745000053,924.6343347000075,920.010870500002,920.010870500002,920.010870500002,920.010870500002,old_fruit_42.png,209,3.0,3.5970185000041965,,,054,10,2025-02-14_14h01.27.763,Surprise recog test,2023.1.3,59.94628812684629,
209,0,209,0,,,,,,,,,,,,,,,,,,,,,,,,,,,,,,,,,,928.9382806000067,929.956121500014,924.6343347000075,924.6343347000075,924.6343347000075,924.6343347000075,new_sceneIn_12.png,210,3.0,4.293320900003891,,,054,10,2025-02-14_14h01.27.763,Surprise recog test,2023.1.3,59.94628812684629,
210,0,210,0,,,,,,,,,,,,,,,,,,,,,,,,,,,,,,,,,,932.1335309000133,933.1546031000034,929.956121500014,929.956121500014,929.956121500014,929.956121500014,old_sceneIn_14.png,211,4.0,2.1790389999951003,,,054,10,2025-02-14_14h01.27.763,Surprise recog test,2023.1.3,59.94628812684629,
211,0,211,0,,,,,,,,,,,,,,,,,,,,,,,,,,,,,,,,,,936.2030564000015,937.2193984000041,933.1546031000034,933.1546031000034,933.1546031000034,933.1546031000034,new_stationery_33.png,212,4.0,3.0437669000093592,,,054,10,2025-02-14_14h01.27.763,Surprise recog test,2023.1.3,59.94628812684629,
212,0,212,0,,,,,,,,,,,,,,,,,,,,,,,,,,,,,,,,,,939.2938232000015,940.3069877000089,937.2193984000041,937.2193984000041,937.2193984000041,937.2193984000041,old_stationery_20.png,213,3.0,2.067915699997684,,,054,10,2025-02-14_14h01.27.763,Surprise recog test,2023.1.3,59.94628812684629,
213,0,213,0,,,,,,,,,,,,,,,,,,,,,,,,,,,,,,,,,,943.0763988000108,944.1076033000136,940.3069877000089,940.3069877000089,940.3069877000089,940.3069877000089,new_sceneIn_13.png,214,5.0,2.768922899995232,,,054,10,2025-02-14_14h01.27.763,Surprise recog test,2023.1.3,59.94628812684629,
214,0,214,0,,,,,,,,,,,,,,,,,,,,,,,,,,,,,,,,,,949.0895342000003,950.1072016000107,944.1076033000136,944.1076033000136,944.1076033000136,944.1076033000136,old_stationery_26.png,215,None,None,949.0749525000138,,054,10,2025-02-14_14h01.27.763,Surprise recog test,2023.1.3,59.94628812684629,
215,0,215,0,,,,,,,,,,,,,,,,,,,,,,,,,,,,,,,,,,951.5252060000057,952.5403949000029,950.1072016000107,950.1072016000107,950.1072016000107,950.1072016000107,old_fruit_19.png,216,2.0,1.4191028000059305,,,054,10,2025-02-14_14h01.27.763,Surprise recog test,2023.1.3,59.94628812684629,
216,0,216,0,,,,,,,,,,,,,,,,,,,,,,,,,,,,,,,,,,954.8735711000045,955.8961071000085,952.5403949000029,952.5403949000029,952.5403949000029,952.5403949000029,new_stationery_31.png,217,4.0,2.3356835000013234,,,054,10,2025-02-14_14h01.27.763,Surprise recog test,2023.1.3,59.94628812684629,
217,0,217,0,,,,,,,,,,,,,,,,,,,,,,,,,,,,,,,,,,958.1822591000091,,955.8961071000085,955.8961071000085,955.8961071000085,955.8961071000085,new_fruit_28.png,218,4.0,2.2873355000047013,,,054,10,2025-02-14_14h01.27.763,Surprise recog test,2023.1.3,59.94628812684629,
218,0,218,0,,,,,,,,,,,,,,,,,,,,,,,,,,,,,,,,,,962.1488071000058,963.1701649000024,959.2169465000043,959.2169465000043,959.2169465000043,959.2169465000043,new_sceneIn_26.png,219,5.0,2.9310415999934776,,,054,10,2025-02-14_14h01.27.763,Surprise recog test,2023.1.3,59.94628812684629,
219,0,219,0,,,,,,,,,,,,,,,,,,,,,,,,,,,,,,,,,,964.8277591000078,965.8542512000131,963.1701649000024,963.1701649000024,963.1701649000024,963.1701649000024,old_sceneOut_32.png,220,5.0,1.6524503999971785,,,054,10,2025-02-14_14h01.27.763,Surprise recog test,2023.1.3,59.94628812684629,
220,0,220,0,,,,,,,,,,,,,,,,,,,,,,,,,,,,,,,,,,968.6592129000055,969.6883407000132,965.8542512000131,965.8542512000131,965.8542512000131,965.8542512000131,new_sceneIn_9.png,221,4.0,2.807011800003238,,,054,10,2025-02-14_14h01.27.763,Surprise recog test,2023.1.3,59.94628812684629,
221,0,221,0,,,,,,,,,,,,,,,,,,,,,,,,,,,,,,,,,,971.2556209000031,972.2765074000054,969.6883407000132,969.6883407000132,969.6883407000132,969.6883407000132,old_sceneOut_27.png,222,4.0,1.5685093000065535,,,054,10,2025-02-14_14h01.27.763,Surprise recog test,2023.1.3,59.94628812684629,
222,0,222,0,,,,,,,,,,,,,,,,,,,,,,,,,,,,,,,,,,974.957003500007,975.9685108000122,972.2765074000054,972.2765074000054,972.2765074000054,972.2765074000054,old_stationery_42.png,223,3.0,2.6819566000049235,,,054,10,2025-02-14_14h01.27.763,Surprise recog test,2023.1.3,59.94628812684629,
223,0,223,0,,,,,,,,,,,,,,,,,,,,,,,,,,,,,,,,,,978.5577881000063,979.5715819000034,975.9685108000122,975.9685108000122,975.9685108000122,975.9685108000122,old_sceneIn_45.png,224,3.0,2.5830961000028765,,,054,10,2025-02-14_14h01.27.763,Surprise recog test,2023.1.3,59.94628812684629,
224,0,224,0,,,,,,,,,,,,,,,,,,,,,,,,,,,,,,,,,,981.8900796000089,982.9069259000098,979.5715819000034,979.5715819000034,979.5715819000034,979.5715819000034,new_sceneOut_35.png,225,4.0,2.313915499995346,,,054,10,2025-02-14_14h01.27.763,Surprise recog test,2023.1.3,59.94628812684629,
225,0,225,0,,,,,,,,,,,,,,,,,,,,,,,,,,,,,,,,,,985.1589766000106,986.1850049000059,982.9069259000098,982.9069259000098,982.9069259000098,982.9069259000098,old_stationery_19.png,226,3.0,2.246786300005624,,,054,10,2025-02-14_14h01.27.763,Surprise recog test,2023.1.3,59.94628812684629,
226,0,226,0,,,,,,,,,,,,,,,,,,,,,,,,,,,,,,,,,,988.19172480001,,986.1850049000059,986.1850049000059,986.1850049000059,986.1850049000059,new_sceneOut_31.png,227,4.0,2.0037236000061966,,,054,10,2025-02-14_14h01.27.763,Surprise recog test,2023.1.3,59.94628812684629,
227,0,227,0,,,,,,,,,,,,,,,,,,,,,,,,,,,,,,,,,,991.9035872000095,992.9309050000011,989.229465100012,989.229465100012,989.229465100012,989.229465100012,new_stationery_48.png,228,3.0,2.676575600009528,,,054,10,2025-02-14_14h01.27.763,Surprise recog test,2023.1.3,59.94628812684629,
228,0,228,0,,,,,,,,,,,,,,,,,,,,,,,,,,,,,,,,,,996.1970908000076,,992.9309050000011,992.9309050000011,992.9309050000011,992.9309050000011,new_stationery_40.png,229,4.0,3.267377900003339,,,054,10,2025-02-14_14h01.27.763,Surprise recog test,2023.1.3,59.94628812684629,
229,0,229,0,,,,,,,,,,,,,,,,,,,,,,,,,,,,,,,,,,999.7722205000027,1000.7986372000014,997.2309111000068,997.2309111000068,997.2309111000068,997.2309111000068,new_fruit_37.png,230,4.0,2.5439270000060787,,,054,10,2025-02-14_14h01.27.763,Surprise recog test,2023.1.3,59.94628812684629,
230,0,230,0,,,,,,,,,,,,,,,,,,,,,,,,,,,,,,,,,,1004.7690452000097,1005.7849935000122,1000.7986372000014,1000.7986372000014,1000.7986372000014,1000.7986372000014,old_sceneIn_25.png,231,4.0,3.973372399996151,,,054,10,2025-02-14_14h01.27.763,Surprise recog test,2023.1.3,59.94628812684629,
231,0,231,0,,,,,,,,,,,,,,,,,,,,,,,,,,,,,,,,,,1007.9117821000109,1008.9270617000002,1005.7849935000122,1005.7849935000122,1005.7849935000122,1005.7849935000122,new_stationery_38.png,232,1.0,2.1277191000117455,,,054,10,2025-02-14_14h01.27.763,Surprise recog test,2023.1.3,59.94628812684629,
232,0,232,0,,,,,,,,,,,,,,,,,,,,,,,,,,,,,,,,,,1011.9636579000071,1012.9948313000059,1008.9270617000002,1008.9270617000002,1008.9270617000002,1008.9270617000002,old_sceneIn_19.png,233,4.0,3.032428799997433,,,054,10,2025-02-14_14h01.27.763,Surprise recog test,2023.1.3,59.94628812684629,
233,0,233,0,,,,,,,,,,,,,,,,,,,,,,,,,,,,,,,,,,1015.1467432000063,,1012.9948313000059,1012.9948313000059,1012.9948313000059,1012.9948313000059,old_stationery_13.png,234,4.0,2.1534360999939963,,,054,10,2025-02-14_14h01.27.763,Surprise recog test,2023.1.3,59.94628812684629,
234,0,234,0,,,,,,,,,,,,,,,,,,,,,,,,,,,,,,,,,,1017.6006323000038,1018.6191060000128,1016.1824909000134,1016.1824909000134,1016.1824909000134,1016.1824909000134,new_stationery_25.png,235,4.0,1.4181365999975242,,,054,10,2025-02-14_14h01.27.763,Surprise recog test,2023.1.3,59.94628812684629,
235,0,235,0,,,,,,,,,,,,,,,,,,,,,,,,,,,,,,,,,,1020.5835036000062,,1018.6191060000128,1018.6191060000128,1018.6191060000128,1018.6191060000128,old_sceneOut_18.png,236,5.0,1.9598408000019845,,,054,10,2025-02-14_14h01.27.763,Surprise recog test,2023.1.3,59.94628812684629,
236,0,236,0,,,,,,,,,,,,,,,,,,,,,,,,,,,,,,,,,,1023.851874,1024.85828890001,1021.6166343000077,1021.6166343000077,1021.6166343000077,1021.6166343000077,old_sceneIn_22.png,237,5.0,2.2369930999993812,,,054,10,2025-02-14_14h01.27.763,Surprise recog test,2023.1.3,59.94628812684629,
237,0,237,0,,,,,,,,,,,,,,,,,,,,,,,,,,,,,,,,,,1026.6957212000125,1027.7170965000114,1024.85828890001,1024.85828890001,1024.85828890001,1024.85828890001,new_sceneOut_37.png,238,5.0,1.8311485000012908,,,054,10,2025-02-14_14h01.27.763,Surprise recog test,2023.1.3,59.94628812684629,
238,0,238,0,,,,,,,,,,,,,,,,,,,,,,,,,,,,,,,,,,1029.646955300006,1030.6781401000044,1027.7170965000114,1027.7170965000114,1027.7170965000114,1027.7170965000114,new_sceneOut_32.png,239,4.0,1.9226478999917163,,,054,10,2025-02-14_14h01.27.763,Surprise recog test,2023.1.3,59.94628812684629,
239,0,239,0,,,,,,,,,,,,,,,,,,,,,,,,,,,,,,,,,,1032.7391432000004,1033.7626238000084,1030.6781401000044,1030.6781401000044,1030.6781401000044,1030.6781401000044,old_sceneOut_31.png,240,5.0,2.0629530000005616,,,054,10,2025-02-14_14h01.27.763,Surprise recog test,2023.1.3,59.94628812684629,
240,0,240,0,,,,,,,,,,,,,,,,,,,,,,,,,,,,,,,,,,1036.3437677000038,1037.3630287000124,1033.7626238000084,1033.7626238000084,1033.7626238000084,1033.7626238000084,new_fruit_8.png,241,3.0,2.582699999999022,,,054,10,2025-02-14_14h01.27.763,Surprise recog test,2023.1.3,59.94628812684629,
241,0,241,0,,,,,,,,,,,,,,,,,,,,,,,,,,,,,,,,,,1040.6516282000084,,1037.3630287000124,1037.3630287000124,1037.3630287000124,1037.3630287000124,new_sceneIn_18.png,242,5.0,3.2898233000014443,,,054,10,2025-02-14_14h01.27.763,Surprise recog test,2023.1.3,59.94628812684629,
242,0,242,0,,,,,,,,,,,,,,,,,,,,,,,,,,,,,,,,,,1043.3221085000114,1044.3539154000027,1041.6878464000038,1041.6878464000038,1041.6878464000038,1041.6878464000038,new_sceneIn_2.png,243,5.0,1.6350546999892686,,,054,10,2025-02-14_14h01.27.763,Surprise recog test,2023.1.3,59.94628812684629,
243,0,243,0,,,,,,,,,,,,,,,,,,,,,,,,,,,,,,,,,,1046.4074873000063,1047.4393439000123,1044.3539154000027,1044.3539154000027,1044.3539154000027,1044.3539154000027,new_sceneIn_34.png,244,5.0,2.053051399998367,,,054,10,2025-02-14_14h01.27.763,Surprise recog test,2023.1.3,59.94628812684629,
244,0,244,0,,,,,,,,,,,,,,,,,,,,,,,,,,,,,,,,,,1048.906639000008,,1047.4393439000123,1047.4393439000123,1047.4393439000123,1047.4393439000123,new_stationery_30.png,245,3.0,1.4696633999992628,,,054,10,2025-02-14_14h01.27.763,Surprise recog test,2023.1.3,59.94628812684629,
245,0,245,0,,,,,,,,,,,,,,,,,,,,,,,,,,,,,,,,,,1051.8402909000142,1052.8608878000086,1049.9407710000087,1049.9407710000087,1049.9407710000087,1049.9407710000087,new_sceneIn_35.png,246,4.0,1.8980458000005456,,,054,10,2025-02-14_14h01.27.763,Surprise recog test,2023.1.3,59.94628812684629,
246,0,246,0,,,,,,,,,,,,,,,,,,,,,,,,,,,,,,,,,,1055.029103400011,,1052.8608878000086,1052.8608878000086,1052.8608878000086,1052.8608878000086,new_sceneOut_39.png,247,5.0,2.168124399991939,,,054,10,2025-02-14_14h01.27.763,Surprise recog test,2023.1.3,59.94628812684629,
247,0,247,0,,,,,,,,,,,,,,,,,,,,,,,,,,,,,,,,,,1059.383567900004,,1056.0609626000078,1056.0609626000078,1056.0609626000078,1056.0609626000078,old_fruit_33.png,248,3.0,3.3240538999962155,,,054,10,2025-02-14_14h01.27.763,Surprise recog test,2023.1.3,59.94628812684629,
248,0,248,0,,,,,,,,,,,,,,,,,,,,,,,,,,,,,,,,,,1063.3317820000084,1064.3539807000052,1060.4043010000023,1060.4043010000023,1060.4043010000023,1060.4043010000023,new_stationery_26.png,249,4.0,2.922507000010228,,,054,10,2025-02-14_14h01.27.763,Surprise recog test,2023.1.3,59.94628812684629,
249,0,249,0,,,,,,,,,,,,,,,,,,,,,,,,,,,,,,,,,,1067.1851048000099,1068.2087417000002,1064.3539807000052,1064.3539807000052,1064.3539807000052,1064.3539807000052,new_sceneOut_46.png,250,5.0,2.8311458000098355,,,054,10,2025-02-14_14h01.27.763,Surprise recog test,2023.1.3,59.94628812684629,
250,0,250,0,,,,,,,,,,,,,,,,,,,,,,,,,,,,,,,,,,1069.6318790000078,1070.6560870000103,1068.2087417000002,1068.2087417000002,1068.2087417000002,1068.2087417000002,old_sceneOut_46.png,251,5.0,1.4248825999966357,,,054,10,2025-02-14_14h01.27.763,Surprise recog test,2023.1.3,59.94628812684629,
251,0,251,0,,,,,,,,,,,,,,,,,,,,,,,,,,,,,,,,,,1072.4406787000044,1073.444898700007,1070.6560870000103,1070.6560870000103,1070.6560870000103,1070.6560870000103,old_sceneOut_48.png,252,4.0,1.782752500002971,,,054,10,2025-02-14_14h01.27.763,Surprise recog test,2023.1.3,59.94628812684629,
252,0,252,0,,,,,,,,,,,,,,,,,,,,,,,,,,,,,,,,,,1076.9090545000072,1077.9247905000084,1073.444898700007,1073.444898700007,1073.444898700007,1073.444898700007,new_fruit_49.png,253,2.0,3.459802400000626,,,054,10,2025-02-14_14h01.27.763,Surprise recog test,2023.1.3,59.94628812684629,
253,0,253,0,,,,,,,,,,,,,,,,,,,,,,,,,,,,,,,,,,1080.1743166000088,1081.1941490000027,1077.9247905000084,1077.9247905000084,1077.9247905000084,1077.9247905000084,new_sceneIn_48.png,254,5.0,2.248660299999756,,,054,10,2025-02-14_14h01.27.763,Surprise recog test,2023.1.3,59.94628812684629,
254,0,254,0,,,,,,,,,,,,,,,,,,,,,,,,,,,,,,,,,,1083.2846611000132,1084.2914566000109,1081.1941490000027,1081.1941490000027,1081.1941490000027,1081.1941490000027,new_sceneIn_42.png,255,5.0,2.0911699999996927,,,054,10,2025-02-14_14h01.27.763,Surprise recog test,2023.1.3,59.94628812684629,
255,0,255,0,,,,,,,,,,,,,,,,,,,,,,,,,,,,,,,,,,1086.2624039000075,1087.2925890000042,1084.2914566000109,1084.2914566000109,1084.2914566000109,1084.2914566000109,old_sceneOut_7.png,256,5.0,1.9645626999990782,,,054,10,2025-02-14_14h01.27.763,Surprise recog test,2023.1.3,59.94628812684629,
256,0,256,0,,,,,,,,,,,,,,,,,,,,,,,,,,,,,,,,,,1089.1729612000054,1090.183497200007,1087.2925890000042,1087.2925890000042,1087.2925890000042,1087.2925890000042,old_stationery_36.png,257,5.0,1.8838327999983449,,,054,10,2025-02-14_14h01.27.763,Surprise recog test,2023.1.3,59.94628812684629,
257,0,257,0,,,,,,,,,,,,,,,,,,,,,,,,,,,,,,,,,,1092.3071368000092,1093.3273501000076,1090.183497200007,1090.183497200007,1090.183497200007,1090.183497200007,old_fruit_20.png,258,3.0,2.1151682999916375,,,054,10,2025-02-14_14h01.27.763,Surprise recog test,2023.1.3,59.94628812684629,
258,0,258,0,,,,,,,,,,,,,,,,,,,,,,,,,,,,,,,,,,1095.3264171000046,1096.3446428000025,1093.3273501000076,1093.3273501000076,1093.3273501000076,1093.3273501000076,old_fruit_13.png,259,4.0,2.001285199992708,,,054,10,2025-02-14_14h01.27.763,Surprise recog test,2023.1.3,59.94628812684629,
259,0,259,0,,,,,,,,,,,,,,,,,,,,,,,,,,,,,,,,,,1098.2677505000029,1099.298561100004,1096.3446428000025,1096.3446428000025,1096.3446428000025,1096.3446428000025,old_stationery_35.png,260,3.0,1.9247057999891695,,,054,10,2025-02-14_14h01.27.763,Surprise recog test,2023.1.3,59.94628812684629,
260,0,260,0,,,,,,,,,,,,,,,,,,,,,,,,,,,,,,,,,,1101.8222386000125,1102.8404015000124,1099.298561100004,1099.298561100004,1099.298561100004,1099.298561100004,old_sceneIn_28.png,261,4.0,2.5233644999971148,,,054,10,2025-02-14_14h01.27.763,Surprise recog test,2023.1.3,59.94628812684629,
261,0,261,0,,,,,,,,,,,,,,,,,,,,,,,,,,,,,,,,,,1104.8750969000102,1105.9061812,1102.8404015000124,1102.8404015000124,1102.8404015000124,1102.8404015000124,new_stationery_44.png,262,4.0,2.028048799998942,,,054,10,2025-02-14_14h01.27.763,Surprise recog test,2023.1.3,59.94628812684629,
262,0,262,0,,,,,,,,,,,,,,,,,,,,,,,,,,,,,,,,,,1107.4750021000073,1108.5071840000019,1105.9061812,1105.9061812,1105.9061812,1105.9061812,new_sceneIn_1.png,263,5.0,1.5716489999904297,,,054,10,2025-02-14_14h01.27.763,Surprise recog test,2023.1.3,59.94628812684629,
263,0,263,0,,,,,,,,,,,,,,,,,,,,,,,,,,,,,,,,,,1111.022754000005,1112.0426241000096,1108.5071840000019,1108.5071840000019,1108.5071840000019,1108.5071840000019,old_sceneOut_4.png,264,3.0,2.5131518999987748,,,054,10,2025-02-14_14h01.27.763,Surprise recog test,2023.1.3,59.94628812684629,
264,0,264,0,,,,,,,,,,,,,,,,,,,,,,,,,,,,,,,,,,1114.8181454000005,1115.8470099000115,1112.0426241000096,1112.0426241000096,1112.0426241000096,1112.0426241000096,old_stationery_18.png,265,4.0,2.777915300001041,,,054,10,2025-02-14_14h01.27.763,Surprise recog test,2023.1.3,59.94628812684629,
265,0,265,0,,,,,,,,,,,,,,,,,,,,,,,,,,,,,,,,,,1119.0444094000122,1120.059006800002,1115.8470099000115,1115.8470099000115,1115.8470099000115,1115.8470099000115,new_fruit_30.png,266,5.0,3.1971745999908308,,,054,10,2025-02-14_14h01.27.763,Surprise recog test,2023.1.3,59.94628812684629,
266,0,266,0,,,,,,,,,,,,,,,,,,,,,,,,,,,,,,,,,,1122.003848700013,1123.0230698000087,1120.059006800002,1120.059006800002,1120.059006800002,1120.059006800002,old_sceneOut_37.png,267,4.0,1.943247599992901,,,054,10,2025-02-14_14h01.27.763,Surprise recog test,2023.1.3,59.94628812684629,
267,0,267,0,,,,,,,,,,,,,,,,,,,,,,,,,,,,,,,,,,1126.1567241000012,1127.1769927000132,1123.0230698000087,1123.0230698000087,1123.0230698000087,1123.0230698000087,new_fruit_16.png,268,4.0,3.128877899987856,,,054,10,2025-02-14_14h01.27.763,Surprise recog test,2023.1.3,59.94628812684629,
268,0,268,0,,,,,,,,,,,,,,,,,,,,,,,,,,,,,,,,,,1130.278598200006,1131.3085913000104,1127.1769927000132,1127.1769927000132,1127.1769927000132,1127.1769927000132,new_fruit_3.png,269,4.0,3.0970710000110557,,,054,10,2025-02-14_14h01.27.763,Surprise recog test,2023.1.3,59.94628812684629,
269,0,269,0,,,,,,,,,,,,,,,,,,,,,,,,,,,,,,,,,,1133.031952300007,1134.0633067000017,1131.3085913000104,1131.3085913000104,1131.3085913000104,1131.3085913000104,new_fruit_47.png,270,5.0,1.7256098999932874,,,054,10,2025-02-14_14h01.27.763,Surprise recog test,2023.1.3,59.94628812684629,
270,0,270,0,,,,,,,,,,,,,,,,,,,,,,,,,,,,,,,,,,1136.410438100007,1137.4329115,1134.0633067000017,1134.0633067000017,1134.0633067000017,1134.0633067000017,new_sceneOut_8.png,271,5.0,2.348627600003965,,,054,10,2025-02-14_14h01.27.763,Surprise recog test,2023.1.3,59.94628812684629,
271,0,271,0,,,,,,,,,,,,,,,,,,,,,,,,,,,,,,,,,,1140.939868100002,1141.9641598000017,1137.4329115,1137.4329115,1137.4329115,1137.4329115,new_sceneOut_16.png,272,4.0,3.508426700005657,,,054,10,2025-02-14_14h01.27.763,Surprise recog test,2023.1.3,59.94628812684629,
272,0,272,0,,,,,,,,,,,,,,,,,,,,,,,,,,,,,,,,,,1145.0167100000108,1146.0391495000076,1141.9641598000017,1141.9641598000017,1141.9641598000017,1141.9641598000017,new_sceneIn_19.png,273,4.0,3.052998299986939,,,054,10,2025-02-14_14h01.27.763,Surprise recog test,2023.1.3,59.94628812684629,
273,0,273,0,,,,,,,,,,,,,,,,,,,,,,,,,,,,,,,,,,1149.2381198000076,1150.2563589000056,1146.0391495000076,1146.0391495000076,1146.0391495000076,1146.0391495000076,new_stationery_23.png,274,4.0,3.2021344999957364,,,054,10,2025-02-14_14h01.27.763,Surprise recog test,2023.1.3,59.94628812684629,
274,0,274,0,,,,,,,,,,,,,,,,,,,,,,,,,,,,,,,,,,1151.6730701000051,1152.6905908000044,1150.2563589000056,1150.2563589000056,1150.2563589000056,1150.2563589000056,new_stationery_1.png,275,4.0,1.4126010999898426,,,054,10,2025-02-14_14h01.27.763,Surprise recog test,2023.1.3,59.94628812684629,
275,0,275,0,,,,,,,,,,,,,,,,,,,,,,,,,,,,,,,,,,1155.4747608000034,1156.4840549000073,1152.6905908000044,1152.6905908000044,1152.6905908000044,1152.6905908000044,old_sceneOut_43.png,276,4.0,2.779877900000429,,,054,10,2025-02-14_14h01.27.763,Surprise recog test,2023.1.3,59.94628812684629,
276,0,276,0,,,,,,,,,,,,,,,,,,,,,,,,,,,,,,,,,,1157.8115364000114,1158.820537800013,1156.4840549000073,1156.4840549000073,1156.4840549000073,1156.4840549000073,new_sceneOut_25.png,277,5.0,1.3222291999991285,,,054,10,2025-02-14_14h01.27.763,Surprise recog test,2023.1.3,59.94628812684629,
277,0,277,0,,,,,,,,,,,,,,,,,,,,,,,,,,,,,,,,,,1161.6660787,1162.6840414000035,1158.820537800013,1158.820537800013,1158.820537800013,1158.820537800013,old_sceneOut_14.png,278,5.0,2.8419168000109494,,,054,10,2025-02-14_14h01.27.763,Surprise recog test,2023.1.3,59.94628812684629,
278,0,278,0,,,,,,,,,,,,,,,,,,,,,,,,,,,,,,,,,,1164.6468098000041,1165.6591591000033,1162.6840414000035,1162.6840414000035,1162.6840414000035,1162.6840414000035,new_sceneOut_33.png,279,3.0,1.9626461000007112,,,054,10,2025-02-14_14h01.27.763,Surprise recog test,2023.1.3,59.94628812684629,
279,0,279,0,,,,,,,,,,,,,,,,,,,,,,,,,,,,,,,,,,1167.5621398000076,1168.5893736000144,1165.6591591000033,1165.6591591000033,1165.6591591000033,1165.6591591000033,new_stationery_11.png,280,4.0,1.8988129000063054,,,054,10,2025-02-14_14h01.27.763,Surprise recog test,2023.1.3,59.94628812684629,
280,0,280,0,,,,,,,,,,,,,,,,,,,,,,,,,,,,,,,,,,1172.3899446000141,1173.3995003000018,1168.5893736000144,1168.5893736000144,1168.5893736000144,1168.5893736000144,new_stationery_29.png,281,4.0,3.8026530999923125,,,054,10,2025-02-14_14h01.27.763,Surprise recog test,2023.1.3,59.94628812684629,
281,0,281,0,,,,,,,,,,,,,,,,,,,,,,,,,,,,,,,,,,1175.2464259000117,,1173.3995003000018,1173.3995003000018,1173.3995003000018,1173.3995003000018,new_stationery_49.png,282,5.0,1.8418014999915613,,,054,10,2025-02-14_14h01.27.763,Surprise recog test,2023.1.3,59.94628812684629,
282,0,282,0,,,,,,,,,,,,,,,,,,,,,,,,,,,,,,,,,,1178.2180578000116,1179.2498957000062,1176.2798550000007,1176.2798550000007,1176.2798550000007,1176.2798550000007,old_fruit_22.png,283,1.0,1.9399317000061274,,,054,10,2025-02-14_14h01.27.763,Surprise recog test,2023.1.3,59.94628812684629,
283,0,283,0,,,,,,,,,,,,,,,,,,,,,,,,,,,,,,,,,,1181.0564067000087,1182.086850000007,1179.2498957000062,1179.2498957000062,1179.2498957000062,1179.2498957000062,old_sceneIn_39.png,284,3.0,1.8092672000057064,,,054,10,2025-02-14_14h01.27.763,Surprise recog test,2023.1.3,59.94628812684629,
284,0,284,0,,,,,,,,,,,,,,,,,,,,,,,,,,,,,,,,,,1185.0945947,1186.1225141000032,1182.086850000007,1182.086850000007,1182.086850000007,1182.086850000007,old_fruit_12.png,285,3.0,3.0097575999971014,,,054,10,2025-02-14_14h01.27.763,Surprise recog test,2023.1.3,59.94628812684629,
285,0,285,0,,,,,,,,,,,,,,,,,,,,,,,,,,,,,,,,,,1188.1920556000114,1189.2108663000108,1186.1225141000032,1186.1225141000032,1186.1225141000032,1186.1225141000032,new_sceneIn_41.png,286,4.0,2.0719054999935906,,,054,10,2025-02-14_14h01.27.763,Surprise recog test,2023.1.3,59.94628812684629,
286,0,286,0,,,,,,,,,,,,,,,,,,,,,,,,,,,,,,,,,,1190.9360283000133,1191.9640450000006,1189.2108663000108,1189.2108663000108,1189.2108663000108,1189.2108663000108,old_fruit_45.png,287,1.0,1.7196911000064574,,,054,10,2025-02-14_14h01.27.763,Surprise recog test,2023.1.3,59.94628812684629,
287,0,287,0,,,,,,,,,,,,,,,,,,,,,,,,,,,,,,,,,,1194.6224316000007,1195.6306799000013,1191.9640450000006,1191.9640450000006,1191.9640450000006,1191.9640450000006,new_stationery_12.png,288,2.0,2.6610811999998987,,,054,10,2025-02-14_14h01.27.763,Surprise recog test,2023.1.3,59.94628812684629,
288,0,288,0,,,,,,,,,,,,,,,,,,,,,,,,,,,,,,,,,,1198.9756188000028,1199.9971510000032,1195.6306799000013,1195.6306799000013,1195.6306799000013,1195.6306799000013,old_sceneIn_44.png,289,3.0,3.3413603999943007,,,054,10,2025-02-14_14h01.27.763,Surprise recog test,2023.1.3,59.94628812684629,
289,0,289,0,,,,,,,,,,,,,,,,,,,,,,,,,,,,,,,,,,1201.935183700014,,1199.9971510000032,1199.9971510000032,1199.9971510000032,1199.9971510000032,old_sceneIn_5.png,290,5.0,1.9360739000112517,,,054,10,2025-02-14_14h01.27.763,Surprise recog test,2023.1.3,59.94628812684629,
290,0,290,0,,,,,,,,,,,,,,,,,,,,,,,,,,,,,,,,,,1204.5045708000107,,1202.9699151000095,1202.9699151000095,1202.9699151000095,1202.9699151000095,new_sceneOut_22.png,291,4.0,1.5349523999902885,,,054,10,2025-02-14_14h01.27.763,Surprise recog test,2023.1.3,59.94628812684629,
291,0,291,0,,,,,,,,,,,,,,,,,,,,,,,,,,,,,,,,,,1208.97483620001,,1205.5381555000058,1205.5381555000058,1205.5381555000058,1205.5381555000058,old_sceneOut_19.png,292,4.0,3.439102999996976,,,054,10,2025-02-14_14h01.27.763,Surprise recog test,2023.1.3,59.94628812684629,
292,0,292,0,,,,,,,,,,,,,,,,,,,,,,,,,,,,,,,,,,1211.7002412000002,1212.725679500014,1210.0072507000004,1210.0072507000004,1210.0072507000004,1210.0072507000004,new_sceneOut_47.png,293,5.0,1.6948038999980781,,,054,10,2025-02-14_14h01.27.763,Surprise recog test,2023.1.3,59.94628812684629,
293,0,293,0,,,,,,,,,,,,,,,,,,,,,,,,,,,,,,,,,,1214.6102616000135,1215.6279883000097,1212.725679500014,1212.725679500014,1212.725679500014,1212.725679500014,new_sceneOut_5.png,294,4.0,1.8869100999872899,,,054,10,2025-02-14_14h01.27.763,Surprise recog test,2023.1.3,59.94628812684629,
294,0,294,0,,,,,,,,,,,,,,,,,,,,,,,,,,,,,,,,,,1220.0620890000137,1221.0707383000117,1215.6279883000097,1215.6279883000097,1215.6279883000097,1215.6279883000097,old_fruit_43.png,295,3.0,4.436008700009552,,,054,10,2025-02-14_14h01.27.763,Surprise recog test,2023.1.3,59.94628812684629,
295,0,295,0,,,,,,,,,,,,,,,,,,,,,,,,,,,,,,,,,,1222.5266206000088,1223.5507366000093,1221.0707383000117,1221.0707383000117,1221.0707383000117,1221.0707383000117,old_fruit_11.png,296,1.0,1.450455400001374,,,054,10,2025-02-14_14h01.27.763,Surprise recog test,2023.1.3,59.94628812684629,
296,0,296,0,,,,,,,,,,,,,,,,,,,,,,,,,,,,,,,,,,1225.580346200004,1226.6062530000054,1223.5507366000093,1223.5507366000093,1223.5507366000093,1223.5507366000093,old_stationery_7.png,297,2.0,2.029679399987799,,,054,10,2025-02-14_14h01.27.763,Surprise recog test,2023.1.3,59.94628812684629,
297,0,297,0,,,,,,,,,,,,,,,,,,,,,,,,,,,,,,,,,,1228.604588000002,1229.6149943000055,1226.6062530000054,1226.6062530000054,1226.6062530000054,1226.6062530000054,old_stationery_29.png,298,3.0,1.9989159000106156,,,054,10,2025-02-14_14h01.27.763,Surprise recog test,2023.1.3,59.94628812684629,
298,0,298,0,,,,,,,,,,,,,,,,,,,,,,,,,,,,,,,,,,1231.5039540000143,1232.5249820000026,1229.6149943000055,1229.6149943000055,1229.6149943000055,1229.6149943000055,new_stationery_9.png,299,4.0,1.885909900011029,,,054,10,2025-02-14_14h01.27.763,Surprise recog test,2023.1.3,59.94628812684629,
299,0,299,0,,,,,,,,,,,,,,,,,,,,,,,,,,,,,,,,,,1234.0582147000096,1235.0793808000017,1232.5249820000026,1232.5249820000026,1232.5249820000026,1232.5249820000026,new_stationery_39.png,300,5.0,1.5333366999984719,,,054,10,2025-02-14_14h01.27.763,Surprise recog test,2023.1.3,59.94628812684629,
300,0,300,0,,,,,,,,,,,,,,,,,,,,,,,,,,,,,,,,,,1237.6111784000095,1238.6322174000088,1235.0793808000017,1235.0793808000017,1235.0793808000017,1235.0793808000017,new_sceneOut_3.png,301,4.0,2.5299774000013713,,,054,10,2025-02-14_14h01.27.763,Surprise recog test,2023.1.3,59.94628812684629,
301,0,301,0,,,,,,,,,,,,,,,,,,,,,,,,,,,,,,,,,,1241.2064352000016,1242.2371021,1238.6322174000088,1238.6322174000088,1238.6322174000088,1238.6322174000088,new_sceneIn_50.png,302,4.0,2.576612999997451,,,054,10,2025-02-14_14h01.27.763,Surprise recog test,2023.1.3,59.94628812684629,
302,0,302,0,,,,,,,,,,,,,,,,,,,,,,,,,,,,,,,,,,1244.4747472000017,1245.4923252000008,1242.2371021,1242.2371021,1242.2371021,1242.2371021,old_fruit_26.png,303,1.0,2.2406499000062468,,,054,10,2025-02-14_14h01.27.763,Surprise recog test,2023.1.3,59.94628812684629,
303,0,303,0,,,,,,,,,,,,,,,,,,,,,,,,,,,,,,,,,,1248.7871976000024,1249.8050352000137,1245.4923252000008,1245.4923252000008,1245.4923252000008,1245.4923252000008,new_fruit_43.png,304,4.0,3.2838618000096176,,,054,10,2025-02-14_14h01.27.763,Surprise recog test,2023.1.3,59.94628812684629,
304,0,304,0,,,,,,,,,,,,,,,,,,,,,,,,,,,,,,,,,,1252.5338211000053,1253.553216100001,1249.8050352000137,1249.8050352000137,1249.8050352000137,1249.8050352000137,new_fruit_22.png,305,3.0,2.7267490000085672,,,054,10,2025-02-14_14h01.27.763,Surprise recog test,2023.1.3,59.94628812684629,
305,0,305,0,,,,,,,,,,,,,,,,,,,,,,,,,,,,,,,,,,1255.4163329000003,1256.4474188000022,1253.553216100001,1253.553216100001,1253.553216100001,1253.553216100001,new_stationery_4.png,306,4.0,1.8563283999974374,,,054,10,2025-02-14_14h01.27.763,Surprise recog test,2023.1.3,59.94628812684629,
306,0,306,0,,,,,,,,,,,,,,,,,,,,,,,,,,,,,,,,,,1258.531465100008,,1256.4474188000022,1256.4474188000022,1256.4474188000022,1256.4474188000022,old_sceneIn_2.png,307,1.0,2.0861533999996027,,,054,10,2025-02-14_14h01.27.763,Surprise recog test,2023.1.3,59.94628812684629,
307,0,307,0,,,,,,,,,,,,,,,,,,,,,,,,,,,,,,,,,,1261.961650000012,1262.9837442000135,1259.5663355000142,1259.5663355000142,1259.5663355000142,1259.5663355000142,new_sceneIn_37.png,308,4.0,2.3971983999945223,,,054,10,2025-02-14_14h01.27.763,Surprise recog test,2023.1.3,59.94628812684629,
308,0,308,0,,,,,,,,,,,,,,,,,,,,,,,,,,,,,,,,,,1265.6782057000091,1266.6928541000088,1262.9837442000135,1262.9837442000135,1262.9837442000135,1262.9837442000135,new_sceneOut_10.png,309,4.0,2.6947690999950282,,,054,10,2025-02-14_14h01.27.763,Surprise recog test,2023.1.3,59.94628812684629,
309,0,309,0,,,,,,,,,,,,,,,,,,,,,,,,,,,,,,,,,,1268.5692463000014,1269.5901893000118,1266.6928541000088,1266.6928541000088,1266.6928541000088,1266.6928541000088,new_stationery_10.png,310,4.0,1.8712272999982815,,,054,10,2025-02-14_14h01.27.763,Surprise recog test,2023.1.3,59.94628812684629,
310,0,310,0,,,,,,,,,,,,,,,,,,,,,,,,,,,,,,,,,,1272.7637216000003,1273.794538400005,1269.5901893000118,1269.5901893000118,1269.5901893000118,1269.5901893000118,old_fruit_29.png,311,2.0,3.1753276999952504,,,054,10,2025-02-14_14h01.27.763,Surprise recog test,2023.1.3,59.94628812684629,
311,0,311,0,,,,,,,,,,,,,,,,,,,,,,,,,,,,,,,,,,1276.3180612000142,1277.3476139000122,1273.794538400005,1273.794538400005,1273.794538400005,1273.794538400005,new_sceneOut_50.png,312,4.0,2.525096700002905,,,054,10,2025-02-14_14h01.27.763,Surprise recog test,2023.1.3,59.94628812684629,
312,0,312,0,,,,,,,,,,,,,,,,,,,,,,,,,,,,,,,,,,1279.3217997000029,1280.3335970000044,1277.3476139000122,1277.3476139000122,1277.3476139000122,1277.3476139000122,old_sceneOut_24.png,313,5.0,1.973435399995651,,,054,10,2025-02-14_14h01.27.763,Surprise recog test,2023.1.3,59.94628812684629,
313,0,313,0,,,,,,,,,,,,,,,,,,,,,,,,,,,,,,,,,,1283.2989827000129,1284.3138191000035,1280.3335970000044,1280.3335970000044,1280.3335970000044,1280.3335970000044,old_stationery_21.png,314,4.0,2.958553900010884,,,054,10,2025-02-14_14h01.27.763,Surprise recog test,2023.1.3,59.94628812684629,
314,0,314,0,,,,,,,,,,,,,,,,,,,,,,,,,,,,,,,,,,1286.6635104000015,1287.6894601000095,1284.3138191000035,1284.3138191000035,1284.3138191000035,1284.3138191000035,old_sceneIn_38.png,315,3.0,2.3507472000055714,,,054,10,2025-02-14_14h01.27.763,Surprise recog test,2023.1.3,59.94628812684629,
315,0,315,0,,,,,,,,,,,,,,,,,,,,,,,,,,,,,,,,,,1290.7018238000019,1291.71431570001,1287.6894601000095,1287.6894601000095,1287.6894601000095,1287.6894601000095,old_sceneIn_9.png,316,4.0,3.0143599000002723,,,054,10,2025-02-14_14h01.27.763,Surprise recog test,2023.1.3,59.94628812684629,
316,0,316,0,,,,,,,,,,,,,,,,,,,,,,,,,,,,,,,,,,1293.8386417000002,1294.8491625000024,1291.71431570001,1291.71431570001,1291.71431570001,1291.71431570001,old_stationery_10.png,317,3.0,2.117807200003881,,,054,10,2025-02-14_14h01.27.763,Surprise recog test,2023.1.3,59.94628812684629,
317,0,317,0,,,,,,,,,,,,,,,,,,,,,,,,,,,,,,,,,,1298.0588478000136,1299.067417600003,1294.8491625000024,1294.8491625000024,1294.8491625000024,1294.8491625000024,old_stationery_2.png,318,4.0,3.2048324000061257,,,054,10,2025-02-14_14h01.27.763,Surprise recog test,2023.1.3,59.94628812684629,
318,0,318,0,,,,,,,,,,,,,,,,,,,,,,,,,,,,,,,,,,1301.2100585000007,1302.236638100003,1299.067417600003,1299.067417600003,1299.067417600003,1299.067417600003,old_stationery_41.png,319,3.0,2.138444800002617,,,054,10,2025-02-14_14h01.27.763,Surprise recog test,2023.1.3,59.94628812684629,
319,0,319,0,,,,,,,,,,,,,,,,,,,,,,,,,,,,,,,,,,1304.7744286000088,1305.8061288000026,1302.236638100003,1302.236638100003,1302.236638100003,1302.236638100003,old_sceneOut_1.png,320,3.0,2.5398518000001786,,,054,10,2025-02-14_14h01.27.763,Surprise recog test,2023.1.3,59.94628812684629,
320,0,320,0,,,,,,,,,,,,,,,,,,,,,,,,,,,,,,,,,,1307.4094389000093,1308.4391844000056,1305.8061288000026,1305.8061288000026,1305.8061288000026,1305.8061288000026,old_stationery_22.png,321,4.0,1.6061851999984356,,,054,10,2025-02-14_14h01.27.763,Surprise recog test,2023.1.3,59.94628812684629,
321,0,321,0,,,,,,,,,,,,,,,,,,,,,,,,,,,,,,,,,,1310.1449442000012,1311.163558100001,1308.4391844000056,1308.4391844000056,1308.4391844000056,1308.4391844000056,old_fruit_25.png,322,2.0,1.7062455999985104,,,054,10,2025-02-14_14h01.27.763,Surprise recog test,2023.1.3,59.94628812684629,
322,0,322,0,,,,,,,,,,,,,,,,,,,,,,,,,,,,,,,,,,1313.3406598000001,1314.3498301000072,1311.163558100001,1311.163558100001,1311.163558100001,1311.163558100001,old_sceneIn_34.png,323,3.0,2.168966699988232,,,054,10,2025-02-14_14h01.27.763,Surprise recog test,2023.1.3,59.94628812684629,
323,0,323,0,,,,,,,,,,,,,,,,,,,,,,,,,,,,,,,,,,1315.7469998000015,,1314.3498301000072,1314.3498301000072,1314.3498301000072,1314.3498301000072,new_sceneIn_29.png,324,4.0,1.3948698999884073,,,054,10,2025-02-14_14h01.27.763,Surprise recog test,2023.1.3,59.94628812684629,
324,0,324,0,,,,,,,,,,,,,,,,,,,,,,,,,,,,,,,,,,1320.6486841000005,1321.6682690000016,1316.7790987000044,1316.7790987000044,1316.7790987000044,1316.7790987000044,old_sceneOut_15.png,325,3.0,3.8703728999971645,,,054,10,2025-02-14_14h01.27.763,Surprise recog test,2023.1.3,59.94628812684629,
325,0,325,0,,,,,,,,,,,,,,,,,,,,,,,,,,,,,,,,,,1324.6002263000119,1325.6228535000118,1321.6682690000016,1321.6682690000016,1321.6682690000016,1321.6682690000016,new_fruit_21.png,326,3.0,2.9351182999962475,,,054,10,2025-02-14_14h01.27.763,Surprise recog test,2023.1.3,59.94628812684629,
326,0,326,0,,,,,,,,,,,,,,,,,,,,,,,,,,,,,,,,,,1328.6083862000087,1329.63526000001,1325.6228535000118,1325.6228535000118,1325.6228535000118,1325.6228535000118,new_sceneOut_21.png,327,3.0,2.9871790000033798,,,054,10,2025-02-14_14h01.27.763,Surprise recog test,2023.1.3,59.94628812684629,
327,0,327,0,,,,,,,,,,,,,,,,,,,,,,,,,,,,,,,,,,1331.6898987000022,1332.7099692000047,1329.63526000001,1329.63526000001,1329.63526000001,1329.63526000001,old_sceneOut_44.png,328,4.0,2.0558275999937905,,,054,10,2025-02-14_14h01.27.763,Surprise recog test,2023.1.3,59.94628812684629,
328,0,328,0,,,,,,,,,,,,,,,,,,,,,,,,,,,,,,,,,,1334.348678600014,1335.3657612000097,1332.7099692000047,1332.7099692000047,1332.7099692000047,1332.7099692000047,new_fruit_25.png,329,2.0,1.639753399998881,,,054,10,2025-02-14_14h01.27.763,Surprise recog test,2023.1.3,59.94628812684629,
329,0,329,0,,,,,,,,,,,,,,,,,,,,,,,,,,,,,,,,,,1337.7591900000116,1338.769205500008,1335.3657612000097,1335.3657612000097,1335.3657612000097,1335.3657612000097,new_fruit_23.png,330,2.0,2.3894456999987597,,,054,10,2025-02-14_14h01.27.763,Surprise recog test,2023.1.3,59.94628812684629,
330,0,330,0,,,,,,,,,,,,,,,,,,,,,,,,,,,,,,,,,,1341.794482600002,1342.8171143000072,1338.769205500008,1338.769205500008,1338.769205500008,1338.769205500008,old_sceneIn_1.png,331,3.0,3.018157799990149,,,054,10,2025-02-14_14h01.27.763,Surprise recog test,2023.1.3,59.94628812684629,
331,0,331,0,,,,,,,,,,,,,,,,,,,,,,,,,,,,,,,,,,1344.4550095000013,1345.4749805000029,1342.8171143000072,1342.8171143000072,1342.8171143000072,1342.8171143000072,old_fruit_7.png,332,1.0,1.6388457999855746,,,054,10,2025-02-14_14h01.27.763,Surprise recog test,2023.1.3,59.94628812684629,
332,0,332,0,,,,,,,,,,,,,,,,,,,,,,,,,,,,,,,,,,1348.1864217000111,1349.2062038000004,1345.4749805000029,1345.4749805000029,1345.4749805000029,1345.4749805000029,old_fruit_44.png,333,2.0,2.7007863000035286,,,054,10,2025-02-14_14h01.27.763,Surprise recog test,2023.1.3,59.94628812684629,
333,0,333,0,,,,,,,,,,,,,,,,,,,,,,,,,,,,,,,,,,1351.3803524000105,1352.4085958000069,1349.2062038000004,1349.2062038000004,1349.2062038000004,1349.2062038000004,old_sceneIn_15.png,334,1.0,2.177739999999176,,,054,10,2025-02-14_14h01.27.763,Surprise recog test,2023.1.3,59.94628812684629,
334,0,334,0,,,,,,,,,,,,,,,,,,,,,,,,,,,,,,,,,,1355.3422150000115,1356.3516859000083,1352.4085958000069,1352.4085958000069,1352.4085958000069,1352.4085958000069,new_sceneOut_18.png,335,3.0,2.931473600008758,,,054,10,2025-02-14_14h01.27.763,Surprise recog test,2023.1.3,59.94628812684629,
335,0,335,0,,,,,,,,,,,,,,,,,,,,,,,,,,,,,,,,,,1359.4460393000045,1360.453609300006,1356.3516859000083,1356.3516859000083,1356.3516859000083,1356.3516859000083,old_sceneIn_7.png,336,4.0,3.090717900005984,,,054,10,2025-02-14_14h01.27.763,Surprise recog test,2023.1.3,59.94628812684629,
336,0,336,0,,,,,,,,,,,,,,,,,,,,,,,,,,,,,,,,,,1363.4903881000064,1364.5081515000056,1360.453609300006,1360.453609300006,1360.453609300006,1360.453609300006,new_fruit_40.png,337,5.0,3.0319281999982195,,,054,10,2025-02-14_14h01.27.763,Surprise recog test,2023.1.3,59.94628812684629,
337,0,337,0,,,,,,,,,,,,,,,,,,,,,,,,,,,,,,,,,,1366.4840640000039,1367.506435800009,1364.5081515000056,1364.5081515000056,1364.5081515000056,1364.5081515000056,new_sceneOut_42.png,338,3.0,1.9722461000055773,,,054,10,2025-02-14_14h01.27.763,Surprise recog test,2023.1.3,59.94628812684629,
338,0,338,0,,,,,,,,,,,,,,,,,,,,,,,,,,,,,,,,,,1370.4678660000063,1371.4904547000042,1367.506435800009,1367.506435800009,1367.506435800009,1367.506435800009,old_sceneOut_23.png,339,4.0,2.964424500009045,,,054,10,2025-02-14_14h01.27.763,Surprise recog test,2023.1.3,59.94628812684629,
339,0,339,0,,,,,,,,,,,,,,,,,,,,,,,,,,,,,,,,,,1374.9920871000068,1375.9997815000097,1371.4904547000042,1371.4904547000042,1371.4904547000042,1371.4904547000042,old_sceneIn_36.png,340,3.0,3.503237700002501,,,054,10,2025-02-14_14h01.27.763,Surprise recog test,2023.1.3,59.94628812684629,
340,0,340,0,,,,,,,,,,,,,,,,,,,,,,,,,,,,,,,,,,1377.407617200006,1378.432340000014,1375.9997815000097,1375.9997815000097,1375.9997815000097,1375.9997815000097,old_fruit_47.png,341,1.0,1.4030748000077438,,,054,10,2025-02-14_14h01.27.763,Surprise recog test,2023.1.3,59.94628812684629,
341,0,341,0,,,,,,,,,,,,,,,,,,,,,,,,,,,,,,,,,,1382.0917948000133,1383.1183094000007,1378.432340000014,1378.432340000014,1378.432340000014,1378.432340000014,old_fruit_39.png,342,3.0,3.662238699995214,,,054,10,2025-02-14_14h01.27.763,Surprise recog test,2023.1.3,59.94628812684629,
342,0,342,0,,,,,,,,,,,,,,,,,,,,,,,,,,,,,,,,,,1386.179135000013,1387.1924726000143,1383.1183094000007,1383.1183094000007,1383.1183094000007,1383.1183094000007,old_fruit_28.png,343,2.0,3.0630576999974437,,,054,10,2025-02-14_14h01.27.763,Surprise recog test,2023.1.3,59.94628812684629,
343,0,343,0,,,,,,,,,,,,,,,,,,,,,,,,,,,,,,,,,,1389.641122800007,,1387.1924726000143,1387.1924726000143,1387.1924726000143,1387.1924726000143,new_sceneOut_23.png,344,4.0,2.442319599998882,,,054,10,2025-02-14_14h01.27.763,Surprise recog test,2023.1.3,59.94628812684629,
344,0,344,0,,,,,,,,,,,,,,,,,,,,,,,,,,,,,,,,,,1393.6781925000105,1394.696260200013,1390.6732177000085,1390.6732177000085,1390.6732177000085,1390.6732177000085,old_fruit_35.png,345,1.0,3.0075709000084316,,,054,10,2025-02-14_14h01.27.763,Surprise recog test,2023.1.3,59.94628812684629,
345,0,345,0,,,,,,,,,,,,,,,,,,,,,,,,,,,,,,,,,,1397.4377753000008,1398.465461700005,1394.696260200013,1394.696260200013,1394.696260200013,1394.696260200013,old_sceneOut_45.png,346,4.0,2.737039100000402,,,054,10,2025-02-14_14h01.27.763,Surprise recog test,2023.1.3,59.94628812684629,
346,0,346,0,,,,,,,,,,,,,,,,,,,,,,,,,,,,,,,,,,1402.187497900013,1403.2192313000123,1398.465461700005,1398.465461700005,1398.465461700005,1398.465461700005,new_sceneIn_36.png,347,4.0,3.7228980000072625,,,054,10,2025-02-14_14h01.27.763,Surprise recog test,2023.1.3,59.94628812684629,
347,0,347,0,,,,,,,,,,,,,,,,,,,,,,,,,,,,,,,,,,1405.446606100013,1406.4729115000082,1403.2192313000123,1403.2192313000123,1403.2192313000123,1403.2192313000123,new_sceneIn_31.png,348,5.0,2.2294751000008546,,,054,10,2025-02-14_14h01.27.763,Surprise recog test,2023.1.3,59.94628812684629,
348,0,348,0,,,,,,,,,,,,,,,,,,,,,,,,,,,,,,,,,,1408.1753455000144,1409.1935131000064,1406.4729115000082,1406.4729115000082,1406.4729115000082,1406.4729115000082,new_stationery_24.png,349,4.0,1.7043133999977726,,,054,10,2025-02-14_14h01.27.763,Surprise recog test,2023.1.3,59.94628812684629,
349,0,349,0,,,,,,,,,,,,,,,,,,,,,,,,,,,,,,,,,,1410.642548200005,1411.6810699000052,1409.1935131000064,1409.1935131000064,1409.1935131000064,1409.1935131000064,old_fruit_21.png,350,1.0,1.4440973000018857,,,054,10,2025-02-14_14h01.27.763,Surprise recog test,2023.1.3,59.94628812684629,
350,0,350,0,,,,,,,,,,,,,,,,,,,,,,,,,,,,,,,,,,1413.1790224000142,1414.1989671000047,1411.6810699000052,1411.6810699000052,1411.6810699000052,1411.6810699000052,new_stationery_18.png,351,1.0,1.5022606999991694,,,054,10,2025-02-14_14h01.27.763,Surprise recog test,2023.1.3,59.94628812684629,
351,0,351,0,,,,,,,,,,,,,,,,,,,,,,,,,,,,,,,,,,1416.3516488000023,1417.3679830000037,1414.1989671000047,1414.1989671000047,1414.1989671000047,1414.1989671000047,old_sceneOut_11.png,352,3.0,2.148192200009362,,,054,10,2025-02-14_14h01.27.763,Surprise recog test,2023.1.3,59.94628812684629,
