trial_loop.thisRepN,trial_loop.thisTrialN,trial_loop.thisN,trial_loop.thisIndex,VAS_slider.started,VAS_text.started,VAS_notstressed_text.started,VAS_stressed_text.started,continue_input.started,continue_text.started,label0.started,label10.started,label20.started,label30.started,label40.started,label50.started,label60.started,label70.started,label80.started,label90.started,label100.started,VAS_slider.response,VAS_slider.rt,VAS_slider.history,Answer_VAS,continue_input.keys,instruction_text.started,continue_text_2.started,continue_input_2.started,continue_input_2.keys,continue_input_2.rt,continue_input_2.duration,example_text.started,example_slider_2.started,example_image.started,example_slider_2.response,example_slider_2.rt,fixcross.started,fixcross.stopped,front_square.started,stim_images.started,trial_inst_images.started,slider_images.started,thisImg,trial_count,slider_images.response,slider_images.rt,slider_images.stopped,outro.started,participant,condition,date,expName,psychopyVersion,frameRate,
,,,,953.1466412000591,953.1466412000591,953.1466412000591,953.1466412000591,953.1466412000591,953.1466412000591,953.1466412000591,953.1466412000591,953.1466412000591,953.1466412000591,953.1466412000591,953.1466412000591,953.1466412000591,953.1466412000591,953.1466412000591,953.1466412000591,953.1466412000591,1.8722222222222222,11.855265899910592,"[(1.8722222222222222, 11.855265899910592)]",1.8722222222222222,None,,,,,,,,,,,,,,,,,,,,,,,,056,11,2025-02-20_16h45.05.214,Surprise recog test,2023.1.3,59.95865251946728,
,,,,,,,,,,,,,,,,,,,,,,,,,,965.0271793000866,965.0271793000866,965.0271793000866,space,44.121930600027554,None,,,,,,,,,,,,,,,,,,056,11,2025-02-20_16h45.05.214,Surprise recog test,2023.1.3,59.95865251946728,
0,0,0,0,,,,,,,,,,,,,,,,,,,,,,,,,,,,,1009.2709475000156,1009.2709475000156,1009.2709475000156,1.0,23.56224460003432,1038.4571968000382,1039.4856354000513,1033.8167970000068,1033.8167970000068,1033.8167970000068,1033.8167970000068,new_sceneOut_13.png,1,5.0,4.6486193999880925,,,056,11,2025-02-20_16h45.05.214,Surprise recog test,2023.1.3,59.95865251946728,
1,0,1,0,,,,,,,,,,,,,,,,,,,,,,,,,,,,,,,,,,1041.63283830008,1042.6570660000434,1039.4856354000513,1039.4856354000513,1039.4856354000513,1039.4856354000513,new_sceneOut_27.png,2,1.0,2.145751200034283,,,056,11,2025-02-20_16h45.05.214,Surprise recog test,2023.1.3,59.95865251946728,
2,0,2,0,,,,,,,,,,,,,,,,,,,,,,,,,,,,,,,,,,1044.9501086000819,1045.9710491000442,1042.6570660000434,1042.6570660000434,1042.6570660000434,1042.6570660000434,old_sceneOut_50.png,3,5.0,2.294958099955693,,,056,11,2025-02-20_16h45.05.214,Surprise recog test,2023.1.3,59.95865251946728,
3,0,3,0,,,,,,,,,,,,,,,,,,,,,,,,,,,,,,,,,,1047.7726905000163,1048.7811044000555,1045.9710491000442,1045.9710491000442,1045.9710491000442,1045.9710491000442,new_sceneOut_48.png,4,1.0,1.802852199994959,,,056,11,2025-02-20_16h45.05.214,Surprise recog test,2023.1.3,59.95865251946728,
4,0,4,0,,,,,,,,,,,,,,,,,,,,,,,,,,,,,,,,,,1050.1760338000022,1051.1898688999936,1048.7811044000555,1048.7811044000555,1048.7811044000555,1048.7811044000555,new_sceneIn_19.png,5,1.0,1.3898290001088753,,,056,11,2025-02-20_16h45.05.214,Surprise recog test,2023.1.3,59.95865251946728,
5,0,5,0,,,,,,,,,,,,,,,,,,,,,,,,,,,,,,,,,,1052.0269005000591,1053.055730400025,1051.1898688999936,1051.1898688999936,1051.1898688999936,1051.1898688999936,old_stationery_39.png,6,1.0,0.8381240000016987,,,056,11,2025-02-20_16h45.05.214,Surprise recog test,2023.1.3,59.95865251946728,
6,0,6,0,,,,,,,,,,,,,,,,,,,,,,,,,,,,,,,,,,1053.9037509000627,1054.9337944000727,1053.055730400025,1053.055730400025,1053.055730400025,1053.055730400025,old_fruit_30.png,7,1.0,0.8530145999975502,,,056,11,2025-02-20_16h45.05.214,Surprise recog test,2023.1.3,59.95865251946728,
7,0,7,0,,,,,,,,,,,,,,,,,,,,,,,,,,,,,,,,,,1057.1131489000982,1058.1227683000034,1054.9337944000727,1054.9337944000727,1054.9337944000727,1054.9337944000727,old_sceneOut_22.png,8,1.0,2.171339699998498,,,056,11,2025-02-20_16h45.05.214,Surprise recog test,2023.1.3,59.95865251946728,
8,0,8,0,,,,,,,,,,,,,,,,,,,,,,,,,,,,,,,,,,1058.9077766000992,1059.9378024000907,1058.1227683000034,1058.1227683000034,1058.1227683000034,1058.1227683000034,old_fruit_40.png,9,1.0,0.7802900000242516,,,056,11,2025-02-20_16h45.05.214,Surprise recog test,2023.1.3,59.95865251946728,
9,0,9,0,,,,,,,,,,,,,,,,,,,,,,,,,,,,,,,,,,1060.6860977000324,,1059.9378024000907,1059.9378024000907,1059.9378024000907,1059.9378024000907,new_stationery_4.png,10,1.0,0.7510842999909073,,,056,11,2025-02-20_16h45.05.214,Surprise recog test,2023.1.3,59.95865251946728,
10,0,10,0,,,,,,,,,,,,,,,,,,,,,,,,,,,,,,,,,,1062.4323214000324,1063.4542554999935,1061.720075200079,1061.720075200079,1061.720075200079,1061.720075200079,old_fruit_44.png,11,1.0,0.7134796999162063,,,056,11,2025-02-20_16h45.05.214,Surprise recog test,2023.1.3,59.95865251946728,
11,0,11,0,,,,,,,,,,,,,,,,,,,,,,,,,,,,,,,,,,1065.252347300062,1066.2732315000612,1063.4542554999935,1063.4542554999935,1063.4542554999935,1063.4542554999935,old_sceneIn_36.png,12,1.0,1.7992401000810787,,,056,11,2025-02-20_16h45.05.214,Surprise recog test,2023.1.3,59.95865251946728,
12,0,12,0,,,,,,,,,,,,,,,,,,,,,,,,,,,,,,,,,,1067.1174521000357,1068.1386492000893,1066.2732315000612,1066.2732315000612,1066.2732315000612,1066.2732315000612,old_fruit_5.png,13,1.0,0.8404466999927536,,,056,11,2025-02-20_16h45.05.214,Surprise recog test,2023.1.3,59.95865251946728,
13,0,13,0,,,,,,,,,,,,,,,,,,,,,,,,,,,,,,,,,,1068.8581457000691,1069.8801266000373,1068.1386492000893,1068.1386492000893,1068.1386492000893,1068.1386492000893,new_fruit_2.png,14,1.0,0.7181733000325039,,,056,11,2025-02-20_16h45.05.214,Surprise recog test,2023.1.3,59.95865251946728,
14,0,14,0,,,,,,,,,,,,,,,,,,,,,,,,,,,,,,,,,,1073.047736300039,,1069.8801266000373,1069.8801266000373,1069.8801266000373,1069.8801266000373,new_fruit_38.png,15,2.0,3.1685804000589997,,,056,11,2025-02-20_16h45.05.214,Surprise recog test,2023.1.3,59.95865251946728,
15,0,15,0,,,,,,,,,,,,,,,,,,,,,,,,,,,,,,,,,,1076.2755607999861,1077.3049957000185,1074.0742229000898,1074.0742229000898,1074.0742229000898,1074.0742229000898,old_stationery_5.png,16,1.0,2.1991321000969037,,,056,11,2025-02-20_16h45.05.214,Surprise recog test,2023.1.3,59.95865251946728,
16,0,16,0,,,,,,,,,,,,,,,,,,,,,,,,,,,,,,,,,,1081.7153120000148,1082.7368461000733,1077.3049957000185,1077.3049957000185,1077.3049957000185,1077.3049957000185,old_fruit_46.png,17,3.0,4.412971999961883,,,056,11,2025-02-20_16h45.05.214,Surprise recog test,2023.1.3,59.95865251946728,
17,0,17,0,,,,,,,,,,,,,,,,,,,,,,,,,,,,,,,,,,1085.7610937000718,1086.7957577999914,1082.7368461000733,1082.7368461000733,1082.7368461000733,1082.7368461000733,new_sceneOut_25.png,18,2.0,3.025322400033474,,,056,11,2025-02-20_16h45.05.214,Surprise recog test,2023.1.3,59.95865251946728,
18,0,18,0,,,,,,,,,,,,,,,,,,,,,,,,,,,,,,,,,,1088.21024210006,,1086.7957577999914,1086.7957577999914,1086.7957577999914,1086.7957577999914,new_sceneIn_14.png,19,1.0,1.4184457999654114,,,056,11,2025-02-20_16h45.05.214,Surprise recog test,2023.1.3,59.95865251946728,
19,0,19,0,,,,,,,,,,,,,,,,,,,,,,,,,,,,,,,,,,1094.219274800038,,1089.2355724000372,1089.2355724000372,1089.2355724000372,1089.2355724000372,new_sceneIn_20.png,20,None,None,1094.212207900011,,056,11,2025-02-20_16h45.05.214,Surprise recog test,2023.1.3,59.95865251946728,
20,0,20,0,,,,,,,,,,,,,,,,,,,,,,,,,,,,,,,,,,1098.7603019000962,1099.785297500086,1095.2513604999986,1095.2513604999986,1095.2513604999986,1095.2513604999986,old_fruit_19.png,21,1.0,3.5125904999440536,,,056,11,2025-02-20_16h45.05.214,Surprise recog test,2023.1.3,59.95865251946728,
21,0,21,0,,,,,,,,,,,,,,,,,,,,,,,,,,,,,,,,,,1104.77711860009,,1099.785297500086,1099.785297500086,1099.785297500086,1099.785297500086,old_sceneOut_33.png,22,None,None,1104.7638149000704,,056,11,2025-02-20_16h45.05.214,Surprise recog test,2023.1.3,59.95865251946728,
22,0,22,0,,,,,,,,,,,,,,,,,,,,,,,,,,,,,,,,,,1107.4849715000018,1108.5105899000773,1105.8097628999967,1105.8097628999967,1105.8097628999967,1105.8097628999967,old_stationery_50.png,23,1.0,1.6783674999605864,,,056,11,2025-02-20_16h45.05.214,Surprise recog test,2023.1.3,59.95865251946728,
23,0,23,0,,,,,,,,,,,,,,,,,,,,,,,,,,,,,,,,,,1109.5077261000406,1110.5247975999955,1108.5105899000773,1108.5105899000773,1108.5105899000773,1108.5105899000773,new_sceneIn_23.png,24,1.0,0.9981489999918267,,,056,11,2025-02-20_16h45.05.214,Surprise recog test,2023.1.3,59.95865251946728,
24,0,24,0,,,,,,,,,,,,,,,,,,,,,,,,,,,,,,,,,,1111.7517163000302,1112.7808681000024,1110.5247975999955,1110.5247975999955,1110.5247975999955,1110.5247975999955,new_stationery_37.png,25,1.0,1.2285921999718994,,,056,11,2025-02-20_16h45.05.214,Surprise recog test,2023.1.3,59.95865251946728,
25,0,25,0,,,,,,,,,,,,,,,,,,,,,,,,,,,,,,,,,,1117.4482603000943,1118.4662646000506,1112.7808681000024,1112.7808681000024,1112.7808681000024,1112.7808681000024,new_sceneOut_4.png,26,2.0,4.6696617000270635,,,056,11,2025-02-20_16h45.05.214,Surprise recog test,2023.1.3,59.95865251946728,
26,0,26,0,,,,,,,,,,,,,,,,,,,,,,,,,,,,,,,,,,1120.1986044000369,1121.212616300094,1118.4662646000506,1118.4662646000506,1118.4662646000506,1118.4662646000506,new_sceneOut_28.png,27,1.0,1.7336578000104055,,,056,11,2025-02-20_16h45.05.214,Surprise recog test,2023.1.3,59.95865251946728,
27,0,27,0,,,,,,,,,,,,,,,,,,,,,,,,,,,,,,,,,,1126.2213928001001,,1121.212616300094,1121.212616300094,1121.212616300094,1121.212616300094,old_fruit_38.png,28,None,None,1126.2126275000628,,056,11,2025-02-20_16h45.05.214,Surprise recog test,2023.1.3,59.95865251946728,
28,0,28,0,,,,,,,,,,,,,,,,,,,,,,,,,,,,,,,,,,1130.02678439999,,1127.2297667000676,1127.2297667000676,1127.2297667000676,1127.2297667000676,old_fruit_14.png,29,3.0,2.7927513999165967,,,056,11,2025-02-20_16h45.05.214,Surprise recog test,2023.1.3,59.95865251946728,
29,0,29,0,,,,,,,,,,,,,,,,,,,,,,,,,,,,,,,,,,1133.4698611000786,1134.4931107000448,1131.0476102000102,1131.0476102000102,1131.0476102000102,1131.0476102000102,old_sceneIn_13.png,30,1.0,2.4140151999890804,,,056,11,2025-02-20_16h45.05.214,Surprise recog test,2023.1.3,59.95865251946728,
30,0,30,0,,,,,,,,,,,,,,,,,,,,,,,,,,,,,,,,,,1136.5676200999878,,1134.4931107000448,1134.4931107000448,1134.4931107000448,1134.4931107000448,new_fruit_5.png,31,1.0,2.07189380005002,,,056,11,2025-02-20_16h45.05.214,Surprise recog test,2023.1.3,59.95865251946728,
31,0,31,0,,,,,,,,,,,,,,,,,,,,,,,,,,,,,,,,,,1139.0185490000295,,1137.5879299000371,1137.5879299000371,1137.5879299000371,1137.5879299000371,new_sceneIn_22.png,32,1.0,1.4240444999886677,,,056,11,2025-02-20_16h45.05.214,Surprise recog test,2023.1.3,59.95865251946728,
32,0,32,0,,,,,,,,,,,,,,,,,,,,,,,,,,,,,,,,,,1145.0281613999978,,1140.0569151000818,1140.0569151000818,1140.0569151000818,1140.0569151000818,new_fruit_6.png,33,None,None,1145.0216647000052,,056,11,2025-02-20_16h45.05.214,Surprise recog test,2023.1.3,59.95865251946728,
33,0,33,0,,,,,,,,,,,,,,,,,,,,,,,,,,,,,,,,,,1148.8904391000979,1149.9189870000118,1146.0483313000295,1146.0483313000295,1146.0483313000295,1146.0483313000295,new_stationery_35.png,34,2.0,2.8359487999696285,,,056,11,2025-02-20_16h45.05.214,Surprise recog test,2023.1.3,59.95865251946728,
34,0,34,0,,,,,,,,,,,,,,,,,,,,,,,,,,,,,,,,,,1151.9503104999894,1152.982887600083,1149.9189870000118,1149.9189870000118,1149.9189870000118,1149.9189870000118,new_sceneOut_1.png,35,1.0,2.031780799967237,,,056,11,2025-02-20_16h45.05.214,Surprise recog test,2023.1.3,59.95865251946728,
35,0,35,0,,,,,,,,,,,,,,,,,,,,,,,,,,,,,,,,,,1157.6893570000539,1158.7155340000754,1152.982887600083,1152.982887600083,1152.982887600083,1152.982887600083,new_sceneOut_44.png,36,1.0,4.70863000000827,,,056,11,2025-02-20_16h45.05.214,Surprise recog test,2023.1.3,59.95865251946728,
36,0,36,0,,,,,,,,,,,,,,,,,,,,,,,,,,,,,,,,,,1160.4804909999948,1161.500143100042,1158.7155340000754,1158.7155340000754,1158.7155340000754,1158.7155340000754,old_stationery_15.png,37,1.0,1.7637048000469804,,,056,11,2025-02-20_16h45.05.214,Surprise recog test,2023.1.3,59.95865251946728,
37,0,37,0,,,,,,,,,,,,,,,,,,,,,,,,,,,,,,,,,,1163.5835170000792,1164.595218500006,1161.500143100042,1161.500143100042,1161.500143100042,1161.500143100042,new_sceneIn_25.png,38,1.0,2.0825853999704123,,,056,11,2025-02-20_16h45.05.214,Surprise recog test,2023.1.3,59.95865251946728,
38,0,38,0,,,,,,,,,,,,,,,,,,,,,,,,,,,,,,,,,,1166.5842402999988,1167.609989300021,1164.595218500006,1164.595218500006,1164.595218500006,1164.595218500006,new_sceneOut_5.png,39,5.0,1.9831947999773547,,,056,11,2025-02-20_16h45.05.214,Surprise recog test,2023.1.3,59.95865251946728,
39,0,39,0,,,,,,,,,,,,,,,,,,,,,,,,,,,,,,,,,,1170.661646499997,,1167.609989300021,1167.609989300021,1167.609989300021,1167.609989300021,new_sceneOut_20.png,40,1.0,3.0538591999793425,,,056,11,2025-02-20_16h45.05.214,Surprise recog test,2023.1.3,59.95865251946728,
40,0,40,0,,,,,,,,,,,,,,,,,,,,,,,,,,,,,,,,,,1174.5685434000334,1175.5914841000922,1171.6828927000752,1171.6828927000752,1171.6828927000752,1171.6828927000752,old_sceneOut_35.png,41,4.0,2.8775974001036957,,,056,11,2025-02-20_16h45.05.214,Surprise recog test,2023.1.3,59.95865251946728,
41,0,41,0,,,,,,,,,,,,,,,,,,,,,,,,,,,,,,,,,,1177.194812300033,1178.21860630007,1175.5914841000922,1175.5914841000922,1175.5914841000922,1175.5914841000922,old_sceneIn_10.png,42,1.0,1.6036361999576911,,,056,11,2025-02-20_16h45.05.214,Surprise recog test,2023.1.3,59.95865251946728,
42,0,42,0,,,,,,,,,,,,,,,,,,,,,,,,,,,,,,,,,,1180.1165325000184,1181.13618650008,1178.21860630007,1178.21860630007,1178.21860630007,1178.21860630007,old_fruit_10.png,43,2.0,1.898183900048025,,,056,11,2025-02-20_16h45.05.214,Surprise recog test,2023.1.3,59.95865251946728,
43,0,43,0,,,,,,,,,,,,,,,,,,,,,,,,,,,,,,,,,,1183.958381600096,1184.9781679000007,1181.13618650008,1181.13618650008,1181.13618650008,1181.13618650008,new_sceneIn_24.png,44,3.0,2.8241372000193223,,,056,11,2025-02-20_16h45.05.214,Surprise recog test,2023.1.3,59.95865251946728,
44,0,44,0,,,,,,,,,,,,,,,,,,,,,,,,,,,,,,,,,,1187.655977700022,1188.6688849000493,1184.9781679000007,1184.9781679000007,1184.9781679000007,1184.9781679000007,old_sceneOut_25.png,45,3.0,2.667586899944581,,,056,11,2025-02-20_16h45.05.214,Surprise recog test,2023.1.3,59.95865251946728,
45,0,45,0,,,,,,,,,,,,,,,,,,,,,,,,,,,,,,,,,,1190.1684282000642,1191.1954378000228,1188.6688849000493,1188.6688849000493,1188.6688849000493,1188.6688849000493,old_stationery_47.png,46,1.0,1.4965303000062704,,,056,11,2025-02-20_16h45.05.214,Surprise recog test,2023.1.3,59.95865251946728,
46,0,46,0,,,,,,,,,,,,,,,,,,,,,,,,,,,,,,,,,,1192.9975473000668,,1191.1954378000228,1191.1954378000228,1191.1954378000228,1191.1954378000228,new_fruit_26.png,47,3.0,1.8031766000203788,,,056,11,2025-02-20_16h45.05.214,Surprise recog test,2023.1.3,59.95865251946728,
47,0,47,0,,,,,,,,,,,,,,,,,,,,,,,,,,,,,,,,,,1195.3782063000835,1196.3925183000974,1194.0273655999918,1194.0273655999918,1194.0273655999918,1194.0273655999918,new_stationery_1.png,48,1.0,1.3490558000048622,,,056,11,2025-02-20_16h45.05.214,Surprise recog test,2023.1.3,59.95865251946728,
48,0,48,0,,,,,,,,,,,,,,,,,,,,,,,,,,,,,,,,,,1198.4674686000217,,1196.3925183000974,1196.3925183000974,1196.3925183000974,1196.3925183000974,new_sceneOut_17.png,49,1.0,2.0677374999504536,,,056,11,2025-02-20_16h45.05.214,Surprise recog test,2023.1.3,59.95865251946728,
49,0,49,0,,,,,,,,,,,,,,,,,,,,,,,,,,,,,,,,,,1200.6144795999862,1201.6250857000705,1199.489306100062,1199.489306100062,1199.489306100062,1199.489306100062,old_sceneIn_14.png,50,1.0,1.1209085000446066,,,056,11,2025-02-20_16h45.05.214,Surprise recog test,2023.1.3,59.95865251946728,
50,0,50,0,,,,,,,,,,,,,,,,,,,,,,,,,,,,,,,,,,1204.2592278000666,1205.2779573000735,1201.6250857000705,1201.6250857000705,1201.6250857000705,1201.6250857000705,old_sceneOut_16.png,51,4.0,2.629455800051801,,,056,11,2025-02-20_16h45.05.214,Surprise recog test,2023.1.3,59.95865251946728,
51,0,51,0,,,,,,,,,,,,,,,,,,,,,,,,,,,,,,,,,,1207.6072163000936,1208.6212649000809,1205.2779573000735,1205.2779573000735,1205.2779573000735,1205.2779573000735,old_sceneOut_39.png,52,2.0,2.324319699895568,,,056,11,2025-02-20_16h45.05.214,Surprise recog test,2023.1.3,59.95865251946728,
52,0,52,0,,,,,,,,,,,,,,,,,,,,,,,,,,,,,,,,,,1212.2727769000921,1213.2982928000856,1208.6212649000809,1208.6212649000809,1208.6212649000809,1208.6212649000809,old_fruit_23.png,53,2.0,3.6531924000009894,,,056,11,2025-02-20_16h45.05.214,Surprise recog test,2023.1.3,59.95865251946728,
53,0,53,0,,,,,,,,,,,,,,,,,,,,,,,,,,,,,,,,,,1214.5538401000667,1215.5703910000157,1213.2982928000856,1213.2982928000856,1213.2982928000856,1213.2982928000856,new_sceneOut_33.png,54,2.0,1.258350900025107,,,056,11,2025-02-20_16h45.05.214,Surprise recog test,2023.1.3,59.95865251946728,
54,0,54,0,,,,,,,,,,,,,,,,,,,,,,,,,,,,,,,,,,1218.0565056999912,1219.0797621000092,1215.5703910000157,1215.5703910000157,1215.5703910000157,1215.5703910000157,old_sceneOut_37.png,55,5.0,2.482449600007385,,,056,11,2025-02-20_16h45.05.214,Surprise recog test,2023.1.3,59.95865251946728,
55,0,55,0,,,,,,,,,,,,,,,,,,,,,,,,,,,,,,,,,,1220.9319814000046,1221.9395249000518,1219.0797621000092,1219.0797621000092,1219.0797621000092,1219.0797621000092,new_fruit_40.png,56,3.0,1.8525151000358164,,,056,11,2025-02-20_16h45.05.214,Surprise recog test,2023.1.3,59.95865251946728,
56,0,56,0,,,,,,,,,,,,,,,,,,,,,,,,,,,,,,,,,,1225.037962500006,1226.0452392000007,1221.9395249000518,1221.9395249000518,1221.9395249000518,1221.9395249000518,new_sceneIn_31.png,57,5.0,3.0957309999503195,,,056,11,2025-02-20_16h45.05.214,Surprise recog test,2023.1.3,59.95865251946728,
57,0,57,0,,,,,,,,,,,,,,,,,,,,,,,,,,,,,,,,,,1228.1128280000994,1229.1411646000342,1226.0452392000007,1226.0452392000007,1226.0452392000007,1226.0452392000007,new_sceneOut_2.png,58,4.0,2.0633722000056878,,,056,11,2025-02-20_16h45.05.214,Surprise recog test,2023.1.3,59.95865251946728,
58,0,58,0,,,,,,,,,,,,,,,,,,,,,,,,,,,,,,,,,,1230.6716677000513,1231.6794739000034,1229.1411646000342,1229.1411646000342,1229.1411646000342,1229.1411646000342,new_fruit_33.png,59,3.0,1.531677099992521,,,056,11,2025-02-20_16h45.05.214,Surprise recog test,2023.1.3,59.95865251946728,
59,0,59,0,,,,,,,,,,,,,,,,,,,,,,,,,,,,,,,,,,1234.0535560999997,1235.0765050000045,1231.6794739000034,1231.6794739000034,1231.6794739000034,1231.6794739000034,old_sceneOut_29.png,60,5.0,2.3688259000191465,,,056,11,2025-02-20_16h45.05.214,Surprise recog test,2023.1.3,59.95865251946728,
60,0,60,0,,,,,,,,,,,,,,,,,,,,,,,,,,,,,,,,,,1237.7045278000878,1238.7193799000233,1235.0765050000045,1235.0765050000045,1235.0765050000045,1235.0765050000045,new_sceneOut_22.png,61,4.0,2.6256910000229254,,,056,11,2025-02-20_16h45.05.214,Surprise recog test,2023.1.3,59.95865251946728,
61,0,61,0,,,,,,,,,,,,,,,,,,,,,,,,,,,,,,,,,,1241.9336944000097,1242.9417398000369,1238.7193799000233,1238.7193799000233,1238.7193799000233,1238.7193799000233,new_sceneIn_9.png,62,5.0,3.2082617999985814,,,056,11,2025-02-20_16h45.05.214,Surprise recog test,2023.1.3,59.95865251946728,
62,0,62,0,,,,,,,,,,,,,,,,,,,,,,,,,,,,,,,,,,1244.5619159000926,1245.577337200055,1242.9417398000369,1242.9417398000369,1242.9417398000369,1242.9417398000369,new_fruit_17.png,63,3.0,1.615379000082612,,,056,11,2025-02-20_16h45.05.214,Surprise recog test,2023.1.3,59.95865251946728,
63,0,63,0,,,,,,,,,,,,,,,,,,,,,,,,,,,,,,,,,,1248.4550688000163,1249.4708944000304,1245.577337200055,1245.577337200055,1245.577337200055,1245.577337200055,new_stationery_43.png,64,1.0,2.8721820999635383,,,056,11,2025-02-20_16h45.05.214,Surprise recog test,2023.1.3,59.95865251946728,
64,0,64,0,,,,,,,,,,,,,,,,,,,,,,,,,,,,,,,,,,1250.8914704000344,1251.8996723000892,1249.4708944000304,1249.4708944000304,1249.4708944000304,1249.4708944000304,old_stationery_12.png,65,1.0,1.4190295999869704,,,056,11,2025-02-20_16h45.05.214,Surprise recog test,2023.1.3,59.95865251946728,
65,0,65,0,,,,,,,,,,,,,,,,,,,,,,,,,,,,,,,,,,1253.882815000019,1254.905670600012,1251.8996723000892,1251.8996723000892,1251.8996723000892,1251.8996723000892,new_sceneIn_33.png,66,1.0,1.9791934000095353,,,056,11,2025-02-20_16h45.05.214,Surprise recog test,2023.1.3,59.95865251946728,
66,0,66,0,,,,,,,,,,,,,,,,,,,,,,,,,,,,,,,,,,1258.2809731999878,1259.3089431000408,1254.905670600012,1254.905670600012,1254.905670600012,1254.905670600012,new_sceneIn_21.png,67,3.0,3.3744344000006095,,,056,11,2025-02-20_16h45.05.214,Surprise recog test,2023.1.3,59.95865251946728,
67,0,67,0,,,,,,,,,,,,,,,,,,,,,,,,,,,,,,,,,,1262.8001124000875,1263.8234973000363,1259.3089431000408,1259.3089431000408,1259.3089431000408,1259.3089431000408,old_sceneOut_26.png,68,3.0,3.49245110002812,,,056,11,2025-02-20_16h45.05.214,Surprise recog test,2023.1.3,59.95865251946728,
68,0,68,0,,,,,,,,,,,,,,,,,,,,,,,,,,,,,,,,,,1265.0763032000978,1266.1057832000079,1263.8234973000363,1263.8234973000363,1263.8234973000363,1263.8234973000363,old_stationery_22.png,69,1.0,1.2545745000243187,,,056,11,2025-02-20_16h45.05.214,Surprise recog test,2023.1.3,59.95865251946728,
69,0,69,0,,,,,,,,,,,,,,,,,,,,,,,,,,,,,,,,,,1267.8474831000203,1268.8752523000585,1266.1057832000079,1266.1057832000079,1266.1057832000079,1266.1057832000079,old_fruit_12.png,70,3.0,1.742551299976185,,,056,11,2025-02-20_16h45.05.214,Surprise recog test,2023.1.3,59.95865251946728,
70,0,70,0,,,,,,,,,,,,,,,,,,,,,,,,,,,,,,,,,,1269.9636123999953,1270.983458600007,1268.8752523000585,1268.8752523000585,1268.8752523000585,1268.8752523000585,new_sceneOut_6.png,71,3.0,1.0862220000708476,,,056,11,2025-02-20_16h45.05.214,Surprise recog test,2023.1.3,59.95865251946728,
71,0,71,0,,,,,,,,,,,,,,,,,,,,,,,,,,,,,,,,,,1272.310083999997,1273.3286839000648,1270.983458600007,1270.983458600007,1270.983458600007,1270.983458600007,old_stationery_32.png,72,1.0,1.3220394999952987,,,056,11,2025-02-20_16h45.05.214,Surprise recog test,2023.1.3,59.95865251946728,
72,0,72,0,,,,,,,,,,,,,,,,,,,,,,,,,,,,,,,,,,1274.3068448000122,1275.3181838000892,1273.3286839000648,1273.3286839000648,1273.3286839000648,1273.3286839000648,old_sceneIn_22.png,73,1.0,0.9789127999683842,,,056,11,2025-02-20_16h45.05.214,Surprise recog test,2023.1.3,59.95865251946728,
73,0,73,0,,,,,,,,,,,,,,,,,,,,,,,,,,,,,,,,,,1276.4944225000218,1277.516039900016,1275.3181838000892,1275.3181838000892,1275.3181838000892,1275.3181838000892,old_fruit_26.png,74,2.0,1.1723751000827178,,,056,11,2025-02-20_16h45.05.214,Surprise recog test,2023.1.3,59.95865251946728,
74,0,74,0,,,,,,,,,,,,,,,,,,,,,,,,,,,,,,,,,,1278.753374400083,1279.7861953000538,1277.516039900016,1277.516039900016,1277.516039900016,1277.516039900016,new_stationery_26.png,75,1.0,1.2396737000672147,,,056,11,2025-02-20_16h45.05.214,Surprise recog test,2023.1.3,59.95865251946728,
75,0,75,0,,,,,,,,,,,,,,,,,,,,,,,,,,,,,,,,,,1281.3372979999986,,1279.7861953000538,1279.7861953000538,1279.7861953000538,1279.7861953000538,old_fruit_27.png,76,2.0,1.551973900059238,,,056,11,2025-02-20_16h45.05.214,Surprise recog test,2023.1.3,59.95865251946728,
76,0,76,0,,,,,,,,,,,,,,,,,,,,,,,,,,,,,,,,,,1283.963858300005,1284.989201300079,1282.3578392000636,1282.3578392000636,1282.3578392000636,1282.3578392000636,new_sceneIn_28.png,77,1.0,1.6010498999385163,,,056,11,2025-02-20_16h45.05.214,Surprise recog test,2023.1.3,59.95865251946728,
77,0,77,0,,,,,,,,,,,,,,,,,,,,,,,,,,,,,,,,,,1286.3172978000948,1287.3290020000422,1284.989201300079,1284.989201300079,1284.989201300079,1284.989201300079,old_sceneOut_27.png,78,1.0,1.3292290000244975,,,056,11,2025-02-20_16h45.05.214,Surprise recog test,2023.1.3,59.95865251946728,
78,0,78,0,,,,,,,,,,,,,,,,,,,,,,,,,,,,,,,,,,1287.9651310000336,1288.993219200056,1287.3290020000422,1287.3290020000422,1287.3290020000422,1287.3290020000422,old_stationery_44.png,79,1.0,0.6311394999502227,,,056,11,2025-02-20_16h45.05.214,Surprise recog test,2023.1.3,59.95865251946728,
79,0,79,0,,,,,,,,,,,,,,,,,,,,,,,,,,,,,,,,,,1290.2630194000667,1291.2912645000033,1288.993219200056,1288.993219200056,1288.993219200056,1288.993219200056,old_sceneIn_30.png,80,1.0,1.2716017999919131,,,056,11,2025-02-20_16h45.05.214,Surprise recog test,2023.1.3,59.95865251946728,
80,0,80,0,,,,,,,,,,,,,,,,,,,,,,,,,,,,,,,,,,1294.620499300072,1295.6481472000014,1291.2912645000033,1291.2912645000033,1291.2912645000033,1291.2912645000033,new_sceneOut_35.png,81,5.0,3.3295133999781683,,,056,11,2025-02-20_16h45.05.214,Surprise recog test,2023.1.3,59.95865251946728,
81,0,81,0,,,,,,,,,,,,,,,,,,,,,,,,,,,,,,,,,,1296.975675499998,1298.0034851999953,1295.6481472000014,1295.6481472000014,1295.6481472000014,1295.6481472000014,old_sceneOut_41.png,82,5.0,1.3256605999777094,,,056,11,2025-02-20_16h45.05.214,Surprise recog test,2023.1.3,59.95865251946728,
82,0,82,0,,,,,,,,,,,,,,,,,,,,,,,,,,,,,,,,,,1300.1781449000118,1301.1971820000326,1298.0034851999953,1298.0034851999953,1298.0034851999953,1298.0034851999953,new_sceneIn_48.png,83,1.0,2.1787878999020904,,,056,11,2025-02-20_16h45.05.214,Surprise recog test,2023.1.3,59.95865251946728,
83,0,83,0,,,,,,,,,,,,,,,,,,,,,,,,,,,,,,,,,,1303.7156447999878,1304.7279445000459,1301.1971820000326,1301.1971820000326,1301.1971820000326,1301.1971820000326,old_sceneOut_21.png,84,1.0,2.5195975999813527,,,056,11,2025-02-20_16h45.05.214,Surprise recog test,2023.1.3,59.95865251946728,
84,0,84,0,,,,,,,,,,,,,,,,,,,,,,,,,,,,,,,,,,1305.6673435000703,1306.6889355999883,1304.7279445000459,1304.7279445000459,1304.7279445000459,1304.7279445000459,new_stationery_46.png,85,1.0,0.9328838000074029,,,056,11,2025-02-20_16h45.05.214,Surprise recog test,2023.1.3,59.95865251946728,
85,0,85,0,,,,,,,,,,,,,,,,,,,,,,,,,,,,,,,,,,1307.660561800003,1308.6865348999854,1306.6889355999883,1306.6889355999883,1306.6889355999883,1306.6889355999883,new_sceneIn_3.png,86,1.0,0.9723033000482246,,,056,11,2025-02-20_16h45.05.214,Surprise recog test,2023.1.3,59.95865251946728,
86,0,86,0,,,,,,,,,,,,,,,,,,,,,,,,,,,,,,,,,,1309.6492950000102,1310.6662030000007,1308.6865348999854,1308.6865348999854,1308.6865348999854,1308.6865348999854,old_sceneIn_12.png,87,1.0,0.9580883999587968,,,056,11,2025-02-20_16h45.05.214,Surprise recog test,2023.1.3,59.95865251946728,
87,0,87,0,,,,,,,,,,,,,,,,,,,,,,,,,,,,,,,,,,1311.6961678999942,,1310.6662030000007,1310.6662030000007,1310.6662030000007,1310.6662030000007,old_stationery_17.png,88,1.0,1.022672999999486,,,056,11,2025-02-20_16h45.05.214,Surprise recog test,2023.1.3,59.95865251946728,
88,0,88,0,,,,,,,,,,,,,,,,,,,,,,,,,,,,,,,,,,1316.057223000098,1317.0709811000852,1312.7256760000018,1312.7256760000018,1312.7256760000018,1312.7256760000018,new_sceneIn_50.png,89,1.0,3.329947199905291,,,056,11,2025-02-20_16h45.05.214,Surprise recog test,2023.1.3,59.95865251946728,
89,0,89,0,,,,,,,,,,,,,,,,,,,,,,,,,,,,,,,,,,1319.7050488000968,1320.7199502000585,1317.0709811000852,1317.0709811000852,1317.0709811000852,1317.0709811000852,new_sceneOut_7.png,90,3.0,2.6272376999258995,,,056,11,2025-02-20_16h45.05.214,Surprise recog test,2023.1.3,59.95865251946728,
90,0,90,0,,,,,,,,,,,,,,,,,,,,,,,,,,,,,,,,,,1323.335476300097,1324.3534418999916,1320.7199502000585,1320.7199502000585,1320.7199502000585,1320.7199502000585,new_sceneIn_49.png,91,5.0,2.6114751999266446,,,056,11,2025-02-20_16h45.05.214,Surprise recog test,2023.1.3,59.95865251946728,
91,0,91,0,,,,,,,,,,,,,,,,,,,,,,,,,,,,,,,,,,1325.924487899989,,1324.3534418999916,1324.3534418999916,1324.3534418999916,1324.3534418999916,old_stationery_40.png,92,1.0,1.5723999999463558,,,056,11,2025-02-20_16h45.05.214,Surprise recog test,2023.1.3,59.95865251946728,
92,0,92,0,,,,,,,,,,,,,,,,,,,,,,,,,,,,,,,,,,1329.1195025000488,1330.1286571000237,1326.9573550000787,1326.9573550000787,1326.9573550000787,1326.9573550000787,new_fruit_35.png,93,3.0,2.167399000027217,,,056,11,2025-02-20_16h45.05.214,Surprise recog test,2023.1.3,59.95865251946728,
93,0,93,0,,,,,,,,,,,,,,,,,,,,,,,,,,,,,,,,,,1330.9415405000327,1331.958180100075,1330.1286571000237,1330.1286571000237,1330.1286571000237,1330.1286571000237,old_fruit_48.png,94,3.0,0.8044954999350011,,,056,11,2025-02-20_16h45.05.214,Surprise recog test,2023.1.3,59.95865251946728,
94,0,94,0,,,,,,,,,,,,,,,,,,,,,,,,,,,,,,,,,,1333.328160300036,1334.3401705999859,1331.958180100075,1331.958180100075,1331.958180100075,1331.958180100075,new_sceneOut_36.png,95,3.0,1.3694165999768302,,,056,11,2025-02-20_16h45.05.214,Surprise recog test,2023.1.3,59.95865251946728,
95,0,95,0,,,,,,,,,,,,,,,,,,,,,,,,,,,,,,,,,,1336.571246800013,1337.6043351000408,1334.3401705999859,1334.3401705999859,1334.3401705999859,1334.3401705999859,new_sceneIn_46.png,96,1.0,2.230151200084947,,,056,11,2025-02-20_16h45.05.214,Surprise recog test,2023.1.3,59.95865251946728,
96,0,96,0,,,,,,,,,,,,,,,,,,,,,,,,,,,,,,,,,,1338.551021100022,,1337.6043351000408,1337.6043351000408,1337.6043351000408,1337.6043351000408,old_sceneIn_42.png,97,1.0,0.9504537000320852,,,056,11,2025-02-20_16h45.05.214,Surprise recog test,2023.1.3,59.95865251946728,
97,0,97,0,,,,,,,,,,,,,,,,,,,,,,,,,,,,,,,,,,1343.618637100095,1344.6366947999923,1339.5778622000944,1339.5778622000944,1339.5778622000944,1339.5778622000944,new_sceneIn_36.png,98,2.0,4.03852870000992,,,056,11,2025-02-20_16h45.05.214,Surprise recog test,2023.1.3,59.95865251946728,
98,0,98,0,,,,,,,,,,,,,,,,,,,,,,,,,,,,,,,,,,1345.7672295999946,1346.7896411000984,1344.6366947999923,1344.6366947999923,1344.6366947999923,1344.6366947999923,new_fruit_1.png,99,3.0,1.1321543999947608,,,056,11,2025-02-20_16h45.05.214,Surprise recog test,2023.1.3,59.95865251946728,
99,0,99,0,,,,,,,,,,,,,,,,,,,,,,,,,,,,,,,,,,1348.0923360000597,,1346.7896411000984,1346.7896411000984,1346.7896411000984,1346.7896411000984,new_sceneOut_21.png,100,3.0,1.304948200006038,,,056,11,2025-02-20_16h45.05.214,Surprise recog test,2023.1.3,59.95865251946728,
100,0,100,0,,,,,,,,,,,,,,,,,,,,,,,,,,,,,,,,,,1351.116865899996,1352.1339078000747,1349.1272480000043,1349.1272480000043,1349.1272480000043,1349.1272480000043,new_fruit_34.png,101,3.0,1.990983400028199,,,056,11,2025-02-20_16h45.05.214,Surprise recog test,2023.1.3,59.95865251946728,
101,0,101,0,,,,,,,,,,,,,,,,,,,,,,,,,,,,,,,,,,1354.8848110000836,1355.9039349000668,1352.1339078000747,1352.1339078000747,1352.1339078000747,1352.1339078000747,old_sceneIn_7.png,102,1.0,2.746831899974495,,,056,11,2025-02-20_16h45.05.214,Surprise recog test,2023.1.3,59.95865251946728,
102,0,102,0,,,,,,,,,,,,,,,,,,,,,,,,,,,,,,,,,,1356.5733365000924,1357.5977768000448,1355.9039349000668,1355.9039349000668,1355.9039349000668,1355.9039349000668,new_stationery_39.png,103,1.0,0.6639189999550581,,,056,11,2025-02-20_16h45.05.214,Surprise recog test,2023.1.3,59.95865251946728,
103,0,103,0,,,,,,,,,,,,,,,,,,,,,,,,,,,,,,,,,,1359.9774981000228,1360.9904098000843,1357.5977768000448,1357.5977768000448,1357.5977768000448,1357.5977768000448,new_sceneOut_14.png,104,3.0,2.382700099959038,,,056,11,2025-02-20_16h45.05.214,Surprise recog test,2023.1.3,59.95865251946728,
104,0,104,0,,,,,,,,,,,,,,,,,,,,,,,,,,,,,,,,,,1362.2082100000698,1363.2387046000222,1360.9904098000843,1360.9904098000843,1360.9904098000843,1360.9904098000843,old_stationery_36.png,105,1.0,1.2113710000412539,,,056,11,2025-02-20_16h45.05.214,Surprise recog test,2023.1.3,59.95865251946728,
105,0,105,0,,,,,,,,,,,,,,,,,,,,,,,,,,,,,,,,,,1365.4398430000292,,1363.2387046000222,1363.2387046000222,1363.2387046000222,1363.2387046000222,old_fruit_43.png,106,3.0,2.203706600004807,,,056,11,2025-02-20_16h45.05.214,Surprise recog test,2023.1.3,59.95865251946728,
106,0,106,0,,,,,,,,,,,,,,,,,,,,,,,,,,,,,,,,,,1368.5335929000285,1369.5478598000482,1366.475452200044,1366.475452200044,1366.475452200044,1366.475452200044,new_fruit_36.png,107,2.0,2.0598658999660984,,,056,11,2025-02-20_16h45.05.214,Surprise recog test,2023.1.3,59.95865251946728,
107,0,107,0,,,,,,,,,,,,,,,,,,,,,,,,,,,,,,,,,,1371.978033100022,,1369.5478598000482,1369.5478598000482,1369.5478598000482,1369.5478598000482,new_fruit_37.png,108,3.0,2.42584879999049,,,056,11,2025-02-20_16h45.05.214,Surprise recog test,2023.1.3,59.95865251946728,
108,0,108,0,,,,,,,,,,,,,,,,,,,,,,,,,,,,,,,,,,1374.9972767999861,,1373.013491300051,1373.013491300051,1373.013491300051,1373.013491300051,new_sceneIn_41.png,109,1.0,1.9858459000242874,,,056,11,2025-02-20_16h45.05.214,Surprise recog test,2023.1.3,59.95865251946728,
109,0,109,0,,,,,,,,,,,,,,,,,,,,,,,,,,,,,,,,,,1377.7716513000196,1378.797552700038,1376.0189497000538,1376.0189497000538,1376.0189497000538,1376.0189497000538,new_sceneOut_3.png,110,3.0,1.7477180000860244,,,056,11,2025-02-20_16h45.05.214,Surprise recog test,2023.1.3,59.95865251946728,
110,0,110,0,,,,,,,,,,,,,,,,,,,,,,,,,,,,,,,,,,1380.8570201999974,1381.8759433000814,1378.797552700038,1378.797552700038,1378.797552700038,1378.797552700038,old_sceneOut_40.png,111,3.0,2.058969400008209,,,056,11,2025-02-20_16h45.05.214,Surprise recog test,2023.1.3,59.95865251946728,
111,0,111,0,,,,,,,,,,,,,,,,,,,,,,,,,,,,,,,,,,1386.8731087000342,,1381.8759433000814,1381.8759433000814,1381.8759433000814,1381.8759433000814,old_stationery_29.png,112,None,None,1386.8601927000564,,056,11,2025-02-20_16h45.05.214,Surprise recog test,2023.1.3,59.95865251946728,
112,0,112,0,,,,,,,,,,,,,,,,,,,,,,,,,,,,,,,,,,1387.9397327000042,1388.9586115001002,1387.8949432000518,1387.8949432000518,1387.8949432000518,1387.8949432000518,new_sceneIn_47.png,113,1.0,0.049927799962460995,,,056,11,2025-02-20_16h45.05.214,Surprise recog test,2023.1.3,59.95865251946728,
113,0,113,0,,,,,,,,,,,,,,,,,,,,,,,,,,,,,,,,,,1391.1499708000338,1392.1658639000962,1388.9586115001002,1388.9586115001002,1388.9586115001002,1388.9586115001002,old_sceneOut_48.png,114,1.0,2.1896583000198007,,,056,11,2025-02-20_16h45.05.214,Surprise recog test,2023.1.3,59.95865251946728,
114,0,114,0,,,,,,,,,,,,,,,,,,,,,,,,,,,,,,,,,,1393.5629437000025,,1392.1658639000962,1392.1658639000962,1392.1658639000962,1392.1658639000962,old_stationery_43.png,115,1.0,1.3936228000093251,,,056,11,2025-02-20_16h45.05.214,Surprise recog test,2023.1.3,59.95865251946728,
115,0,115,0,,,,,,,,,,,,,,,,,,,,,,,,,,,,,,,,,,1397.1677644000156,1398.1975946000312,1394.5982127999887,1394.5982127999887,1394.5982127999887,1394.5982127999887,old_sceneIn_47.png,116,5.0,2.5711162999505177,,,056,11,2025-02-20_16h45.05.214,Surprise recog test,2023.1.3,59.95865251946728,
116,0,116,0,,,,,,,,,,,,,,,,,,,,,,,,,,,,,,,,,,1400.7478391000768,1401.7712869000388,1398.1975946000312,1398.1975946000312,1398.1975946000312,1398.1975946000312,old_sceneIn_44.png,117,1.0,2.552637299988419,,,056,11,2025-02-20_16h45.05.214,Surprise recog test,2023.1.3,59.95865251946728,
117,0,117,0,,,,,,,,,,,,,,,,,,,,,,,,,,,,,,,,,,1402.8257063000929,1403.8578257000772,1401.7712869000388,1401.7712869000388,1401.7712869000388,1401.7712869000388,old_stationery_19.png,118,1.0,1.0576546000083908,,,056,11,2025-02-20_16h45.05.214,Surprise recog test,2023.1.3,59.95865251946728,
118,0,118,0,,,,,,,,,,,,,,,,,,,,,,,,,,,,,,,,,,1405.7571347000776,,1403.8578257000772,1403.8578257000772,1403.8578257000772,1403.8578257000772,old_sceneIn_32.png,119,5.0,1.9028008999302983,,,056,11,2025-02-20_16h45.05.214,Surprise recog test,2023.1.3,59.95865251946728,
119,0,119,0,,,,,,,,,,,,,,,,,,,,,,,,,,,,,,,,,,1408.3380367000354,1409.3609108000528,1406.780464300071,1406.780464300071,1406.780464300071,1406.780464300071,new_fruit_19.png,120,4.0,1.5553316000150517,,,056,11,2025-02-20_16h45.05.214,Surprise recog test,2023.1.3,59.95865251946728,
120,0,120,0,,,,,,,,,,,,,,,,,,,,,,,,,,,,,,,,,,1410.7497245999984,1411.77953290008,1409.3609108000528,1409.3609108000528,1409.3609108000528,1409.3609108000528,new_stationery_40.png,121,1.0,1.390747099998407,,,056,11,2025-02-20_16h45.05.214,Surprise recog test,2023.1.3,59.95865251946728,
121,0,121,0,,,,,,,,,,,,,,,,,,,,,,,,,,,,,,,,,,1413.379980500089,,1411.77953290008,1411.77953290008,1411.77953290008,1411.77953290008,old_sceneOut_6.png,122,3.0,1.6025360999628901,,,056,11,2025-02-20_16h45.05.214,Surprise recog test,2023.1.3,59.95865251946728,
122,0,122,0,,,,,,,,,,,,,,,,,,,,,,,,,,,,,,,,,,1415.5108504000818,1416.5262741000624,1414.4007845000597,1414.4007845000597,1414.4007845000597,1414.4007845000597,old_stationery_27.png,123,1.0,1.1051437000278383,,,056,11,2025-02-20_16h45.05.214,Surprise recog test,2023.1.3,59.95865251946728,
123,0,123,0,,,,,,,,,,,,,,,,,,,,,,,,,,,,,,,,,,1417.4966162000783,1418.5180888000177,1416.5262741000624,1416.5262741000624,1416.5262741000624,1416.5262741000624,new_stationery_23.png,124,1.0,0.9652271999511868,,,056,11,2025-02-20_16h45.05.214,Surprise recog test,2023.1.3,59.95865251946728,
124,0,124,0,,,,,,,,,,,,,,,,,,,,,,,,,,,,,,,,,,1419.3434744999977,1420.3722439000849,1418.5180888000177,1418.5180888000177,1418.5180888000177,1418.5180888000177,new_stationery_45.png,125,1.0,0.8265740000642836,,,056,11,2025-02-20_16h45.05.214,Surprise recog test,2023.1.3,59.95865251946728,
125,0,125,0,,,,,,,,,,,,,,,,,,,,,,,,,,,,,,,,,,1422.0551938000135,1423.0817906000884,1420.3722439000849,1420.3722439000849,1420.3722439000849,1420.3722439000849,new_fruit_7.png,126,4.0,1.6860510000260547,,,056,11,2025-02-20_16h45.05.214,Surprise recog test,2023.1.3,59.95865251946728,
126,0,126,0,,,,,,,,,,,,,,,,,,,,,,,,,,,,,,,,,,1424.8542143000523,1425.8709070000332,1423.0817906000884,1423.0817906000884,1423.0817906000884,1423.0817906000884,old_sceneIn_25.png,127,1.0,1.773321499931626,,,056,11,2025-02-20_16h45.05.214,Surprise recog test,2023.1.3,59.95865251946728,
127,0,127,0,,,,,,,,,,,,,,,,,,,,,,,,,,,,,,,,,,1428.0854544000467,1429.0994229000062,1425.8709070000332,1425.8709070000332,1425.8709070000332,1425.8709070000332,old_fruit_39.png,128,2.0,2.213676300016232,,,056,11,2025-02-20_16h45.05.214,Surprise recog test,2023.1.3,59.95865251946728,
128,0,128,0,,,,,,,,,,,,,,,,,,,,,,,,,,,,,,,,,,1431.0245810000924,1432.0454216999933,1429.0994229000062,1429.0994229000062,1429.0994229000062,1429.0994229000062,new_sceneOut_47.png,129,5.0,1.9216361999278888,,,056,11,2025-02-20_16h45.05.214,Surprise recog test,2023.1.3,59.95865251946728,
129,0,129,0,,,,,,,,,,,,,,,,,,,,,,,,,,,,,,,,,,1434.2180586000904,1435.2358612000244,1432.0454216999933,1432.0454216999933,1432.0454216999933,1432.0454216999933,old_sceneIn_49.png,130,1.0,2.1751032000174746,,,056,11,2025-02-20_16h45.05.214,Surprise recog test,2023.1.3,59.95865251946728,
130,0,130,0,,,,,,,,,,,,,,,,,,,,,,,,,,,,,,,,,,1436.2968055000529,1437.3121442000847,1435.2358612000244,1435.2358612000244,1435.2358612000244,1435.2358612000244,new_fruit_47.png,131,3.0,1.056942900060676,,,056,11,2025-02-20_16h45.05.214,Surprise recog test,2023.1.3,59.95865251946728,
131,0,131,0,,,,,,,,,,,,,,,,,,,,,,,,,,,,,,,,,,1438.5813707000343,1439.5937639999902,1437.3121442000847,1437.3121442000847,1437.3121442000847,1437.3121442000847,old_stationery_31.png,132,1.0,1.2698097999673337,,,056,11,2025-02-20_16h45.05.214,Surprise recog test,2023.1.3,59.95865251946728,
132,0,132,0,,,,,,,,,,,,,,,,,,,,,,,,,,,,,,,,,,1441.0154312000377,1442.0242191000143,1439.5937639999902,1439.5937639999902,1439.5937639999902,1439.5937639999902,new_fruit_16.png,133,4.0,1.4200169000541791,,,056,11,2025-02-20_16h45.05.214,Surprise recog test,2023.1.3,59.95865251946728,
133,0,133,0,,,,,,,,,,,,,,,,,,,,,,,,,,,,,,,,,,1443.1904190999921,1444.210005300003,1442.0242191000143,1442.0242191000143,1442.0242191000143,1442.0242191000143,new_stationery_7.png,134,1.0,1.161651200032793,,,056,11,2025-02-20_16h45.05.214,Surprise recog test,2023.1.3,59.95865251946728,
134,0,134,0,,,,,,,,,,,,,,,,,,,,,,,,,,,,,,,,,,1444.85945800005,1445.8781978000188,1444.210005300003,1444.210005300003,1444.210005300003,1444.210005300003,new_stationery_2.png,135,1.0,0.6456819000886753,,,056,11,2025-02-20_16h45.05.214,Surprise recog test,2023.1.3,59.95865251946728,
135,0,135,0,,,,,,,,,,,,,,,,,,,,,,,,,,,,,,,,,,1447.4062015000964,1448.4246042000595,1445.8781978000188,1445.8781978000188,1445.8781978000188,1445.8781978000188,new_sceneOut_39.png,136,5.0,1.5228542999830097,,,056,11,2025-02-20_16h45.05.214,Surprise recog test,2023.1.3,59.95865251946728,
136,0,136,0,,,,,,,,,,,,,,,,,,,,,,,,,,,,,,,,,,1449.9648330000928,1450.9862276000204,1448.4246042000595,1448.4246042000595,1448.4246042000595,1448.4246042000595,new_fruit_23.png,137,3.0,1.5405540999490768,,,056,11,2025-02-20_16h45.05.214,Surprise recog test,2023.1.3,59.95865251946728,
137,0,137,0,,,,,,,,,,,,,,,,,,,,,,,,,,,,,,,,,,1451.5082695999881,1452.5127257000422,1450.9862276000204,1450.9862276000204,1450.9862276000204,1450.9862276000204,new_fruit_3.png,138,3.0,0.5150657000485808,,,056,11,2025-02-20_16h45.05.214,Surprise recog test,2023.1.3,59.95865251946728,
138,0,138,0,,,,,,,,,,,,,,,,,,,,,,,,,,,,,,,,,,1454.417408300098,1455.4483633000636,1452.5127257000422,1452.5127257000422,1452.5127257000422,1452.5127257000422,old_sceneIn_40.png,139,5.0,1.898035699967295,,,056,11,2025-02-20_16h45.05.214,Surprise recog test,2023.1.3,59.95865251946728,
139,0,139,0,,,,,,,,,,,,,,,,,,,,,,,,,,,,,,,,,,1457.3406264000805,1458.3536981000798,1455.4483633000636,1455.4483633000636,1455.4483633000636,1455.4483633000636,old_fruit_21.png,140,4.0,1.8935197999235243,,,056,11,2025-02-20_16h45.05.214,Surprise recog test,2023.1.3,59.95865251946728,
140,0,140,0,,,,,,,,,,,,,,,,,,,,,,,,,,,,,,,,,,1460.8942217000294,1461.9241026000818,1458.3536981000798,1458.3536981000798,1458.3536981000798,1458.3536981000798,new_sceneOut_12.png,141,3.0,2.535767799941823,,,056,11,2025-02-20_16h45.05.214,Surprise recog test,2023.1.3,59.95865251946728,
141,0,141,0,,,,,,,,,,,,,,,,,,,,,,,,,,,,,,,,,,1464.384684400051,1465.406881300034,1461.9241026000818,1461.9241026000818,1461.9241026000818,1461.9241026000818,old_sceneOut_49.png,142,3.0,2.4635503999888897,,,056,11,2025-02-20_16h45.05.214,Surprise recog test,2023.1.3,59.95865251946728,
142,0,142,0,,,,,,,,,,,,,,,,,,,,,,,,,,,,,,,,,,1467.1378695000894,1468.1601351000136,1465.406881300034,1465.406881300034,1465.406881300034,1465.406881300034,new_fruit_29.png,143,1.0,1.7318598000565544,,,056,11,2025-02-20_16h45.05.214,Surprise recog test,2023.1.3,59.95865251946728,
143,0,143,0,,,,,,,,,,,,,,,,,,,,,,,,,,,,,,,,,,1468.8510554000968,1469.8636613000417,1468.1601351000136,1468.1601351000136,1468.1601351000136,1468.1601351000136,old_stationery_26.png,144,1.0,0.6933694999897853,,,056,11,2025-02-20_16h45.05.214,Surprise recog test,2023.1.3,59.95865251946728,
144,0,144,0,,,,,,,,,,,,,,,,,,,,,,,,,,,,,,,,,,1471.1403928000946,1472.1613117000088,1469.8636613000417,1469.8636613000417,1469.8636613000417,1469.8636613000417,old_fruit_49.png,145,2.0,1.2724958000471815,,,056,11,2025-02-20_16h45.05.214,Surprise recog test,2023.1.3,59.95865251946728,
145,0,145,0,,,,,,,,,,,,,,,,,,,,,,,,,,,,,,,,,,1473.3336639000336,1474.3615686000558,1472.1613117000088,1472.1613117000088,1472.1613117000088,1472.1613117000088,new_sceneIn_44.png,146,1.0,1.1695913000730798,,,056,11,2025-02-20_16h45.05.214,Surprise recog test,2023.1.3,59.95865251946728,
146,0,146,0,,,,,,,,,,,,,,,,,,,,,,,,,,,,,,,,,,1474.9776242000517,1475.9823264000006,1474.3615686000558,1474.3615686000558,1474.3615686000558,1474.3615686000558,old_sceneIn_17.png,147,1.0,0.615965300006792,,,056,11,2025-02-20_16h45.05.214,Surprise recog test,2023.1.3,59.95865251946728,
147,0,147,0,,,,,,,,,,,,,,,,,,,,,,,,,,,,,,,,,,1477.3451341000618,1478.3657752000727,1475.9823264000006,1475.9823264000006,1475.9823264000006,1475.9823264000006,new_sceneIn_18.png,148,1.0,1.357956999912858,,,056,11,2025-02-20_16h45.05.214,Surprise recog test,2023.1.3,59.95865251946728,
148,0,148,0,,,,,,,,,,,,,,,,,,,,,,,,,,,,,,,,,,1480.646052600001,1481.6679638000205,1478.3657752000727,1478.3657752000727,1478.3657752000727,1478.3657752000727,new_sceneOut_50.png,149,5.0,2.2818454999942333,,,056,11,2025-02-20_16h45.05.214,Surprise recog test,2023.1.3,59.95865251946728,
149,0,149,0,,,,,,,,,,,,,,,,,,,,,,,,,,,,,,,,,,1483.03400720004,1484.048230500077,1481.6679638000205,1481.6679638000205,1481.6679638000205,1481.6679638000205,old_sceneIn_11.png,150,4.0,1.3677322999574244,,,056,11,2025-02-20_16h45.05.214,Surprise recog test,2023.1.3,59.95865251946728,
150,0,150,0,,,,,,,,,,,,,,,,,,,,,,,,,,,,,,,,,,1485.4581390999956,1486.4784374000737,1484.048230500077,1484.048230500077,1484.048230500077,1484.048230500077,old_stationery_4.png,151,1.0,1.4101460999809206,,,056,11,2025-02-20_16h45.05.214,Surprise recog test,2023.1.3,59.95865251946728,
151,0,151,0,,,,,,,,,,,,,,,,,,,,,,,,,,,,,,,,,,1487.7734775000717,1488.7882916000672,1486.4784374000737,1486.4784374000737,1486.4784374000737,1486.4784374000737,new_fruit_39.png,152,3.0,1.2884919000789523,,,056,11,2025-02-20_16h45.05.214,Surprise recog test,2023.1.3,59.95865251946728,
152,0,152,0,,,,,,,,,,,,,,,,,,,,,,,,,,,,,,,,,,1490.0564019000158,1491.06990760006,1488.7882916000672,1488.7882916000672,1488.7882916000672,1488.7882916000672,old_stationery_20.png,153,1.0,1.2662486999761313,,,056,11,2025-02-20_16h45.05.214,Surprise recog test,2023.1.3,59.95865251946728,
153,0,153,0,,,,,,,,,,,,,,,,,,,,,,,,,,,,,,,,,,1492.70939860004,1493.719381300034,1491.06990760006,1491.06990760006,1491.06990760006,1491.06990760006,new_sceneOut_49.png,154,1.0,1.6397975999861956,,,056,11,2025-02-20_16h45.05.214,Surprise recog test,2023.1.3,59.95865251946728,
154,0,154,0,,,,,,,,,,,,,,,,,,,,,,,,,,,,,,,,,,1494.5724518999923,1495.5857558000134,1493.719381300034,1493.719381300034,1493.719381300034,1493.719381300034,old_stationery_7.png,155,1.0,0.8491216999245808,,,056,11,2025-02-20_16h45.05.214,Surprise recog test,2023.1.3,59.95865251946728,
155,0,155,0,,,,,,,,,,,,,,,,,,,,,,,,,,,,,,,,,,1496.7743068999844,1497.7995353000006,1495.5857558000134,1495.5857558000134,1495.5857558000134,1495.5857558000134,old_sceneOut_32.png,156,3.0,1.1830778999719769,,,056,11,2025-02-20_16h45.05.214,Surprise recog test,2023.1.3,59.95865251946728,
156,0,156,0,,,,,,,,,,,,,,,,,,,,,,,,,,,,,,,,,,1499.154171000002,1500.1845014999853,1497.7995353000006,1497.7995353000006,1497.7995353000006,1497.7995353000006,new_sceneIn_35.png,157,4.0,1.3570130999432877,,,056,11,2025-02-20_16h45.05.214,Surprise recog test,2023.1.3,59.95865251946728,
157,0,157,0,,,,,,,,,,,,,,,,,,,,,,,,,,,,,,,,,,1501.2804229999892,1502.297322700033,1500.1845014999853,1500.1845014999853,1500.1845014999853,1500.1845014999853,new_fruit_8.png,158,3.0,1.1001840999815613,,,056,11,2025-02-20_16h45.05.214,Surprise recog test,2023.1.3,59.95865251946728,
158,0,158,0,,,,,,,,,,,,,,,,,,,,,,,,,,,,,,,,,,1503.9349794000154,1504.9437586000422,1502.297322700033,1502.297322700033,1502.297322700033,1502.297322700033,new_stationery_10.png,159,1.0,1.6355912999715656,,,056,11,2025-02-20_16h45.05.214,Surprise recog test,2023.1.3,59.95865251946728,
159,0,159,0,,,,,,,,,,,,,,,,,,,,,,,,,,,,,,,,,,1506.0641548000276,1507.0817900000839,1504.9437586000422,1504.9437586000422,1504.9437586000422,1504.9437586000422,new_sceneIn_39.png,160,1.0,1.1161303999833763,,,056,11,2025-02-20_16h45.05.214,Surprise recog test,2023.1.3,59.95865251946728,
160,0,160,0,,,,,,,,,,,,,,,,,,,,,,,,,,,,,,,,,,1508.4548811999848,1509.4635363999987,1507.0817900000839,1507.0817900000839,1507.0817900000839,1507.0817900000839,old_fruit_7.png,161,3.0,1.3713423000881448,,,056,11,2025-02-20_16h45.05.214,Surprise recog test,2023.1.3,59.95865251946728,
161,0,161,0,,,,,,,,,,,,,,,,,,,,,,,,,,,,,,,,,,1511.6922917000484,1512.710223400034,1509.4635363999987,1509.4635363999987,1509.4635363999987,1509.4635363999987,old_sceneIn_41.png,162,5.0,2.221914599998854,,,056,11,2025-02-20_16h45.05.214,Surprise recog test,2023.1.3,59.95865251946728,
162,0,162,0,,,,,,,,,,,,,,,,,,,,,,,,,,,,,,,,,,1513.8900235000765,1514.9109960000496,1512.710223400034,1512.710223400034,1512.710223400034,1512.710223400034,old_stationery_11.png,163,1.0,1.1790982000529766,,,056,11,2025-02-20_16h45.05.214,Surprise recog test,2023.1.3,59.95865251946728,
163,0,163,0,,,,,,,,,,,,,,,,,,,,,,,,,,,,,,,,,,1516.3959579000948,1517.408263200079,1514.9109960000496,1514.9109960000496,1514.9109960000496,1514.9109960000496,new_sceneIn_4.png,164,1.0,1.487305499962531,,,056,11,2025-02-20_16h45.05.214,Surprise recog test,2023.1.3,59.95865251946728,
164,0,164,0,,,,,,,,,,,,,,,,,,,,,,,,,,,,,,,,,,1519.2383329999866,1520.2663119999925,1517.408263200079,1517.408263200079,1517.408263200079,1517.408263200079,old_sceneIn_9.png,165,1.0,1.8299607000080869,,,056,11,2025-02-20_16h45.05.214,Surprise recog test,2023.1.3,59.95865251946728,
165,0,165,0,,,,,,,,,,,,,,,,,,,,,,,,,,,,,,,,,,1521.0063924000133,1522.030968300067,1520.2663119999925,1520.2663119999925,1520.2663119999925,1520.2663119999925,new_stationery_29.png,166,1.0,0.7411223000381142,,,056,11,2025-02-20_16h45.05.214,Surprise recog test,2023.1.3,59.95865251946728,
166,0,166,0,,,,,,,,,,,,,,,,,,,,,,,,,,,,,,,,,,1523.0351248000516,1524.044202900026,1522.030968300067,1522.030968300067,1522.030968300067,1522.030968300067,new_sceneIn_32.png,167,1.0,1.0055567000526935,,,056,11,2025-02-20_16h45.05.214,Surprise recog test,2023.1.3,59.95865251946728,
167,0,167,0,,,,,,,,,,,,,,,,,,,,,,,,,,,,,,,,,,1524.7997739000712,1525.8244063000893,1524.044202900026,1524.044202900026,1524.044202900026,1524.044202900026,new_stationery_27.png,168,1.0,0.7516669000033289,,,056,11,2025-02-20_16h45.05.214,Surprise recog test,2023.1.3,59.95865251946728,
168,0,168,0,,,,,,,,,,,,,,,,,,,,,,,,,,,,,,,,,,1526.5446389000863,1527.562700600014,1525.8244063000893,1525.8244063000893,1525.8244063000893,1525.8244063000893,old_stationery_1.png,169,1.0,0.7227061999728903,,,056,11,2025-02-20_16h45.05.214,Surprise recog test,2023.1.3,59.95865251946728,
169,0,169,0,,,,,,,,,,,,,,,,,,,,,,,,,,,,,,,,,,1528.2459837000351,1529.2760467000771,1527.562700600014,1527.562700600014,1527.562700600014,1527.562700600014,new_stationery_28.png,170,1.0,0.6787616000510752,,,056,11,2025-02-20_16h45.05.214,Surprise recog test,2023.1.3,59.95865251946728,
170,0,170,0,,,,,,,,,,,,,,,,,,,,,,,,,,,,,,,,,,1530.917759400094,1531.9375935000135,1529.2760467000771,1529.2760467000771,1529.2760467000771,1529.2760467000771,old_fruit_20.png,171,3.0,1.640937399934046,,,056,11,2025-02-20_16h45.05.214,Surprise recog test,2023.1.3,59.95865251946728,
171,0,171,0,,,,,,,,,,,,,,,,,,,,,,,,,,,,,,,,,,1534.1911148000509,1535.2017828000244,1531.9375935000135,1531.9375935000135,1531.9375935000135,1531.9375935000135,old_sceneOut_38.png,172,3.0,2.2498704000608996,,,056,11,2025-02-20_16h45.05.214,Surprise recog test,2023.1.3,59.95865251946728,
172,0,172,0,,,,,,,,,,,,,,,,,,,,,,,,,,,,,,,,,,1536.2118293000385,1537.2263326999964,1535.2017828000244,1535.2017828000244,1535.2017828000244,1535.2017828000244,new_fruit_9.png,173,3.0,1.0043959999457002,,,056,11,2025-02-20_16h45.05.214,Surprise recog test,2023.1.3,59.95865251946728,
173,0,173,0,,,,,,,,,,,,,,,,,,,,,,,,,,,,,,,,,,1538.2539105000906,1539.2721466000658,1537.2263326999964,1537.2263326999964,1537.2263326999964,1537.2263326999964,old_sceneOut_11.png,174,3.0,1.0217965999618173,,,056,11,2025-02-20_16h45.05.214,Surprise recog test,2023.1.3,59.95865251946728,
174,0,174,0,,,,,,,,,,,,,,,,,,,,,,,,,,,,,,,,,,1541.3306581000797,1542.33759130002,1539.2721466000658,1539.2721466000658,1539.2721466000658,1539.2721466000658,old_sceneOut_12.png,175,3.0,2.0544825000688434,,,056,11,2025-02-20_16h45.05.214,Surprise recog test,2023.1.3,59.95865251946728,
175,0,175,0,,,,,,,,,,,,,,,,,,,,,,,,,,,,,,,,,,1543.0578269000398,1544.0893920999952,1542.33759130002,1542.33759130002,1542.33759130002,1542.33759130002,old_fruit_2.png,176,3.0,0.7151981999631971,,,056,11,2025-02-20_16h45.05.214,Surprise recog test,2023.1.3,59.95865251946728,
176,0,176,0,,,,,,,,,,,,,,,,,,,,,,,,,,,,,,,,,,1546.5479768000077,1547.5757620000513,1544.0893920999952,1544.0893920999952,1544.0893920999952,1544.0893920999952,old_sceneIn_31.png,177,1.0,2.461219499935396,,,056,11,2025-02-20_16h45.05.214,Surprise recog test,2023.1.3,59.95865251946728,
177,0,177,0,,,,,,,,,,,,,,,,,,,,,,,,,,,,,,,,,,1549.2559907000978,1550.2789110000012,1547.5757620000513,1547.5757620000513,1547.5757620000513,1547.5757620000513,new_sceneIn_10.png,178,1.0,1.6772281000157818,,,056,11,2025-02-20_16h45.05.214,Surprise recog test,2023.1.3,59.95865251946728,
178,0,178,0,,,,,,,,,,,,,,,,,,,,,,,,,,,,,,,,,,1552.5713403000263,1553.5967674000422,1550.2789110000012,1550.2789110000012,1550.2789110000012,1550.2789110000012,old_fruit_36.png,179,3.0,2.300209700013511,,,056,11,2025-02-20_16h45.05.214,Surprise recog test,2023.1.3,59.95865251946728,
179,0,179,0,,,,,,,,,,,,,,,,,,,,,,,,,,,,,,,,,,1555.8814039999852,,1553.5967674000422,1553.5967674000422,1553.5967674000422,1553.5967674000422,new_sceneOut_45.png,180,3.0,2.287300599971786,,,056,11,2025-02-20_16h45.05.214,Surprise recog test,2023.1.3,59.95865251946728,
180,0,180,0,,,,,,,,,,,,,,,,,,,,,,,,,,,,,,,,,,1558.9446160000516,1559.967294500093,1556.9146288000047,1556.9146288000047,1556.9146288000047,1556.9146288000047,new_sceneIn_17.png,181,5.0,2.030891500064172,,,056,11,2025-02-20_16h45.05.214,Surprise recog test,2023.1.3,59.95865251946728,
181,0,181,0,,,,,,,,,,,,,,,,,,,,,,,,,,,,,,,,,,1562.1480337000685,1563.1583969000494,1559.967294500093,1559.967294500093,1559.967294500093,1559.967294500093,old_sceneOut_20.png,182,1.0,2.1825067000463605,,,056,11,2025-02-20_16h45.05.214,Surprise recog test,2023.1.3,59.95865251946728,
182,0,182,0,,,,,,,,,,,,,,,,,,,,,,,,,,,,,,,,,,1564.334264800069,1565.3439214000246,1563.1583969000494,1563.1583969000494,1563.1583969000494,1563.1583969000494,old_fruit_17.png,183,3.0,1.1715102000162005,,,056,11,2025-02-20_16h45.05.214,Surprise recog test,2023.1.3,59.95865251946728,
183,0,183,0,,,,,,,,,,,,,,,,,,,,,,,,,,,,,,,,,,1568.524481200031,,1565.3439214000246,1565.3439214000246,1565.3439214000246,1565.3439214000246,new_sceneIn_40.png,184,5.0,3.173225999926217,,,056,11,2025-02-20_16h45.05.214,Surprise recog test,2023.1.3,59.95865251946728,
184,0,184,0,,,,,,,,,,,,,,,,,,,,,,,,,,,,,,,,,,1571.6855720999883,1572.70174030005,1569.543345300015,1569.543345300015,1569.543345300015,1569.543345300015,old_sceneOut_17.png,185,4.0,2.1381456999806687,,,056,11,2025-02-20_16h45.05.214,Surprise recog test,2023.1.3,59.95865251946728,
185,0,185,0,,,,,,,,,,,,,,,,,,,,,,,,,,,,,,,,,,1573.970943500055,1574.9855951000936,1572.70174030005,1572.70174030005,1572.70174030005,1572.70174030005,new_stationery_32.png,186,1.0,1.2641529999673367,,,056,11,2025-02-20_16h45.05.214,Surprise recog test,2023.1.3,59.95865251946728,
186,0,186,0,,,,,,,,,,,,,,,,,,,,,,,,,,,,,,,,,,1576.3122036000714,1577.3270018000621,1574.9855951000936,1574.9855951000936,1574.9855951000936,1574.9855951000936,new_fruit_14.png,187,3.0,1.3226988000096753,,,056,11,2025-02-20_16h45.05.214,Surprise recog test,2023.1.3,59.95865251946728,
187,0,187,0,,,,,,,,,,,,,,,,,,,,,,,,,,,,,,,,,,1578.4520272000227,1579.4852278000908,1577.3270018000621,1577.3270018000621,1577.3270018000621,1577.3270018000621,old_sceneOut_31.png,188,3.0,1.124909000005573,,,056,11,2025-02-20_16h45.05.214,Surprise recog test,2023.1.3,59.95865251946728,
188,0,188,0,,,,,,,,,,,,,,,,,,,,,,,,,,,,,,,,,,1582.7639374000719,1583.7781903999858,1579.4852278000908,1579.4852278000908,1579.4852278000908,1579.4852278000908,old_sceneIn_8.png,189,1.0,3.280282700085081,,,056,11,2025-02-20_16h45.05.214,Surprise recog test,2023.1.3,59.95865251946728,
189,0,189,0,,,,,,,,,,,,,,,,,,,,,,,,,,,,,,,,,,1585.0008142000297,1586.011065000086,1583.7781903999858,1583.7781903999858,1583.7781903999858,1583.7781903999858,old_sceneIn_29.png,190,1.0,1.2209629999706522,,,056,11,2025-02-20_16h45.05.214,Surprise recog test,2023.1.3,59.95865251946728,
190,0,190,0,,,,,,,,,,,,,,,,,,,,,,,,,,,,,,,,,,1588.0015553000849,1589.0279854000546,1586.011065000086,1586.011065000086,1586.011065000086,1586.011065000086,old_stationery_48.png,191,1.0,1.9832517000613734,,,056,11,2025-02-20_16h45.05.214,Surprise recog test,2023.1.3,59.95865251946728,
191,0,191,0,,,,,,,,,,,,,,,,,,,,,,,,,,,,,,,,,,1590.5336320000933,1591.5564969000407,1589.0279854000546,1589.0279854000546,1589.0279854000546,1589.0279854000546,new_sceneOut_30.png,192,1.0,1.5070145999779925,,,056,11,2025-02-20_16h45.05.214,Surprise recog test,2023.1.3,59.95865251946728,
192,0,192,0,,,,,,,,,,,,,,,,,,,,,,,,,,,,,,,,,,1592.205630899989,1593.2200554000447,1591.5564969000407,1591.5564969000407,1591.5564969000407,1591.5564969000407,old_stationery_9.png,193,1.0,0.6496619000099599,,,056,11,2025-02-20_16h45.05.214,Surprise recog test,2023.1.3,59.95865251946728,
193,0,193,0,,,,,,,,,,,,,,,,,,,,,,,,,,,,,,,,,,1594.4752062000334,1595.4857818000019,1593.2200554000447,1593.2200554000447,1593.2200554000447,1593.2200554000447,new_sceneOut_42.png,194,1.0,1.2498743999749422,,,056,11,2025-02-20_16h45.05.214,Surprise recog test,2023.1.3,59.95865251946728,
194,0,194,0,,,,,,,,,,,,,,,,,,,,,,,,,,,,,,,,,,1596.2104868000606,1597.2350707000587,1595.4857818000019,1595.4857818000019,1595.4857818000019,1595.4857818000019,new_stationery_30.png,195,1.0,0.7203074999852106,,,056,11,2025-02-20_16h45.05.214,Surprise recog test,2023.1.3,59.95865251946728,
195,0,195,0,,,,,,,,,,,,,,,,,,,,,,,,,,,,,,,,,,1598.6853570000967,1599.7026300000725,1597.2350707000587,1597.2350707000587,1597.2350707000587,1597.2350707000587,old_sceneOut_15.png,196,5.0,1.4518696999875829,,,056,11,2025-02-20_16h45.05.214,Surprise recog test,2023.1.3,59.95865251946728,
196,0,196,0,,,,,,,,,,,,,,,,,,,,,,,,,,,,,,,,,,1600.8315473000985,1601.8554062000476,1599.7026300000725,1599.7026300000725,1599.7026300000725,1599.7026300000725,new_stationery_42.png,197,1.0,1.1251178999664262,,,056,11,2025-02-20_16h45.05.214,Surprise recog test,2023.1.3,59.95865251946728,
197,0,197,0,,,,,,,,,,,,,,,,,,,,,,,,,,,,,,,,,,1603.8345691000577,1604.8436663000612,1601.8554062000476,1601.8554062000476,1601.8554062000476,1601.8554062000476,old_sceneIn_18.png,198,5.0,1.9753873000154272,,,056,11,2025-02-20_16h45.05.214,Surprise recog test,2023.1.3,59.95865251946728,
198,0,198,0,,,,,,,,,,,,,,,,,,,,,,,,,,,,,,,,,,1606.6798849999905,1607.709872800042,1604.8436663000612,1604.8436663000612,1604.8436663000612,1604.8436663000612,old_sceneIn_27.png,199,5.0,1.8318375999806449,,,056,11,2025-02-20_16h45.05.214,Surprise recog test,2023.1.3,59.95865251946728,
199,0,199,0,,,,,,,,,,,,,,,,,,,,,,,,,,,,,,,,,,1610.6083175000967,1611.6148569000652,1607.709872800042,1607.709872800042,1607.709872800042,1607.709872800042,old_sceneIn_50.png,200,5.0,2.90099720004946,,,056,11,2025-02-20_16h45.05.214,Surprise recog test,2023.1.3,59.95865251946728,
200,0,200,0,,,,,,,,,,,,,,,,,,,,,,,,,,,,,,,,,,1612.7699546000222,1613.7997784999898,1611.6148569000652,1611.6148569000652,1611.6148569000652,1611.6148569000652,old_stationery_3.png,201,1.0,1.1511033000424504,,,056,11,2025-02-20_16h45.05.214,Surprise recog test,2023.1.3,59.95865251946728,
201,0,201,0,,,,,,,,,,,,,,,,,,,,,,,,,,,,,,,,,,1615.109637400019,1616.1320236000465,1613.7997784999898,1613.7997784999898,1613.7997784999898,1613.7997784999898,new_fruit_31.png,202,3.0,1.312631299952045,,,056,11,2025-02-20_16h45.05.214,Surprise recog test,2023.1.3,59.95865251946728,
202,0,202,0,,,,,,,,,,,,,,,,,,,,,,,,,,,,,,,,,,1617.4806553000817,1618.4880496000405,1616.1320236000465,1616.1320236000465,1616.1320236000465,1616.1320236000465,old_stationery_49.png,203,1.0,1.3509926999686286,,,056,11,2025-02-20_16h45.05.214,Surprise recog test,2023.1.3,59.95865251946728,
203,0,203,0,,,,,,,,,,,,,,,,,,,,,,,,,,,,,,,,,,1619.549871700001,,1618.4880496000405,1618.4880496000405,1618.4880496000405,1618.4880496000405,new_stationery_16.png,204,1.0,1.0552703000139445,,,056,11,2025-02-20_16h45.05.214,Surprise recog test,2023.1.3,59.95865251946728,
204,0,204,0,,,,,,,,,,,,,,,,,,,,,,,,,,,,,,,,,,1621.2237828000216,1622.2528039000463,1620.5834956000326,1620.5834956000326,1620.5834956000326,1620.5834956000326,new_stationery_48.png,205,1.0,0.6403279999503866,,,056,11,2025-02-20_16h45.05.214,Surprise recog test,2023.1.3,59.95865251946728,
205,0,205,0,,,,,,,,,,,,,,,,,,,,,,,,,,,,,,,,,,1623.0553713000845,1624.0860343000386,1622.2528039000463,1622.2528039000463,1622.2528039000463,1622.2528039000463,old_stationery_14.png,206,1.0,0.8030818999977782,,,056,11,2025-02-20_16h45.05.214,Surprise recog test,2023.1.3,59.95865251946728,
206,0,206,0,,,,,,,,,,,,,,,,,,,,,,,,,,,,,,,,,,1626.9460621000035,1627.9734632000327,1624.0860343000386,1624.0860343000386,1624.0860343000386,1624.0860343000386,old_fruit_24.png,207,4.0,2.863322400022298,,,056,11,2025-02-20_16h45.05.214,Surprise recog test,2023.1.3,59.95865251946728,
207,0,207,0,,,,,,,,,,,,,,,,,,,,,,,,,,,,,,,,,,1629.3324701000238,1630.3578385000583,1627.9734632000327,1627.9734632000327,1627.9734632000327,1627.9734632000327,old_stationery_2.png,208,1.0,1.3568822999950498,,,056,11,2025-02-20_16h45.05.214,Surprise recog test,2023.1.3,59.95865251946728,
208,0,208,0,,,,,,,,,,,,,,,,,,,,,,,,,,,,,,,,,,1632.1686816000147,1633.1936167000094,1630.3578385000583,1630.3578385000583,1630.3578385000583,1630.3578385000583,new_sceneOut_26.png,209,5.0,1.8087510999757797,,,056,11,2025-02-20_16h45.05.214,Surprise recog test,2023.1.3,59.95865251946728,
209,0,209,0,,,,,,,,,,,,,,,,,,,,,,,,,,,,,,,,,,1634.3342727000127,1635.361561800004,1633.1936167000094,1633.1936167000094,1633.1936167000094,1633.1936167000094,old_stationery_23.png,210,1.0,1.1416929999832064,,,056,11,2025-02-20_16h45.05.214,Surprise recog test,2023.1.3,59.95865251946728,
210,0,210,0,,,,,,,,,,,,,,,,,,,,,,,,,,,,,,,,,,1636.1115043000318,1637.1321491000708,1635.361561800004,1635.361561800004,1635.361561800004,1635.361561800004,old_sceneIn_20.png,211,1.0,0.7490728999255225,,,056,11,2025-02-20_16h45.05.214,Surprise recog test,2023.1.3,59.95865251946728,
211,0,211,0,,,,,,,,,,,,,,,,,,,,,,,,,,,,,,,,,,1637.889320300077,1638.9156669999938,1637.1321491000708,1637.1321491000708,1637.1321491000708,1637.1321491000708,old_stationery_25.png,212,1.0,0.7593388999812305,,,056,11,2025-02-20_16h45.05.214,Surprise recog test,2023.1.3,59.95865251946728,
212,0,212,0,,,,,,,,,,,,,,,,,,,,,,,,,,,,,,,,,,1640.577278700075,1641.5898633000907,1638.9156669999938,1638.9156669999938,1638.9156669999938,1638.9156669999938,new_fruit_10.png,213,5.0,1.6607073000632226,,,056,11,2025-02-20_16h45.05.214,Surprise recog test,2023.1.3,59.95865251946728,
213,0,213,0,,,,,,,,,,,,,,,,,,,,,,,,,,,,,,,,,,1642.5271893000463,1643.540334600024,1641.5898633000907,1641.5898633000907,1641.5898633000907,1641.5898633000907,old_fruit_42.png,214,4.0,0.9332521000178531,,,056,11,2025-02-20_16h45.05.214,Surprise recog test,2023.1.3,59.95865251946728,
214,0,214,0,,,,,,,,,,,,,,,,,,,,,,,,,,,,,,,,,,1644.8784220000962,1645.9055466999998,1643.540334600024,1643.540334600024,1643.540334600024,1643.540334600024,old_fruit_22.png,215,4.0,1.3323224999476224,,,056,11,2025-02-20_16h45.05.214,Surprise recog test,2023.1.3,59.95865251946728,
215,0,215,0,,,,,,,,,,,,,,,,,,,,,,,,,,,,,,,,,,1646.9141111000208,1647.9356864000438,1645.9055466999998,1645.9055466999998,1645.9055466999998,1645.9055466999998,new_sceneOut_38.png,216,4.0,1.0097782999509946,,,056,11,2025-02-20_16h45.05.214,Surprise recog test,2023.1.3,59.95865251946728,
216,0,216,0,,,,,,,,,,,,,,,,,,,,,,,,,,,,,,,,,,1649.4888485000702,1650.505642300006,1647.9356864000438,1647.9356864000438,1647.9356864000438,1647.9356864000438,new_sceneIn_27.png,217,1.0,1.5499763999832794,,,056,11,2025-02-20_16h45.05.214,Surprise recog test,2023.1.3,59.95865251946728,
217,0,217,0,,,,,,,,,,,,,,,,,,,,,,,,,,,,,,,,,,1651.404228700092,1652.4271892000688,1650.505642300006,1650.505642300006,1650.505642300006,1650.505642300006,new_stationery_8.png,218,1.0,0.8977984999073669,,,056,11,2025-02-20_16h45.05.214,Surprise recog test,2023.1.3,59.95865251946728,
218,0,218,0,,,,,,,,,,,,,,,,,,,,,,,,,,,,,,,,,,1653.0897135999985,1654.1088903000345,1652.4271892000688,1652.4271892000688,1652.4271892000688,1652.4271892000688,new_stationery_19.png,219,1.0,0.6616520000388846,,,056,11,2025-02-20_16h45.05.214,Surprise recog test,2023.1.3,59.95865251946728,
219,0,219,0,,,,,,,,,,,,,,,,,,,,,,,,,,,,,,,,,,1655.2037057999987,1656.2327341000782,1654.1088903000345,1654.1088903000345,1654.1088903000345,1654.1088903000345,old_sceneIn_16.png,220,1.0,1.0968041000887752,,,056,11,2025-02-20_16h45.05.214,Surprise recog test,2023.1.3,59.95865251946728,
220,0,220,0,,,,,,,,,,,,,,,,,,,,,,,,,,,,,,,,,,1658.3880306000356,1659.412034500041,1656.2327341000782,1656.2327341000782,1656.2327341000782,1656.2327341000782,new_sceneOut_16.png,221,4.0,2.154511100030504,,,056,11,2025-02-20_16h45.05.214,Surprise recog test,2023.1.3,59.95865251946728,
221,0,221,0,,,,,,,,,,,,,,,,,,,,,,,,,,,,,,,,,,1660.6817308000755,1661.7027161000296,1659.412034500041,1659.412034500041,1659.412034500041,1659.412034500041,new_stationery_25.png,222,1.0,1.2715227999724448,,,056,11,2025-02-20_16h45.05.214,Surprise recog test,2023.1.3,59.95865251946728,
222,0,222,0,,,,,,,,,,,,,,,,,,,,,,,,,,,,,,,,,,1662.448979100096,1663.4624783000909,1661.7027161000296,1661.7027161000296,1661.7027161000296,1661.7027161000296,old_stationery_24.png,223,1.0,0.7450155999977142,,,056,11,2025-02-20_16h45.05.214,Surprise recog test,2023.1.3,59.95865251946728,
223,0,223,0,,,,,,,,,,,,,,,,,,,,,,,,,,,,,,,,,,1665.3166861000936,1666.3399023000384,1663.4624783000909,1663.4624783000909,1663.4624783000909,1663.4624783000909,old_sceneIn_21.png,224,5.0,1.851676300051622,,,056,11,2025-02-20_16h45.05.214,Surprise recog test,2023.1.3,59.95865251946728,
224,0,224,0,,,,,,,,,,,,,,,,,,,,,,,,,,,,,,,,,,1667.6245310000377,,1666.3399023000384,1666.3399023000384,1666.3399023000384,1666.3399023000384,old_stationery_13.png,225,1.0,1.2869952000910416,,,056,11,2025-02-20_16h45.05.214,Surprise recog test,2023.1.3,59.95865251946728,
225,0,225,0,,,,,,,,,,,,,,,,,,,,,,,,,,,,,,,,,,1669.6621168000856,1670.6808941999916,1668.651549500064,1668.651549500064,1668.651549500064,1668.651549500064,old_fruit_45.png,226,3.0,1.0115162000292912,,,056,11,2025-02-20_16h45.05.214,Surprise recog test,2023.1.3,59.95865251946728,
226,0,226,0,,,,,,,,,,,,,,,,,,,,,,,,,,,,,,,,,,1671.4746705000289,1672.4841618000064,1670.6808941999916,1670.6808941999916,1670.6808941999916,1670.6808941999916,new_fruit_32.png,227,3.0,0.787466200068593,,,056,11,2025-02-20_16h45.05.214,Surprise recog test,2023.1.3,59.95865251946728,
227,0,227,0,,,,,,,,,,,,,,,,,,,,,,,,,,,,,,,,,,1673.5780673000263,,1672.4841618000064,1672.4841618000064,1672.4841618000064,1672.4841618000064,new_sceneOut_19.png,228,3.0,1.0886916000163183,,,056,11,2025-02-20_16h45.05.214,Surprise recog test,2023.1.3,59.95865251946728,
228,0,228,0,,,,,,,,,,,,,,,,,,,,,,,,,,,,,,,,,,1675.7980654001003,,1674.6109862000449,1674.6109862000449,1674.6109862000449,1674.6109862000449,new_stationery_34.png,229,1.0,1.1870358000742272,,,056,11,2025-02-20_16h45.05.214,Surprise recog test,2023.1.3,59.95865251946728,
229,0,229,0,,,,,,,,,,,,,,,,,,,,,,,,,,,,,,,,,,1677.6324356000405,,1676.8307967000874,1676.8307967000874,1676.8307967000874,1676.8307967000874,old_stationery_18.png,230,1.0,0.8011035999516025,,,056,11,2025-02-20_16h45.05.214,Surprise recog test,2023.1.3,59.95865251946728,
230,0,230,0,,,,,,,,,,,,,,,,,,,,,,,,,,,,,,,,,,1679.9614451000234,1680.9740464000497,1678.6662376000313,1678.6662376000313,1678.6662376000313,1678.6662376000313,old_sceneOut_28.png,231,4.0,1.2963016999419779,,,056,11,2025-02-20_16h45.05.214,Surprise recog test,2023.1.3,59.95865251946728,
231,0,231,0,,,,,,,,,,,,,,,,,,,,,,,,,,,,,,,,,,1682.3919112000149,1683.4216284999857,1680.9740464000497,1680.9740464000497,1680.9740464000497,1680.9740464000497,old_sceneOut_19.png,232,4.0,1.4135915000224486,,,056,11,2025-02-20_16h45.05.214,Surprise recog test,2023.1.3,59.95865251946728,
232,0,232,0,,,,,,,,,,,,,,,,,,,,,,,,,,,,,,,,,,1684.9762870999984,1685.9932161000324,1683.4216284999857,1683.4216284999857,1683.4216284999857,1683.4216284999857,old_fruit_29.png,233,3.0,1.5582635999890044,,,056,11,2025-02-20_16h45.05.214,Surprise recog test,2023.1.3,59.95865251946728,
233,0,233,0,,,,,,,,,,,,,,,,,,,,,,,,,,,,,,,,,,1686.8708600000245,1687.8853121000575,1685.9932161000324,1685.9932161000324,1685.9932161000324,1685.9932161000324,old_sceneOut_2.png,234,3.0,0.8714667999884114,,,056,11,2025-02-20_16h45.05.214,Surprise recog test,2023.1.3,59.95865251946728,
234,0,234,0,,,,,,,,,,,,,,,,,,,,,,,,,,,,,,,,,,1689.4144524000585,1690.437209900003,1687.8853121000575,1687.8853121000575,1687.8853121000575,1687.8853121000575,new_sceneIn_29.png,235,4.0,1.5284455000655726,,,056,11,2025-02-20_16h45.05.214,Surprise recog test,2023.1.3,59.95865251946728,
235,0,235,0,,,,,,,,,,,,,,,,,,,,,,,,,,,,,,,,,,1691.3105113999918,,1690.437209900003,1690.437209900003,1690.437209900003,1690.437209900003,new_fruit_50.png,236,4.0,0.8748464999953285,,,056,11,2025-02-20_16h45.05.214,Surprise recog test,2023.1.3,59.95865251946728,
236,0,236,0,,,,,,,,,,,,,,,,,,,,,,,,,,,,,,,,,,1693.1932477999944,1694.2123636000324,1692.335336600081,1692.335336600081,1692.335336600081,1692.335336600081,new_fruit_48.png,237,3.0,0.8569783000275493,,,056,11,2025-02-20_16h45.05.214,Surprise recog test,2023.1.3,59.95865251946728,
237,0,237,0,,,,,,,,,,,,,,,,,,,,,,,,,,,,,,,,,,1695.8803764000768,,1694.2123636000324,1694.2123636000324,1694.2123636000324,1694.2123636000324,old_stationery_8.png,238,1.0,1.6691652999725193,,,056,11,2025-02-20_16h45.05.214,Surprise recog test,2023.1.3,59.95865251946728,
238,0,238,0,,,,,,,,,,,,,,,,,,,,,,,,,,,,,,,,,,1697.9343880000524,1698.9637379000196,1696.918210200034,1696.918210200034,1696.918210200034,1696.918210200034,old_fruit_6.png,239,3.0,1.0164058998925611,,,056,11,2025-02-20_16h45.05.214,Surprise recog test,2023.1.3,59.95865251946728,
239,0,239,0,,,,,,,,,,,,,,,,,,,,,,,,,,,,,,,,,,1700.0709100000095,1701.0982947000302,1698.9637379000196,1698.9637379000196,1698.9637379000196,1698.9637379000196,new_stationery_5.png,240,1.0,1.1085832000244409,,,056,11,2025-02-20_16h45.05.214,Surprise recog test,2023.1.3,59.95865251946728,
240,0,240,0,,,,,,,,,,,,,,,,,,,,,,,,,,,,,,,,,,1704.6187929000007,1705.6388498999877,1701.0982947000302,1701.0982947000302,1701.0982947000302,1701.0982947000302,new_sceneOut_15.png,241,1.0,3.5218342000152916,,,056,11,2025-02-20_16h45.05.214,Surprise recog test,2023.1.3,59.95865251946728,
241,0,241,0,,,,,,,,,,,,,,,,,,,,,,,,,,,,,,,,,,1706.4565323001007,,1705.6388498999877,1705.6388498999877,1705.6388498999877,1705.6388498999877,old_sceneIn_34.png,242,1.0,0.8196041999617592,,,056,11,2025-02-20_16h45.05.214,Surprise recog test,2023.1.3,59.95865251946728,
242,0,242,0,,,,,,,,,,,,,,,,,,,,,,,,,,,,,,,,,,1708.5150041000452,1709.541391500039,1707.4903766000643,1707.4903766000643,1707.4903766000643,1707.4903766000643,old_sceneIn_1.png,243,1.0,1.0269591000396758,,,056,11,2025-02-20_16h45.05.214,Surprise recog test,2023.1.3,59.95865251946728,
243,0,243,0,,,,,,,,,,,,,,,,,,,,,,,,,,,,,,,,,,1712.110484200064,,1709.541391500039,1709.541391500039,1709.541391500039,1709.541391500039,old_sceneIn_6.png,244,5.0,2.569822199991904,,,056,11,2025-02-20_16h45.05.214,Surprise recog test,2023.1.3,59.95865251946728,
244,0,244,0,,,,,,,,,,,,,,,,,,,,,,,,,,,,,,,,,,1714.017027700087,1715.0472010000376,1713.1325141000561,1713.1325141000561,1713.1325141000561,1713.1325141000561,new_fruit_24.png,245,4.0,0.8805842000292614,,,056,11,2025-02-20_16h45.05.214,Surprise recog test,2023.1.3,59.95865251946728,
245,0,245,0,,,,,,,,,,,,,,,,,,,,,,,,,,,,,,,,,,1715.8259630000684,1716.842232300085,1715.0472010000376,1715.0472010000376,1715.0472010000376,1715.0472010000376,new_fruit_15.png,246,3.0,0.7800848000915721,,,056,11,2025-02-20_16h45.05.214,Surprise recog test,2023.1.3,59.95865251946728,
246,0,246,0,,,,,,,,,,,,,,,,,,,,,,,,,,,,,,,,,,1717.9179787000176,1718.9498946000822,1716.842232300085,1716.842232300085,1716.842232300085,1716.842232300085,new_stationery_17.png,247,1.0,1.0770609000464901,,,056,11,2025-02-20_16h45.05.214,Surprise recog test,2023.1.3,59.95865251946728,
247,0,247,0,,,,,,,,,,,,,,,,,,,,,,,,,,,,,,,,,,1719.7301120000193,1720.7507831000257,1718.9498946000822,1718.9498946000822,1718.9498946000822,1718.9498946000822,new_fruit_46.png,248,3.0,0.7813268000027165,,,056,11,2025-02-20_16h45.05.214,Surprise recog test,2023.1.3,59.95865251946728,
248,0,248,0,,,,,,,,,,,,,,,,,,,,,,,,,,,,,,,,,,1721.5920654000947,1722.6195274000056,1720.7507831000257,1720.7507831000257,1720.7507831000257,1720.7507831000257,new_stationery_6.png,249,1.0,0.8404639000073075,,,056,11,2025-02-20_16h45.05.214,Surprise recog test,2023.1.3,59.95865251946728,
249,0,249,0,,,,,,,,,,,,,,,,,,,,,,,,,,,,,,,,,,1723.4779397000093,1724.504492300097,1722.6195274000056,1722.6195274000056,1722.6195274000056,1722.6195274000056,old_sceneOut_9.png,250,3.0,0.8597200999502093,,,056,11,2025-02-20_16h45.05.214,Surprise recog test,2023.1.3,59.95865251946728,
250,0,250,0,,,,,,,,,,,,,,,,,,,,,,,,,,,,,,,,,,1725.3991980000865,1726.4224362000823,1724.504492300097,1724.504492300097,1724.504492300097,1724.504492300097,old_sceneOut_14.png,251,3.0,0.8964149000821635,,,056,11,2025-02-20_16h45.05.214,Surprise recog test,2023.1.3,59.95865251946728,
251,0,251,0,,,,,,,,,,,,,,,,,,,,,,,,,,,,,,,,,,1727.6964830000652,1728.724964400055,1726.4224362000823,1726.4224362000823,1726.4224362000823,1726.4224362000823,old_sceneOut_3.png,252,3.0,1.2747706000227481,,,056,11,2025-02-20_16h45.05.214,Surprise recog test,2023.1.3,59.95865251946728,
252,0,252,0,,,,,,,,,,,,,,,,,,,,,,,,,,,,,,,,,,1730.1693159000715,1731.189453600091,1728.724964400055,1728.724964400055,1728.724964400055,1728.724964400055,new_stationery_20.png,253,1.0,1.4457466000458226,,,056,11,2025-02-20_16h45.05.214,Surprise recog test,2023.1.3,59.95865251946728,
253,0,253,0,,,,,,,,,,,,,,,,,,,,,,,,,,,,,,,,,,1732.1770061000716,,1731.189453600091,1731.189453600091,1731.189453600091,1731.189453600091,old_sceneOut_23.png,254,3.0,0.9838327000616118,,,056,11,2025-02-20_16h45.05.214,Surprise recog test,2023.1.3,59.95865251946728,
254,0,254,0,,,,,,,,,,,,,,,,,,,,,,,,,,,,,,,,,,1734.9347032000078,1735.9561653999845,1733.2083394000074,1733.2083394000074,1733.2083394000074,1733.2083394000074,old_sceneOut_43.png,255,3.0,1.7268027999671176,,,056,11,2025-02-20_16h45.05.214,Surprise recog test,2023.1.3,59.95865251946728,
255,0,255,0,,,,,,,,,,,,,,,,,,,,,,,,,,,,,,,,,,1738.8067526000086,1739.8212358000455,1735.9561653999845,1735.9561653999845,1735.9561653999845,1735.9561653999845,new_sceneIn_42.png,256,1.0,2.8497992999618873,,,056,11,2025-02-20_16h45.05.214,Surprise recog test,2023.1.3,59.95865251946728,
256,0,256,0,,,,,,,,,,,,,,,,,,,,,,,,,,,,,,,,,,1740.4809847000288,1741.4896175999893,1739.8212358000455,1739.8212358000455,1739.8212358000455,1739.8212358000455,new_sceneIn_38.png,257,1.0,0.6533188000321388,,,056,11,2025-02-20_16h45.05.214,Surprise recog test,2023.1.3,59.95865251946728,
257,0,257,0,,,,,,,,,,,,,,,,,,,,,,,,,,,,,,,,,,1742.649897400057,1743.6701822000323,1741.4896175999893,1741.4896175999893,1741.4896175999893,1741.4896175999893,old_stationery_16.png,258,1.0,1.1558826999971643,,,056,11,2025-02-20_16h45.05.214,Surprise recog test,2023.1.3,59.95865251946728,
258,0,258,0,,,,,,,,,,,,,,,,,,,,,,,,,,,,,,,,,,1745.8839169000275,1746.8995474000694,1743.6701822000323,1743.6701822000323,1743.6701822000323,1743.6701822000323,old_sceneIn_35.png,259,1.0,2.214977099909447,,,056,11,2025-02-20_16h45.05.214,Surprise recog test,2023.1.3,59.95865251946728,
259,0,259,0,,,,,,,,,,,,,,,,,,,,,,,,,,,,,,,,,,1748.2631491000066,1749.2835474000312,1746.8995474000694,1746.8995474000694,1746.8995474000694,1746.8995474000694,old_fruit_33.png,260,3.0,1.3600336000090465,,,056,11,2025-02-20_16h45.05.214,Surprise recog test,2023.1.3,59.95865251946728,
260,0,260,0,,,,,,,,,,,,,,,,,,,,,,,,,,,,,,,,,,1750.3363656000001,1751.3537885000696,1749.2835474000312,1749.2835474000312,1749.2835474000312,1749.2835474000312,old_stationery_37.png,261,1.0,1.0504047999856994,,,056,11,2025-02-20_16h45.05.214,Surprise recog test,2023.1.3,59.95865251946728,
261,0,261,0,,,,,,,,,,,,,,,,,,,,,,,,,,,,,,,,,,1751.9415262000402,1752.968680000049,1751.3537885000696,1751.3537885000696,1751.3537885000696,1751.3537885000696,new_stationery_22.png,262,1.0,0.5859341999748722,,,056,11,2025-02-20_16h45.05.214,Surprise recog test,2023.1.3,59.95865251946728,
262,0,262,0,,,,,,,,,,,,,,,,,,,,,,,,,,,,,,,,,,1754.0560453000944,1755.0779488000553,1752.968680000049,1752.968680000049,1752.968680000049,1752.968680000049,old_sceneOut_47.png,263,3.0,1.091316799982451,,,056,11,2025-02-20_16h45.05.214,Surprise recog test,2023.1.3,59.95865251946728,
263,0,263,0,,,,,,,,,,,,,,,,,,,,,,,,,,,,,,,,,,1758.8574683000334,1759.882769000018,1755.0779488000553,1755.0779488000553,1755.0779488000553,1755.0779488000553,old_sceneIn_4.png,264,1.0,3.780865199980326,,,056,11,2025-02-20_16h45.05.214,Surprise recog test,2023.1.3,59.95865251946728,
264,0,264,0,,,,,,,,,,,,,,,,,,,,,,,,,,,,,,,,,,1760.8895583000267,1761.9186963000102,1759.882769000018,1759.882769000018,1759.882769000018,1759.882769000018,new_stationery_14.png,265,1.0,1.0081908999709412,,,056,11,2025-02-20_16h45.05.214,Surprise recog test,2023.1.3,59.95865251946728,
265,0,265,0,,,,,,,,,,,,,,,,,,,,,,,,,,,,,,,,,,1763.7157763000578,1764.7260117999977,1761.9186963000102,1761.9186963000102,1761.9186963000102,1761.9186963000102,old_sceneIn_46.png,266,5.0,1.7988715000683442,,,056,11,2025-02-20_16h45.05.214,Surprise recog test,2023.1.3,59.95865251946728,
266,0,266,0,,,,,,,,,,,,,,,,,,,,,,,,,,,,,,,,,,1765.6203689000104,1766.6271369000897,1764.7260117999977,1764.7260117999977,1764.7260117999977,1764.7260117999977,new_sceneOut_23.png,267,5.0,0.8891721999971196,,,056,11,2025-02-20_16h45.05.214,Surprise recog test,2023.1.3,59.95865251946728,
267,0,267,0,,,,,,,,,,,,,,,,,,,,,,,,,,,,,,,,,,1768.0960395000875,1769.1296200000215,1766.6271369000897,1766.6271369000897,1766.6271369000897,1766.6271369000897,old_sceneIn_48.png,268,2.0,1.4646703000180423,,,056,11,2025-02-20_16h45.05.214,Surprise recog test,2023.1.3,59.95865251946728,
268,0,268,0,,,,,,,,,,,,,,,,,,,,,,,,,,,,,,,,,,1770.316609700094,1771.3305653000716,1769.1296200000215,1769.1296200000215,1769.1296200000215,1769.1296200000215,old_fruit_13.png,269,3.0,1.1891017999732867,,,056,11,2025-02-20_16h45.05.214,Surprise recog test,2023.1.3,59.95865251946728,
269,0,269,0,,,,,,,,,,,,,,,,,,,,,,,,,,,,,,,,,,1772.9197808000026,1773.9412314000074,1771.3305653000716,1771.3305653000716,1771.3305653000716,1771.3305653000716,new_sceneIn_8.png,270,1.0,1.5866083999862894,,,056,11,2025-02-20_16h45.05.214,Surprise recog test,2023.1.3,59.95865251946728,
270,0,270,0,,,,,,,,,,,,,,,,,,,,,,,,,,,,,,,,,,1775.044904600014,1776.0567949000979,1773.9412314000074,1773.9412314000074,1773.9412314000074,1773.9412314000074,old_sceneIn_19.png,271,1.0,1.1049467999255285,,,056,11,2025-02-20_16h45.05.214,Surprise recog test,2023.1.3,59.95865251946728,
271,0,271,0,,,,,,,,,,,,,,,,,,,,,,,,,,,,,,,,,,1777.0372515000636,1778.0512019000016,1776.0567949000979,1776.0567949000979,1776.0567949000979,1776.0567949000979,new_sceneOut_32.png,272,3.0,0.9808541000820696,,,056,11,2025-02-20_16h45.05.214,Surprise recog test,2023.1.3,59.95865251946728,
272,0,272,0,,,,,,,,,,,,,,,,,,,,,,,,,,,,,,,,,,1778.8290238000918,1779.8393800000194,1778.0512019000016,1778.0512019000016,1778.0512019000016,1778.0512019000016,new_stationery_12.png,273,1.0,0.7721052999841049,,,056,11,2025-02-20_16h45.05.214,Surprise recog test,2023.1.3,59.95865251946728,
273,0,273,0,,,,,,,,,,,,,,,,,,,,,,,,,,,,,,,,,,1780.7519989000866,,1779.8393800000194,1779.8393800000194,1779.8393800000194,1779.8393800000194,old_stationery_33.png,274,1.0,0.9074940999271348,,,056,11,2025-02-20_16h45.05.214,Surprise recog test,2023.1.3,59.95865251946728,
274,0,274,0,,,,,,,,,,,,,,,,,,,,,,,,,,,,,,,,,,1782.8522374000167,,1781.7848691000836,1781.7848691000836,1781.7848691000836,1781.7848691000836,new_fruit_4.png,275,3.0,1.0667723999358714,,,056,11,2025-02-20_16h45.05.214,Surprise recog test,2023.1.3,59.95865251946728,
275,0,275,0,,,,,,,,,,,,,,,,,,,,,,,,,,,,,,,,,,1784.8199287999887,1785.8315318000969,1783.8875431000488,1783.8875431000488,1783.8875431000488,1783.8875431000488,old_fruit_16.png,276,3.0,0.9304564000340179,,,056,11,2025-02-20_16h45.05.214,Surprise recog test,2023.1.3,59.95865251946728,
276,0,276,0,,,,,,,,,,,,,,,,,,,,,,,,,,,,,,,,,,1787.3212768000085,1788.3411914000753,1785.8315318000969,1785.8315318000969,1785.8315318000969,1785.8315318000969,old_sceneIn_33.png,277,2.0,1.484149600029923,,,056,11,2025-02-20_16h45.05.214,Surprise recog test,2023.1.3,59.95865251946728,
277,0,277,0,,,,,,,,,,,,,,,,,,,,,,,,,,,,,,,,,,1789.3802037000423,1790.41055400006,1788.3411914000753,1788.3411914000753,1788.3411914000753,1788.3411914000753,old_fruit_28.png,278,3.0,1.0400258000008762,,,056,11,2025-02-20_16h45.05.214,Surprise recog test,2023.1.3,59.95865251946728,
278,0,278,0,,,,,,,,,,,,,,,,,,,,,,,,,,,,,,,,,,1791.1123285000212,1792.1365075000795,1790.41055400006,1790.41055400006,1790.41055400006,1790.41055400006,old_fruit_1.png,279,3.0,0.702469699899666,,,056,11,2025-02-20_16h45.05.214,Surprise recog test,2023.1.3,59.95865251946728,
279,0,279,0,,,,,,,,,,,,,,,,,,,,,,,,,,,,,,,,,,1793.2624887001002,,1792.1365075000795,1792.1365075000795,1792.1365075000795,1792.1365075000795,new_stationery_50.png,280,1.0,1.1270724000642076,,,056,11,2025-02-20_16h45.05.214,Surprise recog test,2023.1.3,59.95865251946728,
280,0,280,0,,,,,,,,,,,,,,,,,,,,,,,,,,,,,,,,,,1795.1657476000255,1796.1855722999899,1794.2911864999915,1794.2911864999915,1794.2911864999915,1794.2911864999915,new_sceneIn_2.png,281,1.0,0.8756912000244483,,,056,11,2025-02-20_16h45.05.214,Surprise recog test,2023.1.3,59.95865251946728,
281,0,281,0,,,,,,,,,,,,,,,,,,,,,,,,,,,,,,,,,,1796.9917791000335,1798.0153630999848,1796.1855722999899,1796.1855722999899,1796.1855722999899,1796.1855722999899,old_fruit_41.png,282,3.0,0.7987533999839798,,,056,11,2025-02-20_16h45.05.214,Surprise recog test,2023.1.3,59.95865251946728,
282,0,282,0,,,,,,,,,,,,,,,,,,,,,,,,,,,,,,,,,,1799.0130979000824,1800.0346895999974,1798.0153630999848,1798.0153630999848,1798.0153630999848,1798.0153630999848,new_sceneIn_37.png,283,1.0,0.9993148000212386,,,056,11,2025-02-20_16h45.05.214,Surprise recog test,2023.1.3,59.95865251946728,
283,0,283,0,,,,,,,,,,,,,,,,,,,,,,,,,,,,,,,,,,1800.8224563000258,1801.8372352999868,1800.0346895999974,1800.0346895999974,1800.0346895999974,1800.0346895999974,new_fruit_42.png,284,2.0,0.7891143999295309,,,056,11,2025-02-20_16h45.05.214,Surprise recog test,2023.1.3,59.95865251946728,
284,0,284,0,,,,,,,,,,,,,,,,,,,,,,,,,,,,,,,,,,1802.571581600001,1803.591143900063,1801.8372352999868,1801.8372352999868,1801.8372352999868,1801.8372352999868,old_fruit_31.png,285,3.0,0.7319989000679925,,,056,11,2025-02-20_16h45.05.214,Surprise recog test,2023.1.3,59.95865251946728,
285,0,285,0,,,,,,,,,,,,,,,,,,,,,,,,,,,,,,,,,,1805.2663893999998,1806.2929527000524,1803.591143900063,1803.591143900063,1803.591143900063,1803.591143900063,new_sceneIn_15.png,286,1.0,1.670232400065288,,,056,11,2025-02-20_16h45.05.214,Surprise recog test,2023.1.3,59.95865251946728,
286,0,286,0,,,,,,,,,,,,,,,,,,,,,,,,,,,,,,,,,,1806.9910534000956,,1806.2929527000524,1806.2929527000524,1806.2929527000524,1806.2929527000524,old_stationery_35.png,287,1.0,0.7006898999679834,,,056,11,2025-02-20_16h45.05.214,Surprise recog test,2023.1.3,59.95865251946728,
287,0,287,0,,,,,,,,,,,,,,,,,,,,,,,,,,,,,,,,,,1809.1470128000947,1810.17428320006,1808.0276162000373,1808.0276162000373,1808.0276162000373,1808.0276162000373,old_sceneOut_44.png,288,3.0,1.1225520999869332,,,056,11,2025-02-20_16h45.05.214,Surprise recog test,2023.1.3,59.95865251946728,
288,0,288,0,,,,,,,,,,,,,,,,,,,,,,,,,,,,,,,,,,1811.286502400064,1812.2988983000396,1810.17428320006,1810.17428320006,1810.17428320006,1810.17428320006,new_stationery_38.png,289,1.0,1.112773000029847,,,056,11,2025-02-20_16h45.05.214,Surprise recog test,2023.1.3,59.95865251946728,
289,0,289,0,,,,,,,,,,,,,,,,,,,,,,,,,,,,,,,,,,1812.9081306000007,1813.9287542999955,1812.2988983000396,1812.2988983000396,1812.2988983000396,1812.2988983000396,old_stationery_28.png,290,1.0,0.6035054000094533,,,056,11,2025-02-20_16h45.05.214,Surprise recog test,2023.1.3,59.95865251946728,
290,0,290,0,,,,,,,,,,,,,,,,,,,,,,,,,,,,,,,,,,1814.9617300000973,1815.9797231000848,1813.9287542999955,1813.9287542999955,1813.9287542999955,1813.9287542999955,new_sceneIn_30.png,291,1.0,1.0350316000403836,,,056,11,2025-02-20_16h45.05.214,Surprise recog test,2023.1.3,59.95865251946728,
291,0,291,0,,,,,,,,,,,,,,,,,,,,,,,,,,,,,,,,,,1817.262388000032,1818.279386900016,1815.9797231000848,1815.9797231000848,1815.9797231000848,1815.9797231000848,old_fruit_50.png,292,3.0,1.2841211999766529,,,056,11,2025-02-20_16h45.05.214,Surprise recog test,2023.1.3,59.95865251946728,
292,0,292,0,,,,,,,,,,,,,,,,,,,,,,,,,,,,,,,,,,1819.039420300047,1820.0662056000438,1818.279386900016,1818.279386900016,1818.279386900016,1818.279386900016,new_sceneOut_34.png,293,3.0,0.7598571999697015,,,056,11,2025-02-20_16h45.05.214,Surprise recog test,2023.1.3,59.95865251946728,
293,0,293,0,,,,,,,,,,,,,,,,,,,,,,,,,,,,,,,,,,1820.6868686000817,1821.7186603000155,1820.0662056000438,1820.0662056000438,1820.0662056000438,1820.0662056000438,old_fruit_9.png,294,3.0,0.620438399957493,,,056,11,2025-02-20_16h45.05.214,Surprise recog test,2023.1.3,59.95865251946728,
294,0,294,0,,,,,,,,,,,,,,,,,,,,,,,,,,,,,,,,,,1822.7821722000372,1823.8073541000485,1821.7186603000155,1821.7186603000155,1821.7186603000155,1821.7186603000155,old_sceneOut_8.png,295,3.0,1.0632826999062672,,,056,11,2025-02-20_16h45.05.214,Surprise recog test,2023.1.3,59.95865251946728,
295,0,295,0,,,,,,,,,,,,,,,,,,,,,,,,,,,,,,,,,,1824.322003700072,1825.3385982000036,1823.8073541000485,1823.8073541000485,1823.8073541000485,1823.8073541000485,old_sceneOut_45.png,296,3.0,0.5189286000095308,,,056,11,2025-02-20_16h45.05.214,Surprise recog test,2023.1.3,59.95865251946728,
296,0,296,0,,,,,,,,,,,,,,,,,,,,,,,,,,,,,,,,,,1826.440479000099,,1825.3385982000036,1825.3385982000036,1825.3385982000036,1825.3385982000036,new_stationery_47.png,297,1.0,1.0980144999921322,,,056,11,2025-02-20_16h45.05.214,Surprise recog test,2023.1.3,59.95865251946728,
297,0,297,0,,,,,,,,,,,,,,,,,,,,,,,,,,,,,,,,,,1828.5076262000948,,1827.4671908000018,1827.4671908000018,1827.4671908000018,1827.4671908000018,new_sceneOut_29.png,298,3.0,1.0417464000638574,,,056,11,2025-02-20_16h45.05.214,Surprise recog test,2023.1.3,59.95865251946728,
298,0,298,0,,,,,,,,,,,,,,,,,,,,,,,,,,,,,,,,,,1830.3975002000807,1831.419423500076,1829.5289702999871,1829.5289702999871,1829.5289702999871,1829.5289702999871,old_sceneOut_24.png,299,3.0,0.8639408000744879,,,056,11,2025-02-20_16h45.05.214,Surprise recog test,2023.1.3,59.95865251946728,
299,0,299,0,,,,,,,,,,,,,,,,,,,,,,,,,,,,,,,,,,1832.486479000072,1833.5057815000182,1831.419423500076,1831.419423500076,1831.419423500076,1831.419423500076,new_sceneIn_26.png,300,1.0,1.0654677000129595,,,056,11,2025-02-20_16h45.05.214,Surprise recog test,2023.1.3,59.95865251946728,
300,0,300,0,,,,,,,,,,,,,,,,,,,,,,,,,,,,,,,,,,1834.6416573000606,1835.6574909000192,1833.5057815000182,1833.5057815000182,1833.5057815000182,1833.5057815000182,old_sceneOut_34.png,301,3.0,1.1368575999513268,,,056,11,2025-02-20_16h45.05.214,Surprise recog test,2023.1.3,59.95865251946728,
301,0,301,0,,,,,,,,,,,,,,,,,,,,,,,,,,,,,,,,,,1836.3442551000044,1837.3495762000093,1835.6574909000192,1835.6574909000192,1835.6574909000192,1835.6574909000192,new_fruit_49.png,302,3.0,0.68160460004583,,,056,11,2025-02-20_16h45.05.214,Surprise recog test,2023.1.3,59.95865251946728,
302,0,302,0,,,,,,,,,,,,,,,,,,,,,,,,,,,,,,,,,,1840.8190341000445,,1837.3495762000093,1837.3495762000093,1837.3495762000093,1837.3495762000093,old_sceneIn_43.png,303,1.0,3.4653566000051796,,,056,11,2025-02-20_16h45.05.214,Surprise recog test,2023.1.3,59.95865251946728,
303,0,303,0,,,,,,,,,,,,,,,,,,,,,,,,,,,,,,,,,,1843.391649199999,1844.4092644000193,1841.8519454000052,1841.8519454000052,1841.8519454000052,1841.8519454000052,old_sceneOut_13.png,304,3.0,1.5394581999862567,,,056,11,2025-02-20_16h45.05.214,Surprise recog test,2023.1.3,59.95865251946728,
304,0,304,0,,,,,,,,,,,,,,,,,,,,,,,,,,,,,,,,,,1845.7896374000702,,1844.4092644000193,1844.4092644000193,1844.4092644000193,1844.4092644000193,new_stationery_13.png,305,1.0,1.3781148999696597,,,056,11,2025-02-20_16h45.05.214,Surprise recog test,2023.1.3,59.95865251946728,
305,0,305,0,,,,,,,,,,,,,,,,,,,,,,,,,,,,,,,,,,1847.6420802000212,1848.6713132000295,1846.8236088000704,1846.8236088000704,1846.8236088000704,1846.8236088000704,new_sceneOut_43.png,306,3.0,0.820915500051342,,,056,11,2025-02-20_16h45.05.214,Surprise recog test,2023.1.3,59.95865251946728,
306,0,306,0,,,,,,,,,,,,,,,,,,,,,,,,,,,,,,,,,,1849.3538937000558,1850.3643353000516,1848.6713132000295,1848.6713132000295,1848.6713132000295,1848.6713132000295,new_fruit_12.png,307,3.0,0.6829494000412524,,,056,11,2025-02-20_16h45.05.214,Surprise recog test,2023.1.3,59.95865251946728,
307,0,307,0,,,,,,,,,,,,,,,,,,,,,,,,,,,,,,,,,,1850.953354199999,1851.964735000045,1850.3643353000516,1850.3643353000516,1850.3643353000516,1850.3643353000516,old_fruit_3.png,308,3.0,0.5844153000507504,,,056,11,2025-02-20_16h45.05.214,Surprise recog test,2023.1.3,59.95865251946728,
308,0,308,0,,,,,,,,,,,,,,,,,,,,,,,,,,,,,,,,,,1853.1485016000224,1854.1744648000458,1851.964735000045,1851.964735000045,1851.964735000045,1851.964735000045,old_fruit_47.png,309,3.0,1.176716599962674,,,056,11,2025-02-20_16h45.05.214,Surprise recog test,2023.1.3,59.95865251946728,
309,0,309,0,,,,,,,,,,,,,,,,,,,,,,,,,,,,,,,,,,1856.145993300015,1857.1674374000868,1854.1744648000458,1854.1744648000458,1854.1744648000458,1854.1744648000458,old_sceneOut_46.png,310,2.0,1.972325999988243,,,056,11,2025-02-20_16h45.05.214,Surprise recog test,2023.1.3,59.95865251946728,
310,0,310,0,,,,,,,,,,,,,,,,,,,,,,,,,,,,,,,,,,1858.2035588000435,1859.2326816000277,1857.1674374000868,1857.1674374000868,1857.1674374000868,1857.1674374000868,new_stationery_33.png,311,1.0,1.0378085999982432,,,056,11,2025-02-20_16h45.05.214,Surprise recog test,2023.1.3,59.95865251946728,
311,0,311,0,,,,,,,,,,,,,,,,,,,,,,,,,,,,,,,,,,1860.077602500096,1861.1010996000841,1859.2326816000277,1859.2326816000277,1859.2326816000277,1859.2326816000277,new_fruit_22.png,312,3.0,0.8480687000555918,,,056,11,2025-02-20_16h45.05.214,Surprise recog test,2023.1.3,59.95865251946728,
312,0,312,0,,,,,,,,,,,,,,,,,,,,,,,,,,,,,,,,,,1862.0337467000354,1863.0392322000116,1861.1010996000841,1861.1010996000841,1861.1010996000841,1861.1010996000841,new_sceneOut_41.png,313,2.0,0.9344615000300109,,,056,11,2025-02-20_16h45.05.214,Surprise recog test,2023.1.3,59.95865251946728,
313,0,313,0,,,,,,,,,,,,,,,,,,,,,,,,,,,,,,,,,,1865.285695000086,1866.3046360000735,1863.0392322000116,1863.0392322000116,1863.0392322000116,1863.0392322000116,new_fruit_28.png,314,3.0,2.2421055999584496,,,056,11,2025-02-20_16h45.05.214,Surprise recog test,2023.1.3,59.95865251946728,
314,0,314,0,,,,,,,,,,,,,,,,,,,,,,,,,,,,,,,,,,1867.1529524000362,1868.158262400073,1866.3046360000735,1866.3046360000735,1866.3046360000735,1866.3046360000735,new_fruit_21.png,315,3.0,0.8488930999301374,,,056,11,2025-02-20_16h45.05.214,Surprise recog test,2023.1.3,59.95865251946728,
315,0,315,0,,,,,,,,,,,,,,,,,,,,,,,,,,,,,,,,,,1870.0636955000227,1871.088703699992,1868.158262400073,1868.158262400073,1868.158262400073,1868.158262400073,new_sceneOut_10.png,316,1.0,1.9003849999280646,,,056,11,2025-02-20_16h45.05.214,Surprise recog test,2023.1.3,59.95865251946728,
316,0,316,0,,,,,,,,,,,,,,,,,,,,,,,,,,,,,,,,,,1872.4961839000462,1873.5315727000125,1871.088703699992,1871.088703699992,1871.088703699992,1871.088703699992,new_sceneIn_1.png,317,1.0,1.4086464999709278,,,056,11,2025-02-20_16h45.05.214,Surprise recog test,2023.1.3,59.95865251946728,
317,0,317,0,,,,,,,,,,,,,,,,,,,,,,,,,,,,,,,,,,1874.6877587999916,1875.7158974000486,1873.5315727000125,1873.5315727000125,1873.5315727000125,1873.5315727000125,new_sceneOut_37.png,318,2.0,1.158568900078535,,,056,11,2025-02-20_16h45.05.214,Surprise recog test,2023.1.3,59.95865251946728,
318,0,318,0,,,,,,,,,,,,,,,,,,,,,,,,,,,,,,,,,,1876.7023389000678,1877.7201901000226,1875.7158974000486,1875.7158974000486,1875.7158974000486,1875.7158974000486,new_fruit_11.png,319,3.0,0.9886294999159873,,,056,11,2025-02-20_16h45.05.214,Surprise recog test,2023.1.3,59.95865251946728,
319,0,319,0,,,,,,,,,,,,,,,,,,,,,,,,,,,,,,,,,,1879.6846839000937,1880.7013516000006,1877.7201901000226,1877.7201901000226,1877.7201901000226,1877.7201901000226,new_sceneOut_40.png,320,5.0,1.9593514999141917,,,056,11,2025-02-20_16h45.05.214,Surprise recog test,2023.1.3,59.95865251946728,
320,0,320,0,,,,,,,,,,,,,,,,,,,,,,,,,,,,,,,,,,1882.492205800023,1883.5221773000667,1880.7013516000006,1880.7013516000006,1880.7013516000006,1880.7013516000006,new_sceneOut_46.png,321,1.0,1.7856651999754831,,,056,11,2025-02-20_16h45.05.214,Surprise recog test,2023.1.3,59.95865251946728,
321,0,321,0,,,,,,,,,,,,,,,,,,,,,,,,,,,,,,,,,,1884.2918179000262,1885.326517400099,1883.5221773000667,1883.5221773000667,1883.5221773000667,1883.5221773000667,new_stationery_9.png,322,1.0,0.7720454999944195,,,056,11,2025-02-20_16h45.05.214,Surprise recog test,2023.1.3,59.95865251946728,
322,0,322,0,,,,,,,,,,,,,,,,,,,,,,,,,,,,,,,,,,1886.1331508000148,1887.1573490999872,1885.326517400099,1885.326517400099,1885.326517400099,1885.326517400099,new_stationery_36.png,323,1.0,0.8077980000525713,,,056,11,2025-02-20_16h45.05.214,Surprise recog test,2023.1.3,59.95865251946728,
323,0,323,0,,,,,,,,,,,,,,,,,,,,,,,,,,,,,,,,,,1887.8424559000414,1888.8728786000283,1887.1573490999872,1887.1573490999872,1887.1573490999872,1887.1573490999872,new_stationery_24.png,324,1.0,0.6856478999834508,,,056,11,2025-02-20_16h45.05.214,Surprise recog test,2023.1.3,59.95865251946728,
324,0,324,0,,,,,,,,,,,,,,,,,,,,,,,,,,,,,,,,,,1889.5220105000772,1890.541718200082,1888.8728786000283,1888.8728786000283,1888.8728786000283,1888.8728786000283,new_stationery_44.png,325,1.0,0.6502934000454843,,,056,11,2025-02-20_16h45.05.214,Surprise recog test,2023.1.3,59.95865251946728,
325,0,325,0,,,,,,,,,,,,,,,,,,,,,,,,,,,,,,,,,,1891.1061856000451,1892.125260300003,1890.541718200082,1890.541718200082,1890.541718200082,1890.541718200082,new_fruit_45.png,326,1.0,0.5648518999805674,,,056,11,2025-02-20_16h45.05.214,Surprise recog test,2023.1.3,59.95865251946728,
326,0,326,0,,,,,,,,,,,,,,,,,,,,,,,,,,,,,,,,,,1893.6170062000165,1894.6432822000934,1892.125260300003,1892.125260300003,1892.125260300003,1892.125260300003,new_fruit_44.png,327,3.0,1.492732600076124,,,056,11,2025-02-20_16h45.05.214,Surprise recog test,2023.1.3,59.95865251946728,
327,0,327,0,,,,,,,,,,,,,,,,,,,,,,,,,,,,,,,,,,1895.2493381000822,1896.2872728999937,1894.6432822000934,1894.6432822000934,1894.6432822000934,1894.6432822000934,old_fruit_8.png,328,3.0,0.6090254000155255,,,056,11,2025-02-20_16h45.05.214,Surprise recog test,2023.1.3,59.95865251946728,
328,0,328,0,,,,,,,,,,,,,,,,,,,,,,,,,,,,,,,,,,1897.385682500084,1898.4166629000101,1896.2872728999937,1896.2872728999937,1896.2872728999937,1896.2872728999937,old_stationery_45.png,329,1.0,1.102153699961491,,,056,11,2025-02-20_16h45.05.214,Surprise recog test,2023.1.3,59.95865251946728,
329,0,329,0,,,,,,,,,,,,,,,,,,,,,,,,,,,,,,,,,,1899.5327693000436,,1898.4166629000101,1898.4166629000101,1898.4166629000101,1898.4166629000101,new_sceneIn_5.png,330,1.0,1.1177750000497326,,,056,11,2025-02-20_16h45.05.214,Surprise recog test,2023.1.3,59.95865251946728,
330,0,330,0,,,,,,,,,,,,,,,,,,,,,,,,,,,,,,,,,,1901.4334036000073,1902.4536686000647,1900.5693611000897,1900.5693611000897,1900.5693611000897,1900.5693611000897,old_sceneIn_24.png,331,1.0,0.8645373999606818,,,056,11,2025-02-20_16h45.05.214,Surprise recog test,2023.1.3,59.95865251946728,
331,0,331,0,,,,,,,,,,,,,,,,,,,,,,,,,,,,,,,,,,1903.1706519,,1902.4536686000647,1902.4536686000647,1902.4536686000647,1902.4536686000647,new_fruit_25.png,332,3.0,0.7196981000015512,,,056,11,2025-02-20_16h45.05.214,Surprise recog test,2023.1.3,59.95865251946728,
332,0,332,0,,,,,,,,,,,,,,,,,,,,,,,,,,,,,,,,,,1904.8943333000643,1905.919132500072,1904.2056840000441,1904.2056840000441,1904.2056840000441,1904.2056840000441,old_sceneOut_18.png,333,3.0,0.692822500015609,,,056,11,2025-02-20_16h45.05.214,Surprise recog test,2023.1.3,59.95865251946728,
333,0,333,0,,,,,,,,,,,,,,,,,,,,,,,,,,,,,,,,,,1907.2392864000285,,1905.919132500072,1905.919132500072,1905.919132500072,1905.919132500072,new_stationery_41.png,334,1.0,1.321544999955222,,,056,11,2025-02-20_16h45.05.214,Surprise recog test,2023.1.3,59.95865251946728,
334,0,334,0,,,,,,,,,,,,,,,,,,,,,,,,,,,,,,,,,,1909.1715603000484,1910.1768254000926,1908.2612962001003,1908.2612962001003,1908.2612962001003,1908.2612962001003,new_stationery_3.png,335,3.0,0.9079293999820948,,,056,11,2025-02-20_16h45.05.214,Surprise recog test,2023.1.3,59.95865251946728,
335,0,335,0,,,,,,,,,,,,,,,,,,,,,,,,,,,,,,,,,,1911.3731738000643,1912.3786709000124,1910.1768254000926,1910.1768254000926,1910.1768254000926,1910.1768254000926,old_stationery_34.png,336,1.0,1.1883776999311522,,,056,11,2025-02-20_16h45.05.214,Surprise recog test,2023.1.3,59.95865251946728,
336,0,336,0,,,,,,,,,,,,,,,,,,,,,,,,,,,,,,,,,,1913.4080723000225,1914.4142339000246,1912.3786709000124,1912.3786709000124,1912.3786709000124,1912.3786709000124,new_sceneIn_12.png,337,1.0,1.0218656999059021,,,056,11,2025-02-20_16h45.05.214,Surprise recog test,2023.1.3,59.95865251946728,
337,0,337,0,,,,,,,,,,,,,,,,,,,,,,,,,,,,,,,,,,1915.1262217999902,1916.1310897000367,1914.4142339000246,1914.4142339000246,1914.4142339000246,1914.4142339000246,new_stationery_31.png,338,1.0,0.7034894999815151,,,056,11,2025-02-20_16h45.05.214,Surprise recog test,2023.1.3,59.95865251946728,
338,0,338,0,,,,,,,,,,,,,,,,,,,,,,,,,,,,,,,,,,1917.0946037000977,1918.0999838000862,1916.1310897000367,1916.1310897000367,1916.1310897000367,1916.1310897000367,new_fruit_41.png,339,3.0,0.9541382000315934,,,056,11,2025-02-20_16h45.05.214,Surprise recog test,2023.1.3,59.95865251946728,
339,0,339,0,,,,,,,,,,,,,,,,,,,,,,,,,,,,,,,,,,1919.1209221000317,1920.151501000044,1918.0999838000862,1918.0999838000862,1918.0999838000862,1918.0999838000862,old_sceneIn_23.png,340,1.0,1.0152032000478357,,,056,11,2025-02-20_16h45.05.214,Surprise recog test,2023.1.3,59.95865251946728,
340,0,340,0,,,,,,,,,,,,,,,,,,,,,,,,,,,,,,,,,,1921.0989790000021,1922.1181267000502,1920.151501000044,1920.151501000044,1920.151501000044,1920.151501000044,old_sceneOut_10.png,341,2.0,0.9495787000050768,,,056,11,2025-02-20_16h45.05.214,Surprise recog test,2023.1.3,59.95865251946728,
341,0,341,0,,,,,,,,,,,,,,,,,,,,,,,,,,,,,,,,,,1923.192008299986,1924.219217600068,1922.1181267000502,1922.1181267000502,1922.1181267000502,1922.1181267000502,new_sceneIn_16.png,342,2.0,1.075020500109531,,,056,11,2025-02-20_16h45.05.214,Surprise recog test,2023.1.3,59.95865251946728,
342,0,342,0,,,,,,,,,,,,,,,,,,,,,,,,,,,,,,,,,,1925.31455130002,1926.3386978000635,1924.219217600068,1924.219217600068,1924.219217600068,1924.219217600068,new_fruit_20.png,343,3.0,1.094834899995476,,,056,11,2025-02-20_16h45.05.214,Surprise recog test,2023.1.3,59.95865251946728,
343,0,343,0,,,,,,,,,,,,,,,,,,,,,,,,,,,,,,,,,,1927.326615900034,1928.362390400027,1926.3386978000635,1926.3386978000635,1926.3386978000635,1926.3386978000635,new_stationery_49.png,344,1.0,0.9887574999593198,,,056,11,2025-02-20_16h45.05.214,Surprise recog test,2023.1.3,59.95865251946728,
344,0,344,0,,,,,,,,,,,,,,,,,,,,,,,,,,,,,,,,,,1929.2213757000864,1930.2297906000167,1928.362390400027,1928.362390400027,1928.362390400027,1928.362390400027,new_fruit_43.png,345,3.0,0.8574907999718562,,,056,11,2025-02-20_16h45.05.214,Surprise recog test,2023.1.3,59.95865251946728,
345,0,345,0,,,,,,,,,,,,,,,,,,,,,,,,,,,,,,,,,,1930.929393800092,1931.9684003000148,1930.2297906000167,1930.2297906000167,1930.2297906000167,1930.2297906000167,new_sceneIn_34.png,346,2.0,0.6923959999112412,,,056,11,2025-02-20_16h45.05.214,Surprise recog test,2023.1.3,59.95865251946728,
346,0,346,0,,,,,,,,,,,,,,,,,,,,,,,,,,,,,,,,,,1934.1318514000159,1935.1648771000328,1931.9684003000148,1931.9684003000148,1931.9684003000148,1931.9684003000148,old_fruit_37.png,347,3.0,2.1675466999877244,,,056,11,2025-02-20_16h45.05.214,Surprise recog test,2023.1.3,59.95865251946728,
347,0,347,0,,,,,,,,,,,,,,,,,,,,,,,,,,,,,,,,,,1936.5544768000254,1937.5811239000177,1935.1648771000328,1935.1648771000328,1935.1648771000328,1935.1648771000328,old_sceneIn_26.png,348,1.0,1.3915582000045106,,,056,11,2025-02-20_16h45.05.214,Surprise recog test,2023.1.3,59.95865251946728,
