trial_loop.thisRepN,trial_loop.thisTrialN,trial_loop.thisN,trial_loop.thisIndex,VAS_slider.started,VAS_text.started,VAS_notstressed_text.started,VAS_stressed_text.started,continue_input.started,continue_text.started,label0.started,label10.started,label20.started,label30.started,label40.started,label50.started,label60.started,label70.started,label80.started,label90.started,label100.started,VAS_slider.response,VAS_slider.rt,VAS_slider.history,Answer_VAS,continue_input.keys,instruction_text.started,continue_text_2.started,continue_input_2.started,continue_input_2.keys,continue_input_2.rt,continue_input_2.duration,example_text.started,example_slider_2.started,example_image.started,example_slider_2.response,example_slider_2.rt,fixcross.started,fixcross.stopped,front_square.started,stim_images.started,trial_inst_images.started,slider_images.started,slider_images.stopped,thisImg,trial_count,slider_images.response,slider_images.rt,outro.started,participant,condition,date,expName,psychopyVersion,frameRate,
,,,,245.17705170001136,245.17705170001136,245.17705170001136,245.17705170001136,245.17705170001136,245.17705170001136,245.17705170001136,245.17705170001136,245.17705170001136,245.17705170001136,245.17705170001136,245.17705170001136,245.17705170001136,245.17705170001136,245.17705170001136,245.17705170001136,245.17705170001136,3.0722222222222224,14.874022800009698,"[(3.0722222222222224, 14.874022800009698)]",3.0722222222222224,None,,,,,,,,,,,,,,,,,,,,,,,,057,00,2025-03-11_14h13.54.019,Surprise recog test,2023.1.3,59.96444107396887,
,,,,,,,,,,,,,,,,,,,,,,,,,,260.08416249998845,260.08416249998845,260.08416249998845,space,29.2132707000128,None,,,,,,,,,,,,,,,,,,057,00,2025-03-11_14h13.54.019,Surprise recog test,2023.1.3,59.96444107396887,
0,0,0,0,,,,,,,,,,,,,,,,,,,,,,,,,,,,,289.43007860000944,289.43007860000944,289.43007860000944,5.0,9.554240500030573,304.9154033000232,299.94017169997096,299.94017169997096,299.94017169997096,299.94017169997096,299.94017169997096,304.90672199998517,new_stationery_11.png,1,None,None,,057,00,2025-03-11_14h13.54.019,Surprise recog test,2023.1.3,59.96444107396887,
1,0,1,0,,,,,,,,,,,,,,,,,,,,,,,,,,,,,,,,,,308.60145550000016,309.61814229999436,305.92587320000166,305.92587320000166,305.92587320000166,305.92587320000166,,new_sceneOut_30.png,2,2.0,2.6718962999875657,,057,00,2025-03-11_14h13.54.019,Surprise recog test,2023.1.3,59.96444107396887,
2,0,2,0,,,,,,,,,,,,,,,,,,,,,,,,,,,,,,,,,,311.8482076000073,312.8756459999713,309.61814229999436,309.61814229999436,309.61814229999436,309.61814229999436,,old_sceneOut_8.png,3,2.0,2.230821000004653,,057,00,2025-03-11_14h13.54.019,Surprise recog test,2023.1.3,59.96444107396887,
3,0,3,0,,,,,,,,,,,,,,,,,,,,,,,,,,,,,,,,,,314.88992480002344,315.91324770002393,312.8756459999713,312.8756459999713,312.8756459999713,312.8756459999713,,old_sceneIn_40.png,4,1.0,2.01556970004458,,057,00,2025-03-11_14h13.54.019,Surprise recog test,2023.1.3,59.96444107396887,
4,0,4,0,,,,,,,,,,,,,,,,,,,,,,,,,,,,,,,,,,317.70806839998113,318.71918479999295,315.91324770002393,315.91324770002393,315.91324770002393,315.91324770002393,,old_fruit_4.png,5,1.0,1.7972918000305071,,057,00,2025-03-11_14h13.54.019,Surprise recog test,2023.1.3,59.96444107396887,
5,0,5,0,,,,,,,,,,,,,,,,,,,,,,,,,,,,,,,,,,321.18546730000526,322.2140294999699,318.71918479999295,318.71918479999295,318.71918479999295,318.71918479999295,,new_sceneOut_37.png,6,4.0,2.462113399989903,,057,00,2025-03-11_14h13.54.019,Surprise recog test,2023.1.3,59.96444107396887,
6,0,6,0,,,,,,,,,,,,,,,,,,,,,,,,,,,,,,,,,,324.658340999973,325.6811217999784,322.2140294999699,322.2140294999699,322.2140294999699,322.2140294999699,,old_sceneIn_2.png,7,2.0,2.4456220000283793,,057,00,2025-03-11_14h13.54.019,Surprise recog test,2023.1.3,59.96444107396887,
7,0,7,0,,,,,,,,,,,,,,,,,,,,,,,,,,,,,,,,,,327.92284660000587,,325.6811217999784,325.6811217999784,325.6811217999784,325.6811217999784,,new_fruit_28.png,8,3.0,2.242008099972736,,057,00,2025-03-11_14h13.54.019,Surprise recog test,2023.1.3,59.96444107396887,
8,0,8,0,,,,,,,,,,,,,,,,,,,,,,,,,,,,,,,,,,331.2196347999852,332.2401533999946,328.9597336999723,328.9597336999723,328.9597336999723,328.9597336999723,,new_stationery_26.png,9,4.0,2.2616615999722853,,057,00,2025-03-11_14h13.54.019,Surprise recog test,2023.1.3,59.96444107396887,
9,0,9,0,,,,,,,,,,,,,,,,,,,,,,,,,,,,,,,,,,334.06851710000774,335.0945784000214,332.2401533999946,332.2401533999946,332.2401533999946,332.2401533999946,,old_sceneIn_28.png,10,4.0,1.8316207999596372,,057,00,2025-03-11_14h13.54.019,Surprise recog test,2023.1.3,59.96444107396887,
10,0,10,0,,,,,,,,,,,,,,,,,,,,,,,,,,,,,,,,,,336.6492315999931,337.668044799997,335.0945784000214,335.0945784000214,335.0945784000214,335.0945784000214,,old_fruit_23.png,11,1.0,1.5565365999937057,,057,00,2025-03-11_14h13.54.019,Surprise recog test,2023.1.3,59.96444107396887,
11,0,11,0,,,,,,,,,,,,,,,,,,,,,,,,,,,,,,,,,,339.9281659999979,340.9518966000178,337.668044799997,337.668044799997,337.668044799997,337.668044799997,,old_stationery_1.png,12,3.0,2.2559632000047714,,057,00,2025-03-11_14h13.54.019,Surprise recog test,2023.1.3,59.96444107396887,
12,0,12,0,,,,,,,,,,,,,,,,,,,,,,,,,,,,,,,,,,343.56972430000314,,340.9518966000178,340.9518966000178,340.9518966000178,340.9518966000178,,new_stationery_31.png,13,3.0,2.619148799974937,,057,00,2025-03-11_14h13.54.019,Surprise recog test,2023.1.3,59.96444107396887,
13,0,13,0,,,,,,,,,,,,,,,,,,,,,,,,,,,,,,,,,,346.09522690001177,347.11733659997117,344.60198510001646,344.60198510001646,344.60198510001646,344.60198510001646,,new_stationery_29.png,14,4.0,1.4934896000195295,,057,00,2025-03-11_14h13.54.019,Surprise recog test,2023.1.3,59.96444107396887,
14,0,14,0,,,,,,,,,,,,,,,,,,,,,,,,,,,,,,,,,,349.12879440002143,350.15777170000365,347.11733659997117,347.11733659997117,347.11733659997117,347.11733659997117,,new_sceneOut_35.png,15,4.0,2.0060437999782152,,057,00,2025-03-11_14h13.54.019,Surprise recog test,2023.1.3,59.96444107396887,
15,0,15,0,,,,,,,,,,,,,,,,,,,,,,,,,,,,,,,,,,351.83676530001685,352.8573684999719,350.15777170000365,350.15777170000365,350.15777170000365,350.15777170000365,,old_stationery_7.png,16,4.0,1.6806051000021398,,057,00,2025-03-11_14h13.54.019,Surprise recog test,2023.1.3,59.96444107396887,
16,0,16,0,,,,,,,,,,,,,,,,,,,,,,,,,,,,,,,,,,354.1016995999962,355.1314382000128,352.8573684999719,352.8573684999719,352.8573684999719,352.8573684999719,,new_sceneIn_41.png,17,4.0,1.2452035999740474,,057,00,2025-03-11_14h13.54.019,Surprise recog test,2023.1.3,59.96444107396887,
17,0,17,0,,,,,,,,,,,,,,,,,,,,,,,,,,,,,,,,,,357.314853399992,,355.1314382000128,355.1314382000128,355.1314382000128,355.1314382000128,,old_stationery_23.png,18,4.0,2.18710389995249,,057,00,2025-03-11_14h13.54.019,Surprise recog test,2023.1.3,59.96444107396887,
18,0,18,0,,,,,,,,,,,,,,,,,,,,,,,,,,,,,,,,,,360.22524080000585,361.2502372000017,358.34891120000975,358.34891120000975,358.34891120000975,358.34891120000975,,old_stationery_48.png,19,2.0,1.879478899994865,,057,00,2025-03-11_14h13.54.019,Surprise recog test,2023.1.3,59.96444107396887,
19,0,19,0,,,,,,,,,,,,,,,,,,,,,,,,,,,,,,,,,,363.44363170000724,364.4747554999776,361.2502372000017,361.2502372000017,361.2502372000017,361.2502372000017,,old_fruit_45.png,20,3.0,2.196118200023193,,057,00,2025-03-11_14h13.54.019,Surprise recog test,2023.1.3,59.96444107396887,
20,0,20,0,,,,,,,,,,,,,,,,,,,,,,,,,,,,,,,,,,366.09572029998526,367.12375069997506,364.4747554999776,364.4747554999776,364.4747554999776,364.4747554999776,,new_sceneOut_11.png,21,4.0,1.6207993000280112,,057,00,2025-03-11_14h13.54.019,Surprise recog test,2023.1.3,59.96444107396887,
21,0,21,0,,,,,,,,,,,,,,,,,,,,,,,,,,,,,,,,,,369.37243250000756,370.3866072000237,367.12375069997506,367.12375069997506,367.12375069997506,367.12375069997506,,new_fruit_6.png,22,3.0,2.252531700010877,,057,00,2025-03-11_14h13.54.019,Surprise recog test,2023.1.3,59.96444107396887,
22,0,22,0,,,,,,,,,,,,,,,,,,,,,,,,,,,,,,,,,,372.7111069000093,,370.3866072000237,370.3866072000237,370.3866072000237,370.3866072000237,,old_stationery_14.png,23,3.0,2.326580399996601,,057,00,2025-03-11_14h13.54.019,Surprise recog test,2023.1.3,59.96444107396887,
23,0,23,0,,,,,,,,,,,,,,,,,,,,,,,,,,,,,,,,,,375.3400882999995,376.3663303999929,373.7378894999856,373.7378894999856,373.7378894999856,373.7378894999856,,new_stationery_6.png,24,4.0,1.6018353000399657,,057,00,2025-03-11_14h13.54.019,Surprise recog test,2023.1.3,59.96444107396887,
24,0,24,0,,,,,,,,,,,,,,,,,,,,,,,,,,,,,,,,,,379.9206016000244,380.95065969997086,376.3663303999929,376.3663303999929,376.3663303999929,376.3663303999929,,old_stationery_17.png,25,4.0,3.557232399994973,,057,00,2025-03-11_14h13.54.019,Surprise recog test,2023.1.3,59.96444107396887,
25,0,25,0,,,,,,,,,,,,,,,,,,,,,,,,,,,,,,,,,,383.0793405000004,384.09052349999547,380.95065969997086,380.95065969997086,380.95065969997086,380.95065969997086,,new_fruit_9.png,26,2.0,2.129932900017593,,057,00,2025-03-11_14h13.54.019,Surprise recog test,2023.1.3,59.96444107396887,
26,0,26,0,,,,,,,,,,,,,,,,,,,,,,,,,,,,,,,,,,385.7316796000232,386.7568500000052,384.09052349999547,384.09052349999547,384.09052349999547,384.09052349999547,,new_sceneIn_46.png,27,5.0,1.6361861000186764,,057,00,2025-03-11_14h13.54.019,Surprise recog test,2023.1.3,59.96444107396887,
27,0,27,0,,,,,,,,,,,,,,,,,,,,,,,,,,,,,,,,,,389.90271409996785,390.9132891999907,386.7568500000052,386.7568500000052,386.7568500000052,386.7568500000052,,new_fruit_8.png,28,4.0,3.149012700014282,,057,00,2025-03-11_14h13.54.019,Surprise recog test,2023.1.3,59.96444107396887,
28,0,28,0,,,,,,,,,,,,,,,,,,,,,,,,,,,,,,,,,,392.84527869999874,393.87865069997497,390.9132891999907,390.9132891999907,390.9132891999907,390.9132891999907,,old_fruit_37.png,29,1.0,1.926713099994231,,057,00,2025-03-11_14h13.54.019,Surprise recog test,2023.1.3,59.96444107396887,
29,0,29,0,,,,,,,,,,,,,,,,,,,,,,,,,,,,,,,,,,395.68559000000823,396.71301080001285,393.87865069997497,393.87865069997497,393.87865069997497,393.87865069997497,,new_stationery_46.png,30,4.0,1.807281800021883,,057,00,2025-03-11_14h13.54.019,Surprise recog test,2023.1.3,59.96444107396887,
30,0,30,0,,,,,,,,,,,,,,,,,,,,,,,,,,,,,,,,,,398.0662742999848,399.1003273000242,396.71301080001285,396.71301080001285,396.71301080001285,396.71301080001285,,new_fruit_29.png,31,4.0,1.3557456000125967,,057,00,2025-03-11_14h13.54.019,Surprise recog test,2023.1.3,59.96444107396887,
31,0,31,0,,,,,,,,,,,,,,,,,,,,,,,,,,,,,,,,,,400.8408724999754,401.866945900023,399.1003273000242,399.1003273000242,399.1003273000242,399.1003273000242,,old_fruit_17.png,32,4.0,1.7411383999860846,,057,00,2025-03-11_14h13.54.019,Surprise recog test,2023.1.3,59.96444107396887,
32,0,32,0,,,,,,,,,,,,,,,,,,,,,,,,,,,,,,,,,,404.06038739997894,405.07530839997344,401.866945900023,401.866945900023,401.866945900023,401.866945900023,,old_fruit_33.png,33,3.0,2.1956228999770246,,057,00,2025-03-11_14h13.54.019,Surprise recog test,2023.1.3,59.96444107396887,
33,0,33,0,,,,,,,,,,,,,,,,,,,,,,,,,,,,,,,,,,407.2709891999839,,405.07530839997344,405.07530839997344,405.07530839997344,405.07530839997344,,new_sceneOut_41.png,34,3.0,2.1896558000007644,,057,00,2025-03-11_14h13.54.019,Surprise recog test,2023.1.3,59.96444107396887,
34,0,34,0,,,,,,,,,,,,,,,,,,,,,,,,,,,,,,,,,,410.0219713000115,411.03734929999337,408.293294699979,408.293294699979,408.293294699979,408.293294699979,,old_sceneIn_43.png,35,4.0,1.7225856999866664,,057,00,2025-03-11_14h13.54.019,Surprise recog test,2023.1.3,59.96444107396887,
35,0,35,0,,,,,,,,,,,,,,,,,,,,,,,,,,,,,,,,,,412.37969829997746,413.3987053000019,411.03734929999337,411.03734929999337,411.03734929999337,411.03734929999337,,old_stationery_34.png,36,4.0,1.3435472999699414,,057,00,2025-03-11_14h13.54.019,Surprise recog test,2023.1.3,59.96444107396887,
36,0,36,0,,,,,,,,,,,,,,,,,,,,,,,,,,,,,,,,,,415.11037379998015,416.12962279998465,413.3987053000019,413.3987053000019,413.3987053000019,413.3987053000019,,old_sceneIn_23.png,37,4.0,1.7067190000088885,,057,00,2025-03-11_14h13.54.019,Surprise recog test,2023.1.3,59.96444107396887,
37,0,37,0,,,,,,,,,,,,,,,,,,,,,,,,,,,,,,,,,,418.3969073999906,,416.12962279998465,416.12962279998465,416.12962279998465,416.12962279998465,,new_stationery_27.png,38,3.0,2.2686338999774307,,057,00,2025-03-11_14h13.54.019,Surprise recog test,2023.1.3,59.96444107396887,
38,0,38,0,,,,,,,,,,,,,,,,,,,,,,,,,,,,,,,,,,420.91397649998544,421.932422199985,419.4317211000016,419.4317211000016,419.4317211000016,419.4317211000016,,old_fruit_44.png,39,4.0,1.4780925000086427,,057,00,2025-03-11_14h13.54.019,Surprise recog test,2023.1.3,59.96444107396887,
39,0,39,0,,,,,,,,,,,,,,,,,,,,,,,,,,,,,,,,,,423.6270344000077,424.64622370002326,421.932422199985,421.932422199985,421.932422199985,421.932422199985,,old_sceneOut_40.png,40,4.0,1.6955820000148378,,057,00,2025-03-11_14h13.54.019,Surprise recog test,2023.1.3,59.96444107396887,
40,0,40,0,,,,,,,,,,,,,,,,,,,,,,,,,,,,,,,,,,426.0841380999773,427.107688100019,424.64622370002326,424.64622370002326,424.64622370002326,424.64622370002326,,new_sceneOut_48.png,41,4.0,1.4355826000100933,,057,00,2025-03-11_14h13.54.019,Surprise recog test,2023.1.3,59.96444107396887,
41,0,41,0,,,,,,,,,,,,,,,,,,,,,,,,,,,,,,,,,,428.94450540002435,429.96220439998433,427.107688100019,427.107688100019,427.107688100019,427.107688100019,,old_fruit_18.png,42,3.0,1.8383221999974921,,057,00,2025-03-11_14h13.54.019,Surprise recog test,2023.1.3,59.96444107396887,
42,0,42,0,,,,,,,,,,,,,,,,,,,,,,,,,,,,,,,,,,431.80853460001526,,429.96220439998433,429.96220439998433,429.96220439998433,429.96220439998433,,new_fruit_17.png,43,3.0,1.8423551000305451,,057,00,2025-03-11_14h13.54.019,Surprise recog test,2023.1.3,59.96444107396887,
43,0,43,0,,,,,,,,,,,,,,,,,,,,,,,,,,,,,,,,,,434.01619950000895,435.0334397999686,432.8301206000033,432.8301206000033,432.8301206000033,432.8301206000033,,old_stationery_32.png,44,4.0,1.1820371000212617,,057,00,2025-03-11_14h13.54.019,Surprise recog test,2023.1.3,59.96444107396887,
44,0,44,0,,,,,,,,,,,,,,,,,,,,,,,,,,,,,,,,,,436.73264659999404,437.75232630001847,435.0334397999686,435.0334397999686,435.0334397999686,435.0334397999686,,new_sceneOut_46.png,45,4.0,1.6912042999756522,,057,00,2025-03-11_14h13.54.019,Surprise recog test,2023.1.3,59.96444107396887,
45,0,45,0,,,,,,,,,,,,,,,,,,,,,,,,,,,,,,,,,,438.74913190002553,,437.75232630001847,437.75232630001847,437.75232630001847,437.75232630001847,,new_stationery_14.png,46,4.0,0.9918248999747448,,057,00,2025-03-11_14h13.54.019,Surprise recog test,2023.1.3,59.96444107396887,
46,0,46,0,,,,,,,,,,,,,,,,,,,,,,,,,,,,,,,,,,440.979751100007,442.001255900017,439.7808673999971,439.7808673999971,439.7808673999971,439.7808673999971,,new_fruit_39.png,47,3.0,1.2007426000200212,,057,00,2025-03-11_14h13.54.019,Surprise recog test,2023.1.3,59.96444107396887,
47,0,47,0,,,,,,,,,,,,,,,,,,,,,,,,,,,,,,,,,,443.2156666999799,444.22578490001615,442.001255900017,442.001255900017,442.001255900017,442.001255900017,,new_sceneIn_3.png,48,4.0,1.2165660000173375,,057,00,2025-03-11_14h13.54.019,Surprise recog test,2023.1.3,59.96444107396887,
48,0,48,0,,,,,,,,,,,,,,,,,,,,,,,,,,,,,,,,,,445.4372518999735,,444.22578490001615,444.22578490001615,444.22578490001615,444.22578490001615,,new_sceneOut_18.png,49,4.0,1.208760200010147,,057,00,2025-03-11_14h13.54.019,Surprise recog test,2023.1.3,59.96444107396887,
49,0,49,0,,,,,,,,,,,,,,,,,,,,,,,,,,,,,,,,,,449.1556905999896,450.1748289000243,446.4597551000188,446.4597551000188,446.4597551000188,446.4597551000188,,new_fruit_38.png,50,3.0,2.6936835999949835,,057,00,2025-03-11_14h13.54.019,Surprise recog test,2023.1.3,59.96444107396887,
50,0,50,0,,,,,,,,,,,,,,,,,,,,,,,,,,,,,,,,,,451.25763589999406,452.27353880001465,450.1748289000243,450.1748289000243,450.1748289000243,450.1748289000243,,old_sceneOut_3.png,51,4.0,1.0836423999862745,,057,00,2025-03-11_14h13.54.019,Surprise recog test,2023.1.3,59.96444107396887,
51,0,51,0,,,,,,,,,,,,,,,,,,,,,,,,,,,,,,,,,,454.15958490001503,455.17792980000377,452.27353880001465,452.27353880001465,452.27353880001465,452.27353880001465,,old_fruit_48.png,52,2.0,1.882327399973292,,057,00,2025-03-11_14h13.54.019,Surprise recog test,2023.1.3,59.96444107396887,
52,0,52,0,,,,,,,,,,,,,,,,,,,,,,,,,,,,,,,,,,456.6931709999917,457.7089170999825,455.17792980000377,455.17792980000377,455.17792980000377,455.17792980000377,,old_sceneOut_13.png,53,4.0,1.5139976000064053,,057,00,2025-03-11_14h13.54.019,Surprise recog test,2023.1.3,59.96444107396887,
53,0,53,0,,,,,,,,,,,,,,,,,,,,,,,,,,,,,,,,,,459.37535899999784,460.3885847000056,457.7089170999825,457.7089170999825,457.7089170999825,457.7089170999825,,new_sceneIn_11.png,54,4.0,1.668318000040017,,057,00,2025-03-11_14h13.54.019,Surprise recog test,2023.1.3,59.96444107396887,
54,0,54,0,,,,,,,,,,,,,,,,,,,,,,,,,,,,,,,,,,461.5034031000105,462.5222600999987,460.3885847000056,460.3885847000056,460.3885847000056,460.3885847000056,,old_sceneOut_29.png,55,4.0,1.1107162999687716,,057,00,2025-03-11_14h13.54.019,Surprise recog test,2023.1.3,59.96444107396887,
55,0,55,0,,,,,,,,,,,,,,,,,,,,,,,,,,,,,,,,,,464.1263657999807,465.1554536999902,462.5222600999987,462.5222600999987,462.5222600999987,462.5222600999987,,old_fruit_41.png,56,4.0,1.5999735000077635,,057,00,2025-03-11_14h13.54.019,Surprise recog test,2023.1.3,59.96444107396887,
56,0,56,0,,,,,,,,,,,,,,,,,,,,,,,,,,,,,,,,,,468.06968189997133,469.07805549999466,465.1554536999902,465.1554536999902,465.1554536999902,465.1554536999902,,new_fruit_44.png,57,3.0,2.916592800000217,,057,00,2025-03-11_14h13.54.019,Surprise recog test,2023.1.3,59.96444107396887,
57,0,57,0,,,,,,,,,,,,,,,,,,,,,,,,,,,,,,,,,,469.96444539999356,470.9843931000214,469.07805549999466,469.07805549999466,469.07805549999466,469.07805549999466,,new_stationery_18.png,58,4.0,0.8797657000250183,,057,00,2025-03-11_14h13.54.019,Surprise recog test,2023.1.3,59.96444107396887,
58,0,58,0,,,,,,,,,,,,,,,,,,,,,,,,,,,,,,,,,,472.01920949999476,473.0374757000245,470.9843931000214,470.9843931000214,470.9843931000214,470.9843931000214,,old_fruit_29.png,59,4.0,1.0360141000128351,,057,00,2025-03-11_14h13.54.019,Surprise recog test,2023.1.3,59.96444107396887,
59,0,59,0,,,,,,,,,,,,,,,,,,,,,,,,,,,,,,,,,,473.96317850000923,474.9823649000027,473.0374757000245,473.0374757000245,473.0374757000245,473.0374757000245,,new_stationery_44.png,60,4.0,0.9257551999762654,,057,00,2025-03-11_14h13.54.019,Surprise recog test,2023.1.3,59.96444107396887,
60,0,60,0,,,,,,,,,,,,,,,,,,,,,,,,,,,,,,,,,,475.87878580001416,,474.9823649000027,474.9823649000027,474.9823649000027,474.9823649000027,,new_sceneOut_24.png,61,4.0,0.8924693000153638,,057,00,2025-03-11_14h13.54.019,Surprise recog test,2023.1.3,59.96444107396887,
61,0,61,0,,,,,,,,,,,,,,,,,,,,,,,,,,,,,,,,,,477.86308219999773,478.8839692000183,476.9004550999962,476.9004550999962,476.9004550999962,476.9004550999962,,new_stationery_1.png,62,4.0,0.9564639999880455,,057,00,2025-03-11_14h13.54.019,Surprise recog test,2023.1.3,59.96444107396887,
62,0,62,0,,,,,,,,,,,,,,,,,,,,,,,,,,,,,,,,,,480.2185008000233,481.24986460001674,478.8839692000183,478.8839692000183,478.8839692000183,478.8839692000183,,old_fruit_27.png,63,4.0,1.3384405000251718,,057,00,2025-03-11_14h13.54.019,Surprise recog test,2023.1.3,59.96444107396887,
63,0,63,0,,,,,,,,,,,,,,,,,,,,,,,,,,,,,,,,,,484.1082144000102,485.1294635999948,481.24986460001674,481.24986460001674,481.24986460001674,481.24986460001674,,old_fruit_50.png,64,3.0,2.8602881000260822,,057,00,2025-03-11_14h13.54.019,Surprise recog test,2023.1.3,59.96444107396887,
64,0,64,0,,,,,,,,,,,,,,,,,,,,,,,,,,,,,,,,,,485.8546973000048,,485.1294635999948,485.1294635999948,485.1294635999948,485.1294635999948,,new_sceneOut_42.png,65,4.0,0.7228078999905847,,057,00,2025-03-11_14h13.54.019,Surprise recog test,2023.1.3,59.96444107396887,
65,0,65,0,,,,,,,,,,,,,,,,,,,,,,,,,,,,,,,,,,488.31114850001177,489.34309249999933,486.88868779997574,486.88868779997574,486.88868779997574,486.88868779997574,,new_sceneOut_39.png,66,4.0,1.425740799983032,,057,00,2025-03-11_14h13.54.019,Surprise recog test,2023.1.3,59.96444107396887,
66,0,66,0,,,,,,,,,,,,,,,,,,,,,,,,,,,,,,,,,,490.3697524999734,491.3974182999809,489.34309249999933,489.34309249999933,489.34309249999933,489.34309249999933,,new_sceneIn_8.png,67,4.0,1.029663699970115,,057,00,2025-03-11_14h13.54.019,Surprise recog test,2023.1.3,59.96444107396887,
67,0,67,0,,,,,,,,,,,,,,,,,,,,,,,,,,,,,,,,,,492.31973340001423,493.3501453999779,491.3974182999809,491.3974182999809,491.3974182999809,491.3974182999809,,old_sceneOut_27.png,68,4.0,0.9258137999568135,,057,00,2025-03-11_14h13.54.019,Surprise recog test,2023.1.3,59.96444107396887,
68,0,68,0,,,,,,,,,,,,,,,,,,,,,,,,,,,,,,,,,,495.17021670000395,496.19626729999436,493.3501453999779,493.3501453999779,493.3501453999779,493.3501453999779,,old_fruit_10.png,69,2.0,1.8238453999510966,,057,00,2025-03-11_14h13.54.019,Surprise recog test,2023.1.3,59.96444107396887,
69,0,69,0,,,,,,,,,,,,,,,,,,,,,,,,,,,,,,,,,,497.0287442000117,498.0498399999924,496.19626729999436,496.19626729999436,496.19626729999436,496.19626729999436,,new_stationery_50.png,70,4.0,0.8349816999980249,,057,00,2025-03-11_14h13.54.019,Surprise recog test,2023.1.3,59.96444107396887,
70,0,70,0,,,,,,,,,,,,,,,,,,,,,,,,,,,,,,,,,,498.96722130000126,500.00029479997465,498.0498399999924,498.0498399999924,498.0498399999924,498.0498399999924,,new_fruit_41.png,71,4.0,0.9196104000438936,,057,00,2025-03-11_14h13.54.019,Surprise recog test,2023.1.3,59.96444107396887,
71,0,71,0,,,,,,,,,,,,,,,,,,,,,,,,,,,,,,,,,,500.6896165999933,501.7147301000077,500.00029479997465,500.00029479997465,500.00029479997465,500.00029479997465,,new_stationery_10.png,72,4.0,0.6887805999722332,,057,00,2025-03-11_14h13.54.019,Surprise recog test,2023.1.3,59.96444107396887,
72,0,72,0,,,,,,,,,,,,,,,,,,,,,,,,,,,,,,,,,,503.80330369999865,,501.7147301000077,501.7147301000077,501.7147301000077,501.7147301000077,,new_fruit_26.png,73,3.0,2.0876499000005424,,057,00,2025-03-11_14h13.54.019,Surprise recog test,2023.1.3,59.96444107396887,
73,0,73,0,,,,,,,,,,,,,,,,,,,,,,,,,,,,,,,,,,507.3858502000221,508.407630599977,504.83596429997124,504.83596429997124,504.83596429997124,504.83596429997124,,new_fruit_4.png,74,4.0,2.5452408000128344,,057,00,2025-03-11_14h13.54.019,Surprise recog test,2023.1.3,59.96444107396887,
74,0,74,0,,,,,,,,,,,,,,,,,,,,,,,,,,,,,,,,,,509.52028379996773,510.54184239997994,508.407630599977,508.407630599977,508.407630599977,508.407630599977,,old_sceneIn_27.png,75,4.0,1.1169091999763623,,057,00,2025-03-11_14h13.54.019,Surprise recog test,2023.1.3,59.96444107396887,
75,0,75,0,,,,,,,,,,,,,,,,,,,,,,,,,,,,,,,,,,511.3477221999783,512.3762190999696,510.54184239997994,510.54184239997994,510.54184239997994,510.54184239997994,,old_sceneOut_1.png,76,4.0,0.8056644999887794,,057,00,2025-03-11_14h13.54.019,Surprise recog test,2023.1.3,59.96444107396887,
76,0,76,0,,,,,,,,,,,,,,,,,,,,,,,,,,,,,,,,,,513.8402964000124,514.8459895999986,512.3762190999696,512.3762190999696,512.3762190999696,512.3762190999696,,old_stationery_50.png,77,4.0,1.466063599975314,,057,00,2025-03-11_14h13.54.019,Surprise recog test,2023.1.3,59.96444107396887,
77,0,77,0,,,,,,,,,,,,,,,,,,,,,,,,,,,,,,,,,,515.9706736999797,516.9903675999958,514.8459895999986,514.8459895999986,514.8459895999986,514.8459895999986,,new_sceneOut_27.png,78,4.0,1.1210311999893747,,057,00,2025-03-11_14h13.54.019,Surprise recog test,2023.1.3,59.96444107396887,
78,0,78,0,,,,,,,,,,,,,,,,,,,,,,,,,,,,,,,,,,517.9226147999871,518.9472039000248,516.9903675999958,516.9903675999958,516.9903675999958,516.9903675999958,,new_sceneIn_40.png,79,4.0,0.9332711999886669,,057,00,2025-03-11_14h13.54.019,Surprise recog test,2023.1.3,59.96444107396887,
79,0,79,0,,,,,,,,,,,,,,,,,,,,,,,,,,,,,,,,,,520.2864671999705,521.3175250000204,518.9472039000248,518.9472039000248,518.9472039000248,518.9472039000248,,old_fruit_9.png,80,4.0,1.340562299999874,,057,00,2025-03-11_14h13.54.019,Surprise recog test,2023.1.3,59.96444107396887,
80,0,80,0,,,,,,,,,,,,,,,,,,,,,,,,,,,,,,,,,,522.6493867000099,523.6707507999963,521.3175250000204,521.3175250000204,521.3175250000204,521.3175250000204,,old_fruit_40.png,81,4.0,1.334156199998688,,057,00,2025-03-11_14h13.54.019,Surprise recog test,2023.1.3,59.96444107396887,
81,0,81,0,,,,,,,,,,,,,,,,,,,,,,,,,,,,,,,,,,524.5763775000232,525.603792799986,523.6707507999963,523.6707507999963,523.6707507999963,523.6707507999963,,old_sceneIn_37.png,82,4.0,0.9080420000245795,,057,00,2025-03-11_14h13.54.019,Surprise recog test,2023.1.3,59.96444107396887,
82,0,82,0,,,,,,,,,,,,,,,,,,,,,,,,,,,,,,,,,,527.4003120000125,528.4235249999911,525.603792799986,525.603792799986,525.603792799986,525.603792799986,,old_fruit_14.png,83,3.0,1.7986182000022382,,057,00,2025-03-11_14h13.54.019,Surprise recog test,2023.1.3,59.96444107396887,
83,0,83,0,,,,,,,,,,,,,,,,,,,,,,,,,,,,,,,,,,529.1540153999813,530.1628972999752,528.4235249999911,528.4235249999911,528.4235249999911,528.4235249999911,,old_sceneIn_26.png,84,4.0,0.7311942999949679,,057,00,2025-03-11_14h13.54.019,Surprise recog test,2023.1.3,59.96444107396887,
84,0,84,0,,,,,,,,,,,,,,,,,,,,,,,,,,,,,,,,,,531.4224291999708,532.4415005000192,530.1628972999752,530.1628972999752,530.1628972999752,530.1628972999752,,new_fruit_24.png,85,4.0,1.2502394000184722,,057,00,2025-03-11_14h13.54.019,Surprise recog test,2023.1.3,59.96444107396887,
85,0,85,0,,,,,,,,,,,,,,,,,,,,,,,,,,,,,,,,,,533.6299392000074,534.6607505999855,532.4415005000192,532.4415005000192,532.4415005000192,532.4415005000192,,new_sceneIn_37.png,86,4.0,1.1897661999682896,,057,00,2025-03-11_14h13.54.019,Surprise recog test,2023.1.3,59.96444107396887,
86,0,86,0,,,,,,,,,,,,,,,,,,,,,,,,,,,,,,,,,,535.9761098999879,536.9842291999958,534.6607505999855,534.6607505999855,534.6607505999855,534.6607505999855,,new_stationery_41.png,87,4.0,1.311146699998062,,057,00,2025-03-11_14h13.54.019,Surprise recog test,2023.1.3,59.96444107396887,
87,0,87,0,,,,,,,,,,,,,,,,,,,,,,,,,,,,,,,,,,538.0635652000201,,536.9842291999958,536.9842291999958,536.9842291999958,536.9842291999958,,new_stationery_34.png,88,4.0,1.075686099997256,,057,00,2025-03-11_14h13.54.019,Surprise recog test,2023.1.3,59.96444107396887,
88,0,88,0,,,,,,,,,,,,,,,,,,,,,,,,,,,,,,,,,,539.9964634000207,541.0151865999796,539.0921114999801,539.0921114999801,539.0921114999801,539.0921114999801,,old_stationery_31.png,89,4.0,0.9046412999741733,,057,00,2025-03-11_14h13.54.019,Surprise recog test,2023.1.3,59.96444107396887,
89,0,89,0,,,,,,,,,,,,,,,,,,,,,,,,,,,,,,,,,,541.9465495999902,542.9713871999993,541.0151865999796,541.0151865999796,541.0151865999796,541.0151865999796,,new_sceneOut_14.png,90,4.0,0.9336059999768622,,057,00,2025-03-11_14h13.54.019,Surprise recog test,2023.1.3,59.96444107396887,
90,0,90,0,,,,,,,,,,,,,,,,,,,,,,,,,,,,,,,,,,544.0203498000046,,542.9713871999993,542.9713871999993,542.9713871999993,542.9713871999993,,old_sceneOut_20.png,91,4.0,1.0536909999791533,,057,00,2025-03-11_14h13.54.019,Surprise recog test,2023.1.3,59.96444107396887,
91,0,91,0,,,,,,,,,,,,,,,,,,,,,,,,,,,,,,,,,,545.8384880999802,,545.0516712000244,545.0516712000244,545.0516712000244,545.0516712000244,,old_stationery_12.png,92,4.0,0.7868733999785036,,057,00,2025-03-11_14h13.54.019,Surprise recog test,2023.1.3,59.96444107396887,
92,0,92,0,,,,,,,,,,,,,,,,,,,,,,,,,,,,,,,,,,547.8027768000029,548.8279038000037,546.8708111000014,546.8708111000014,546.8708111000014,546.8708111000014,,old_sceneIn_33.png,93,4.0,0.9293667000019923,,057,00,2025-03-11_14h13.54.019,Surprise recog test,2023.1.3,59.96444107396887,
93,0,93,0,,,,,,,,,,,,,,,,,,,,,,,,,,,,,,,,,,549.9625210000086,550.9916754000005,548.8279038000037,548.8279038000037,548.8279038000037,548.8279038000037,,new_stationery_40.png,94,4.0,1.137482300051488,,057,00,2025-03-11_14h13.54.019,Surprise recog test,2023.1.3,59.96444107396887,
94,0,94,0,,,,,,,,,,,,,,,,,,,,,,,,,,,,,,,,,,551.8577297999873,552.864555099979,550.9916754000005,550.9916754000005,550.9916754000005,550.9916754000005,,old_sceneOut_14.png,95,4.0,0.8655492999823764,,057,00,2025-03-11_14h13.54.019,Surprise recog test,2023.1.3,59.96444107396887,
95,0,95,0,,,,,,,,,,,,,,,,,,,,,,,,,,,,,,,,,,553.7850165999844,554.8123095000046,552.864555099979,552.864555099979,552.864555099979,552.864555099979,,old_sceneOut_45.png,96,4.0,0.9163553999969736,,057,00,2025-03-11_14h13.54.019,Surprise recog test,2023.1.3,59.96444107396887,
96,0,96,0,,,,,,,,,,,,,,,,,,,,,,,,,,,,,,,,,,555.5877117000055,556.6127710000146,554.8123095000046,554.8123095000046,554.8123095000046,554.8123095000046,,new_sceneIn_50.png,97,4.0,0.7760887999902479,,057,00,2025-03-11_14h13.54.019,Surprise recog test,2023.1.3,59.96444107396887,
97,0,97,0,,,,,,,,,,,,,,,,,,,,,,,,,,,,,,,,,,559.1647836000193,,556.6127710000146,556.6127710000146,556.6127710000146,556.6127710000146,,new_fruit_21.png,98,4.0,2.5516478000208735,,057,00,2025-03-11_14h13.54.019,Surprise recog test,2023.1.3,59.96444107396887,
98,0,98,0,,,,,,,,,,,,,,,,,,,,,,,,,,,,,,,,,,561.833708799968,,560.2015913000214,560.2015913000214,560.2015913000214,560.2015913000214,,new_stationery_13.png,99,4.0,1.6350280999904498,,057,00,2025-03-11_14h13.54.019,Surprise recog test,2023.1.3,59.96444107396887,
99,0,99,0,,,,,,,,,,,,,,,,,,,,,,,,,,,,,,,,,,564.2254487000173,565.2522191000171,562.8557995000156,562.8557995000156,562.8557995000156,562.8557995000156,,new_fruit_40.png,100,4.0,1.3661200999631546,,057,00,2025-03-11_14h13.54.019,Surprise recog test,2023.1.3,59.96444107396887,
100,0,100,0,,,,,,,,,,,,,,,,,,,,,,,,,,,,,,,,,,565.9047562999767,,565.2522191000171,565.2522191000171,565.2522191000171,565.2522191000171,,old_sceneOut_36.png,101,4.0,0.6546613000100479,,057,00,2025-03-11_14h13.54.019,Surprise recog test,2023.1.3,59.96444107396887,
101,0,101,0,,,,,,,,,,,,,,,,,,,,,,,,,,,,,,,,,,568.8581228000112,,566.9400816999841,566.9400816999841,566.9400816999841,566.9400816999841,,new_fruit_16.png,102,4.0,1.9220696999691427,,057,00,2025-03-11_14h13.54.019,Surprise recog test,2023.1.3,59.96444107396887,
102,0,102,0,,,,,,,,,,,,,,,,,,,,,,,,,,,,,,,,,,570.6659351999988,571.6927736999933,569.8905900000245,569.8905900000245,569.8905900000245,569.8905900000245,,old_sceneIn_5.png,103,4.0,0.7778745000250638,,057,00,2025-03-11_14h13.54.019,Surprise recog test,2023.1.3,59.96444107396887,
103,0,103,0,,,,,,,,,,,,,,,,,,,,,,,,,,,,,,,,,,572.430174499983,573.4486995000043,571.6927736999933,571.6927736999933,571.6927736999933,571.6927736999933,,old_sceneOut_48.png,104,4.0,0.7383084999746643,,057,00,2025-03-11_14h13.54.019,Surprise recog test,2023.1.3,59.96444107396887,
104,0,104,0,,,,,,,,,,,,,,,,,,,,,,,,,,,,,,,,,,575.5987215000205,576.6169151000213,573.4486995000043,573.4486995000043,573.4486995000043,573.4486995000043,,old_fruit_7.png,105,3.0,2.144441900018137,,057,00,2025-03-11_14h13.54.019,Surprise recog test,2023.1.3,59.96444107396887,
105,0,105,0,,,,,,,,,,,,,,,,,,,,,,,,,,,,,,,,,,577.3325406999793,578.3623719000025,576.6169151000213,576.6169151000213,576.6169151000213,576.6169151000213,,old_stationery_39.png,106,4.0,0.7118161999969743,,057,00,2025-03-11_14h13.54.019,Surprise recog test,2023.1.3,59.96444107396887,
106,0,106,0,,,,,,,,,,,,,,,,,,,,,,,,,,,,,,,,,,580.4432361000217,581.4684863999719,578.3623719000025,578.3623719000025,578.3623719000025,578.3623719000025,,new_stationery_4.png,107,4.0,2.0807283999747597,,057,00,2025-03-11_14h13.54.019,Surprise recog test,2023.1.3,59.96444107396887,
107,0,107,0,,,,,,,,,,,,,,,,,,,,,,,,,,,,,,,,,,582.6408612999949,583.6681716999738,581.4684863999719,581.4684863999719,581.4684863999719,581.4684863999719,,old_fruit_2.png,108,4.0,1.1750281000277027,,057,00,2025-03-11_14h13.54.019,Surprise recog test,2023.1.3,59.96444107396887,
108,0,108,0,,,,,,,,,,,,,,,,,,,,,,,,,,,,,,,,,,584.8962884999928,585.9299100000062,583.6681716999738,583.6681716999738,583.6681716999738,583.6681716999738,,new_sceneOut_6.png,109,4.0,1.229775600018911,,057,00,2025-03-11_14h13.54.019,Surprise recog test,2023.1.3,59.96444107396887,
109,0,109,0,,,,,,,,,,,,,,,,,,,,,,,,,,,,,,,,,,586.8110963000217,587.8425169999828,585.9299100000062,585.9299100000062,585.9299100000062,585.9299100000062,,old_sceneOut_42.png,110,4.0,0.8855596000212245,,057,00,2025-03-11_14h13.54.019,Surprise recog test,2023.1.3,59.96444107396887,
110,0,110,0,,,,,,,,,,,,,,,,,,,,,,,,,,,,,,,,,,588.6207857999834,589.6416112000006,587.8425169999828,587.8425169999828,587.8425169999828,587.8425169999828,,new_sceneIn_5.png,111,4.0,0.7787892000051215,,057,00,2025-03-11_14h13.54.019,Surprise recog test,2023.1.3,59.96444107396887,
111,0,111,0,,,,,,,,,,,,,,,,,,,,,,,,,,,,,,,,,,590.4777402000036,591.4923789000022,589.6416112000006,589.6416112000006,589.6416112000006,589.6416112000006,,new_sceneOut_50.png,112,4.0,0.8388904000166804,,057,00,2025-03-11_14h13.54.019,Surprise recog test,2023.1.3,59.96444107396887,
112,0,112,0,,,,,,,,,,,,,,,,,,,,,,,,,,,,,,,,,,593.972351400007,594.982742000022,591.4923789000022,591.4923789000022,591.4923789000022,591.4923789000022,,old_stationery_29.png,113,2.0,2.475825799978338,,057,00,2025-03-11_14h13.54.019,Surprise recog test,2023.1.3,59.96444107396887,
113,0,113,0,,,,,,,,,,,,,,,,,,,,,,,,,,,,,,,,,,596.3871030000155,597.3974140000064,594.982742000022,594.982742000022,594.982742000022,594.982742000022,,new_sceneOut_15.png,114,4.0,1.3974452000111341,,057,00,2025-03-11_14h13.54.019,Surprise recog test,2023.1.3,59.96444107396887,
114,0,114,0,,,,,,,,,,,,,,,,,,,,,,,,,,,,,,,,,,598.696359900001,599.7172226000112,597.3974140000064,597.3974140000064,597.3974140000064,597.3974140000064,,old_stationery_24.png,115,4.0,1.2938424999592826,,057,00,2025-03-11_14h13.54.019,Surprise recog test,2023.1.3,59.96444107396887,
115,0,115,0,,,,,,,,,,,,,,,,,,,,,,,,,,,,,,,,,,600.8581230000127,601.8717774000252,599.7172226000112,599.7172226000112,599.7172226000112,599.7172226000112,,new_fruit_11.png,116,4.0,1.1428359000128694,,057,00,2025-03-11_14h13.54.019,Surprise recog test,2023.1.3,59.96444107396887,
116,0,116,0,,,,,,,,,,,,,,,,,,,,,,,,,,,,,,,,,,602.7086903000018,603.735078800004,601.8717774000252,601.8717774000252,601.8717774000252,601.8717774000252,,old_sceneIn_1.png,117,4.0,0.8310532000032254,,057,00,2025-03-11_14h13.54.019,Surprise recog test,2023.1.3,59.96444107396887,
117,0,117,0,,,,,,,,,,,,,,,,,,,,,,,,,,,,,,,,,,605.9899190000142,607.0213451000163,603.735078800004,603.735078800004,603.735078800004,603.735078800004,,old_fruit_16.png,118,4.0,2.2556056000175886,,057,00,2025-03-11_14h13.54.019,Surprise recog test,2023.1.3,59.96444107396887,
118,0,118,0,,,,,,,,,,,,,,,,,,,,,,,,,,,,,,,,,,609.7044216999784,610.7120397000108,607.0213451000163,607.0213451000163,607.0213451000163,607.0213451000163,,old_stationery_35.png,119,2.0,2.6775813000276685,,057,00,2025-03-11_14h13.54.019,Surprise recog test,2023.1.3,59.96444107396887,
119,0,119,0,,,,,,,,,,,,,,,,,,,,,,,,,,,,,,,,,,612.1229002000182,613.1406481000013,610.7120397000108,610.7120397000108,610.7120397000108,610.7120397000108,,old_stationery_19.png,120,4.0,1.3997029000311159,,057,00,2025-03-11_14h13.54.019,Surprise recog test,2023.1.3,59.96444107396887,
120,0,120,0,,,,,,,,,,,,,,,,,,,,,,,,,,,,,,,,,,614.4583500999724,615.4777633000049,613.1406481000013,613.1406481000013,613.1406481000013,613.1406481000013,,new_stationery_25.png,121,4.0,1.3165446000057273,,057,00,2025-03-11_14h13.54.019,Surprise recog test,2023.1.3,59.96444107396887,
121,0,121,0,,,,,,,,,,,,,,,,,,,,,,,,,,,,,,,,,,616.6471405000193,,615.4777633000049,615.4777633000049,615.4777633000049,615.4777633000049,,new_sceneOut_38.png,122,4.0,1.171378300001379,,057,00,2025-03-11_14h13.54.019,Surprise recog test,2023.1.3,59.96444107396887,
122,0,122,0,,,,,,,,,,,,,,,,,,,,,,,,,,,,,,,,,,618.5115541999694,619.5192440000246,617.6659481999814,617.6659481999814,617.6659481999814,617.6659481999814,,old_stationery_6.png,123,4.0,0.8385357999941334,,057,00,2025-03-11_14h13.54.019,Surprise recog test,2023.1.3,59.96444107396887,
123,0,123,0,,,,,,,,,,,,,,,,,,,,,,,,,,,,,,,,,,621.6141021000221,622.6372109000222,619.5192440000246,619.5192440000246,619.5192440000246,619.5192440000246,,new_stationery_38.png,124,4.0,2.0905937000061385,,057,00,2025-03-11_14h13.54.019,Surprise recog test,2023.1.3,59.96444107396887,
124,0,124,0,,,,,,,,,,,,,,,,,,,,,,,,,,,,,,,,,,623.5057057000231,624.5258129999856,622.6372109000222,622.6372109000222,622.6372109000222,622.6372109000222,,new_sceneOut_4.png,125,4.0,0.8720099999918602,,057,00,2025-03-11_14h13.54.019,Surprise recog test,2023.1.3,59.96444107396887,
125,0,125,0,,,,,,,,,,,,,,,,,,,,,,,,,,,,,,,,,,625.3077148000011,626.3368877000175,624.5258129999856,624.5258129999856,624.5258129999856,624.5258129999856,,old_sceneIn_20.png,126,4.0,0.77765330002876,,057,00,2025-03-11_14h13.54.019,Surprise recog test,2023.1.3,59.96444107396887,
126,0,126,0,,,,,,,,,,,,,,,,,,,,,,,,,,,,,,,,,,627.4294535000226,628.4564561999869,626.3368877000175,626.3368877000175,626.3368877000175,626.3368877000175,,new_fruit_48.png,127,4.0,1.0945991999469697,,057,00,2025-03-11_14h13.54.019,Surprise recog test,2023.1.3,59.96444107396887,
127,0,127,0,,,,,,,,,,,,,,,,,,,,,,,,,,,,,,,,,,629.1968528999714,630.2257031999761,628.4564561999869,628.4564561999869,628.4564561999869,628.4564561999869,,new_sceneIn_10.png,128,4.0,0.7424345000181347,,057,00,2025-03-11_14h13.54.019,Surprise recog test,2023.1.3,59.96444107396887,
128,0,128,0,,,,,,,,,,,,,,,,,,,,,,,,,,,,,,,,,,631.1386555000208,632.1468597999774,630.2257031999761,630.2257031999761,630.2257031999761,630.2257031999761,,old_fruit_19.png,129,4.0,0.9157895999960601,,057,00,2025-03-11_14h13.54.019,Surprise recog test,2023.1.3,59.96444107396887,
129,0,129,0,,,,,,,,,,,,,,,,,,,,,,,,,,,,,,,,,,633.3739382000058,634.3870522999787,632.1468597999774,632.1468597999774,632.1468597999774,632.1468597999774,,old_stationery_3.png,130,4.0,1.2184322000248358,,057,00,2025-03-11_14h13.54.019,Surprise recog test,2023.1.3,59.96444107396887,
130,0,130,0,,,,,,,,,,,,,,,,,,,,,,,,,,,,,,,,,,637.0665345999878,638.0952050000196,634.3870522999787,634.3870522999787,634.3870522999787,634.3870522999787,,old_stationery_25.png,131,4.0,2.67924630001653,,057,00,2025-03-11_14h13.54.019,Surprise recog test,2023.1.3,59.96444107396887,
131,0,131,0,,,,,,,,,,,,,,,,,,,,,,,,,,,,,,,,,,639.2655110000051,,638.0952050000196,638.0952050000196,638.0952050000196,638.0952050000196,,new_stationery_39.png,132,4.0,1.1706842000130564,,057,00,2025-03-11_14h13.54.019,Surprise recog test,2023.1.3,59.96444107396887,
132,0,132,0,,,,,,,,,,,,,,,,,,,,,,,,,,,,,,,,,,641.0970687000081,642.1058329999796,640.3001420000219,640.3001420000219,640.3001420000219,640.3001420000219,,new_sceneOut_9.png,133,4.0,0.7975479000015184,,057,00,2025-03-11_14h13.54.019,Surprise recog test,2023.1.3,59.96444107396887,
133,0,133,0,,,,,,,,,,,,,,,,,,,,,,,,,,,,,,,,,,644.1328154000221,645.1518740999745,642.1058329999796,642.1058329999796,642.1058329999796,642.1058329999796,,old_fruit_49.png,134,2.0,2.018178900005296,,057,00,2025-03-11_14h13.54.019,Surprise recog test,2023.1.3,59.96444107396887,
134,0,134,0,,,,,,,,,,,,,,,,,,,,,,,,,,,,,,,,,,647.2521666000248,648.271875699982,645.1518740999745,645.1518740999745,645.1518740999745,645.1518740999745,,new_fruit_12.png,135,4.0,2.0955186000210233,,057,00,2025-03-11_14h13.54.019,Surprise recog test,2023.1.3,59.96444107396887,
135,0,135,0,,,,,,,,,,,,,,,,,,,,,,,,,,,,,,,,,,649.1521275999839,650.1747408999945,648.271875699982,648.271875699982,648.271875699982,648.271875699982,,new_sceneIn_14.png,136,4.0,0.8819140999694355,,057,00,2025-03-11_14h13.54.019,Surprise recog test,2023.1.3,59.96444107396887,
136,0,136,0,,,,,,,,,,,,,,,,,,,,,,,,,,,,,,,,,,651.772371399973,652.7812914000242,650.1747408999945,650.1747408999945,650.1747408999945,650.1747408999945,,old_stationery_43.png,137,4.0,1.6007266999804415,,057,00,2025-03-11_14h13.54.019,Surprise recog test,2023.1.3,59.96444107396887,
137,0,137,0,,,,,,,,,,,,,,,,,,,,,,,,,,,,,,,,,,654.6049727000063,655.6166365999961,652.7812914000242,652.7812914000242,652.7812914000242,652.7812914000242,,new_fruit_33.png,138,4.0,1.819685099995695,,057,00,2025-03-11_14h13.54.019,Surprise recog test,2023.1.3,59.96444107396887,
138,0,138,0,,,,,,,,,,,,,,,,,,,,,,,,,,,,,,,,,,656.2476818999858,,655.6166365999961,655.6166365999961,655.6166365999961,655.6166365999961,,old_sceneOut_6.png,139,4.0,0.6251469000126235,,057,00,2025-03-11_14h13.54.019,Surprise recog test,2023.1.3,59.96444107396887,
139,0,139,0,,,,,,,,,,,,,,,,,,,,,,,,,,,,,,,,,,658.2445400999859,659.2674434999935,657.2800244999817,657.2800244999817,657.2800244999817,657.2800244999817,,old_stationery_36.png,140,4.0,0.966478599992115,,057,00,2025-03-11_14h13.54.019,Surprise recog test,2023.1.3,59.96444107396887,
140,0,140,0,,,,,,,,,,,,,,,,,,,,,,,,,,,,,,,,,,660.5448013999849,661.554708599986,659.2674434999935,659.2674434999935,659.2674434999935,659.2674434999935,,old_sceneOut_46.png,141,4.0,1.2815962999593467,,057,00,2025-03-11_14h13.54.019,Surprise recog test,2023.1.3,59.96444107396887,
141,0,141,0,,,,,,,,,,,,,,,,,,,,,,,,,,,,,,,,,,663.4399477000115,664.4542168999906,661.554708599986,661.554708599986,661.554708599986,661.554708599986,,new_fruit_19.png,142,4.0,1.8811721000238322,,057,00,2025-03-11_14h13.54.019,Surprise recog test,2023.1.3,59.96444107396887,
142,0,142,0,,,,,,,,,,,,,,,,,,,,,,,,,,,,,,,,,,666.6853859000257,667.7027513000066,664.4542168999906,664.4542168999906,664.4542168999906,664.4542168999906,,old_fruit_34.png,143,3.0,2.2279135000426322,,057,00,2025-03-11_14h13.54.019,Surprise recog test,2023.1.3,59.96444107396887,
143,0,143,0,,,,,,,,,,,,,,,,,,,,,,,,,,,,,,,,,,668.6021279999986,669.6184094999917,667.7027513000066,667.7027513000066,667.7027513000066,667.7027513000066,,new_sceneOut_3.png,144,4.0,0.9011626000283286,,057,00,2025-03-11_14h13.54.019,Surprise recog test,2023.1.3,59.96444107396887,
144,0,144,0,,,,,,,,,,,,,,,,,,,,,,,,,,,,,,,,,,670.7716538999812,671.7945608000155,669.6184094999917,669.6184094999917,669.6184094999917,669.6184094999917,,new_stationery_17.png,145,4.0,1.1509062999975868,,057,00,2025-03-11_14h13.54.019,Surprise recog test,2023.1.3,59.96444107396887,
145,0,145,0,,,,,,,,,,,,,,,,,,,,,,,,,,,,,,,,,,672.5067549999803,673.5282509999815,671.7945608000155,671.7945608000155,671.7945608000155,671.7945608000155,,new_sceneOut_19.png,146,4.0,0.7126079999725334,,057,00,2025-03-11_14h13.54.019,Surprise recog test,2023.1.3,59.96444107396887,
146,0,146,0,,,,,,,,,,,,,,,,,,,,,,,,,,,,,,,,,,676.5978021000046,,673.5282509999815,673.5282509999815,673.5282509999815,673.5282509999815,,old_fruit_42.png,147,4.0,3.0717478999868035,,057,00,2025-03-11_14h13.54.019,Surprise recog test,2023.1.3,59.96444107396887,
147,0,147,0,,,,,,,,,,,,,,,,,,,,,,,,,,,,,,,,,,680.1898387999972,681.2187493999954,677.6181343999924,677.6181343999924,677.6181343999924,677.6181343999924,,new_fruit_2.png,148,3.0,2.5651707999641076,,057,00,2025-03-11_14h13.54.019,Surprise recog test,2023.1.3,59.96444107396887,
148,0,148,0,,,,,,,,,,,,,,,,,,,,,,,,,,,,,,,,,,682.9371816000203,683.9694700000109,681.2187493999954,681.2187493999954,681.2187493999954,681.2187493999954,,old_fruit_1.png,149,4.0,1.7207442999933846,,057,00,2025-03-11_14h13.54.019,Surprise recog test,2023.1.3,59.96444107396887,
149,0,149,0,,,,,,,,,,,,,,,,,,,,,,,,,,,,,,,,,,684.7026522000087,,683.9694700000109,683.9694700000109,683.9694700000109,683.9694700000109,,new_sceneIn_26.png,150,4.0,0.7356348999892361,,057,00,2025-03-11_14h13.54.019,Surprise recog test,2023.1.3,59.96444107396887,
150,0,150,0,,,,,,,,,,,,,,,,,,,,,,,,,,,,,,,,,,686.76133389998,687.7844747999916,685.7239845999866,685.7239845999866,685.7239845999866,685.7239845999866,,old_stationery_9.png,151,4.0,1.0333915000082925,,057,00,2025-03-11_14h13.54.019,Surprise recog test,2023.1.3,59.96444107396887,
151,0,151,0,,,,,,,,,,,,,,,,,,,,,,,,,,,,,,,,,,688.4459804000217,689.4695903999964,687.7844747999916,687.7844747999916,687.7844747999916,687.7844747999916,,old_sceneIn_39.png,152,4.0,0.6634501999942586,,057,00,2025-03-11_14h13.54.019,Surprise recog test,2023.1.3,59.96444107396887,
152,0,152,0,,,,,,,,,,,,,,,,,,,,,,,,,,,,,,,,,,690.2037164000212,691.2261720999959,689.4695903999964,689.4695903999964,689.4695903999964,689.4695903999964,,old_stationery_4.png,153,4.0,0.734792200033553,,057,00,2025-03-11_14h13.54.019,Surprise recog test,2023.1.3,59.96444107396887,
153,0,153,0,,,,,,,,,,,,,,,,,,,,,,,,,,,,,,,,,,691.8742075000191,692.8940268000006,691.2261720999959,691.2261720999959,691.2261720999959,691.2261720999959,,old_sceneOut_30.png,154,4.0,0.6505130999721587,,057,00,2025-03-11_14h13.54.019,Surprise recog test,2023.1.3,59.96444107396887,
154,0,154,0,,,,,,,,,,,,,,,,,,,,,,,,,,,,,,,,,,693.5587771999999,694.5708560000057,692.8940268000006,692.8940268000006,692.8940268000006,692.8940268000006,,new_stationery_22.png,155,4.0,0.6656539999530651,,057,00,2025-03-11_14h13.54.019,Surprise recog test,2023.1.3,59.96444107396887,
155,0,155,0,,,,,,,,,,,,,,,,,,,,,,,,,,,,,,,,,,696.2502132999944,697.2739759000251,694.5708560000057,694.5708560000057,694.5708560000057,694.5708560000057,,old_fruit_43.png,156,4.0,1.680147900013253,,057,00,2025-03-11_14h13.54.019,Surprise recog test,2023.1.3,59.96444107396887,
156,0,156,0,,,,,,,,,,,,,,,,,,,,,,,,,,,,,,,,,,698.2659495999687,699.2975949000102,697.2739759000251,697.2739759000251,697.2739759000251,697.2739759000251,,new_sceneOut_12.png,157,4.0,0.9932089999783784,,057,00,2025-03-11_14h13.54.019,Surprise recog test,2023.1.3,59.96444107396887,
157,0,157,0,,,,,,,,,,,,,,,,,,,,,,,,,,,,,,,,,,700.2193180000177,701.2512662999798,699.2975949000102,699.2975949000102,699.2975949000102,699.2975949000102,,old_stationery_11.png,158,4.0,0.9228429999784566,,057,00,2025-03-11_14h13.54.019,Surprise recog test,2023.1.3,59.96444107396887,
158,0,158,0,,,,,,,,,,,,,,,,,,,,,,,,,,,,,,,,,,702.5852254999918,,701.2512662999798,701.2512662999798,701.2512662999798,701.2512662999798,,old_sceneOut_35.png,159,4.0,1.337303599982988,,057,00,2025-03-11_14h13.54.019,Surprise recog test,2023.1.3,59.96444107396887,
159,0,159,0,,,,,,,,,,,,,,,,,,,,,,,,,,,,,,,,,,704.7833586999914,705.7930004000082,703.6057038999861,703.6057038999861,703.6057038999861,703.6057038999861,,new_sceneIn_23.png,160,4.0,1.1689225999871269,,057,00,2025-03-11_14h13.54.019,Surprise recog test,2023.1.3,59.96444107396887,
160,0,160,0,,,,,,,,,,,,,,,,,,,,,,,,,,,,,,,,,,708.4381825000164,709.4553913999698,705.7930004000082,705.7930004000082,705.7930004000082,705.7930004000082,,new_fruit_32.png,161,4.0,2.6417546000448056,,057,00,2025-03-11_14h13.54.019,Surprise recog test,2023.1.3,59.96444107396887,
161,0,161,0,,,,,,,,,,,,,,,,,,,,,,,,,,,,,,,,,,710.6176274999743,711.6379492999986,709.4553913999698,709.4553913999698,709.4553913999698,709.4553913999698,,new_fruit_47.png,162,4.0,1.1635522000142373,,057,00,2025-03-11_14h13.54.019,Surprise recog test,2023.1.3,59.96444107396887,
162,0,162,0,,,,,,,,,,,,,,,,,,,,,,,,,,,,,,,,,,712.7463358999812,713.7794971999829,711.6379492999986,711.6379492999986,711.6379492999986,711.6379492999986,,new_sceneIn_15.png,163,4.0,1.1095897000050172,,057,00,2025-03-11_14h13.54.019,Surprise recog test,2023.1.3,59.96444107396887,
163,0,163,0,,,,,,,,,,,,,,,,,,,,,,,,,,,,,,,,,,715.3779276999994,,713.7794971999829,713.7794971999829,713.7794971999829,713.7794971999829,,new_stationery_47.png,164,4.0,1.6027849999954924,,057,00,2025-03-11_14h13.54.019,Surprise recog test,2023.1.3,59.96444107396887,
164,0,164,0,,,,,,,,,,,,,,,,,,,,,,,,,,,,,,,,,,718.7646688999957,,716.4122257999843,716.4122257999843,716.4122257999843,716.4122257999843,,new_sceneOut_40.png,165,4.0,2.3509933999739587,,057,00,2025-03-11_14h13.54.019,Surprise recog test,2023.1.3,59.96444107396887,
165,0,165,0,,,,,,,,,,,,,,,,,,,,,,,,,,,,,,,,,,721.7307686000131,722.7500502999756,719.7954285999876,719.7954285999876,719.7954285999876,719.7954285999876,,new_stationery_21.png,166,4.0,1.9340275999857113,,057,00,2025-03-11_14h13.54.019,Surprise recog test,2023.1.3,59.96444107396887,
166,0,166,0,,,,,,,,,,,,,,,,,,,,,,,,,,,,,,,,,,724.0528117999784,,722.7500502999756,722.7500502999756,722.7500502999756,722.7500502999756,,old_sceneOut_43.png,167,4.0,1.3041407000273466,,057,00,2025-03-11_14h13.54.019,Surprise recog test,2023.1.3,59.96444107396887,
167,0,167,0,,,,,,,,,,,,,,,,,,,,,,,,,,,,,,,,,,726.5466990999994,727.5742704999866,725.0858198999777,725.0858198999777,725.0858198999777,725.0858198999777,,old_sceneOut_39.png,168,4.0,1.460712300031446,,057,00,2025-03-11_14h13.54.019,Surprise recog test,2023.1.3,59.96444107396887,
168,0,168,0,,,,,,,,,,,,,,,,,,,,,,,,,,,,,,,,,,728.8094494999968,729.840950199985,727.5742704999866,727.5742704999866,727.5742704999866,727.5742704999866,,new_sceneOut_43.png,169,4.0,1.2408106999937445,,057,00,2025-03-11_14h13.54.019,Surprise recog test,2023.1.3,59.96444107396887,
169,0,169,0,,,,,,,,,,,,,,,,,,,,,,,,,,,,,,,,,,731.0849926000228,732.1109808000037,729.840950199985,729.840950199985,729.840950199985,729.840950199985,,new_sceneIn_27.png,170,4.0,1.244714600034058,,057,00,2025-03-11_14h13.54.019,Surprise recog test,2023.1.3,59.96444107396887,
170,0,170,0,,,,,,,,,,,,,,,,,,,,,,,,,,,,,,,,,,733.1763839999912,,732.1109808000037,732.1109808000037,732.1109808000037,732.1109808000037,,old_sceneIn_10.png,171,4.0,1.0692483999882825,,057,00,2025-03-11_14h13.54.019,Surprise recog test,2023.1.3,59.96444107396887,
171,0,171,0,,,,,,,,,,,,,,,,,,,,,,,,,,,,,,,,,,735.4973858000012,736.5292307999916,734.2095059999847,734.2095059999847,734.2095059999847,734.2095059999847,,new_fruit_34.png,172,4.0,1.2889194000163116,,057,00,2025-03-11_14h13.54.019,Surprise recog test,2023.1.3,59.96444107396887,
172,0,172,0,,,,,,,,,,,,,,,,,,,,,,,,,,,,,,,,,,738.2012038999819,739.2332686000154,736.5292307999916,736.5292307999916,736.5292307999916,736.5292307999916,,old_fruit_38.png,173,4.0,1.6737470999942161,,057,00,2025-03-11_14h13.54.019,Surprise recog test,2023.1.3,59.96444107396887,
173,0,173,0,,,,,,,,,,,,,,,,,,,,,,,,,,,,,,,,,,740.6509434999898,741.6804106999771,739.2332686000154,739.2332686000154,739.2332686000154,739.2332686000154,,new_fruit_5.png,174,4.0,1.4198781000450253,,057,00,2025-03-11_14h13.54.019,Surprise recog test,2023.1.3,59.96444107396887,
174,0,174,0,,,,,,,,,,,,,,,,,,,,,,,,,,,,,,,,,,742.7225808000076,743.752611999982,741.6804106999771,741.6804106999771,741.6804106999771,741.6804106999771,,old_stationery_45.png,175,4.0,1.0447607000241987,,057,00,2025-03-11_14h13.54.019,Surprise recog test,2023.1.3,59.96444107396887,
175,0,175,0,,,,,,,,,,,,,,,,,,,,,,,,,,,,,,,,,,744.8894513999694,745.9152487000101,743.752611999982,743.752611999982,743.752611999982,743.752611999982,,old_sceneOut_41.png,176,4.0,1.1369945000042208,,057,00,2025-03-11_14h13.54.019,Surprise recog test,2023.1.3,59.96444107396887,
176,0,176,0,,,,,,,,,,,,,,,,,,,,,,,,,,,,,,,,,,746.9525184999802,747.972661799984,745.9152487000101,745.9152487000101,745.9152487000101,745.9152487000101,,old_sceneOut_7.png,177,4.0,1.036839600012172,,057,00,2025-03-11_14h13.54.019,Surprise recog test,2023.1.3,59.96444107396887,
177,0,177,0,,,,,,,,,,,,,,,,,,,,,,,,,,,,,,,,,,749.0722097000107,,747.972661799984,747.972661799984,747.972661799984,747.972661799984,,new_sceneIn_7.png,178,4.0,1.1015072999871336,,057,00,2025-03-11_14h13.54.019,Surprise recog test,2023.1.3,59.96444107396887,
178,0,178,0,,,,,,,,,,,,,,,,,,,,,,,,,,,,,,,,,,751.458430300001,,750.1064750999794,750.1064750999794,750.1064750999794,750.1064750999794,,old_stationery_40.png,179,4.0,1.3524426000076346,,057,00,2025-03-11_14h13.54.019,Surprise recog test,2023.1.3,59.96444107396887,
179,0,179,0,,,,,,,,,,,,,,,,,,,,,,,,,,,,,,,,,,753.7150037999963,754.7392428999883,752.4911346000154,752.4911346000154,752.4911346000154,752.4911346000154,,old_sceneOut_47.png,180,4.0,1.2260060000116937,,057,00,2025-03-11_14h13.54.019,Surprise recog test,2023.1.3,59.96444107396887,
180,0,180,0,,,,,,,,,,,,,,,,,,,,,,,,,,,,,,,,,,755.7078334999969,756.7270285999984,754.7392428999883,754.7392428999883,754.7392428999883,754.7392428999883,,new_sceneIn_6.png,181,4.0,0.9697230000165291,,057,00,2025-03-11_14h13.54.019,Surprise recog test,2023.1.3,59.96444107396887,
181,0,181,0,,,,,,,,,,,,,,,,,,,,,,,,,,,,,,,,,,757.7408610999701,758.7631142999744,756.7270285999984,756.7270285999984,756.7270285999984,756.7270285999984,,new_fruit_35.png,182,4.0,1.0153706999844871,,057,00,2025-03-11_14h13.54.019,Surprise recog test,2023.1.3,59.96444107396887,
182,0,182,0,,,,,,,,,,,,,,,,,,,,,,,,,,,,,,,,,,759.5700968999881,760.6008427999914,758.7631142999744,758.7631142999744,758.7631142999744,758.7631142999744,,old_sceneIn_17.png,183,4.0,0.8063513000379317,,057,00,2025-03-11_14h13.54.019,Surprise recog test,2023.1.3,59.96444107396887,
183,0,183,0,,,,,,,,,,,,,,,,,,,,,,,,,,,,,,,,,,763.7131235999987,764.7359272000031,760.6008427999914,760.6008427999914,760.6008427999914,760.6008427999914,,new_sceneIn_28.png,184,3.0,3.112721099983901,,057,00,2025-03-11_14h13.54.019,Surprise recog test,2023.1.3,59.96444107396887,
184,0,184,0,,,,,,,,,,,,,,,,,,,,,,,,,,,,,,,,,,766.4946466999827,767.5216009999858,764.7359272000031,764.7359272000031,764.7359272000031,764.7359272000031,,new_fruit_1.png,185,4.0,1.761050500033889,,057,00,2025-03-11_14h13.54.019,Surprise recog test,2023.1.3,59.96444107396887,
185,0,185,0,,,,,,,,,,,,,,,,,,,,,,,,,,,,,,,,,,769.7097915000049,770.7349359000218,767.5216009999858,767.5216009999858,767.5216009999858,767.5216009999858,,new_fruit_20.png,186,4.0,2.191026700020302,,057,00,2025-03-11_14h13.54.019,Surprise recog test,2023.1.3,59.96444107396887,
186,0,186,0,,,,,,,,,,,,,,,,,,,,,,,,,,,,,,,,,,771.6402473999769,772.643036799971,770.7349359000218,770.7349359000218,770.7349359000218,770.7349359000218,,old_sceneOut_26.png,187,4.0,0.9046914000064135,,057,00,2025-03-11_14h13.54.019,Surprise recog test,2023.1.3,59.96444107396887,
187,0,187,0,,,,,,,,,,,,,,,,,,,,,,,,,,,,,,,,,,773.9575479999767,774.9631292999838,772.643036799971,772.643036799971,772.643036799971,772.643036799971,,old_stationery_27.png,188,4.0,1.304199600010179,,057,00,2025-03-11_14h13.54.019,Surprise recog test,2023.1.3,59.96444107396887,
188,0,188,0,,,,,,,,,,,,,,,,,,,,,,,,,,,,,,,,,,776.0310974000022,777.0498601999716,774.9631292999838,774.9631292999838,774.9631292999838,774.9631292999838,,new_sceneOut_17.png,189,4.0,1.0640557000297122,,057,00,2025-03-11_14h13.54.019,Surprise recog test,2023.1.3,59.96444107396887,
189,0,189,0,,,,,,,,,,,,,,,,,,,,,,,,,,,,,,,,,,777.8107210000162,778.8160023000091,777.0498601999716,777.0498601999716,777.0498601999716,777.0498601999716,,old_stationery_41.png,190,4.0,0.7525242000119761,,057,00,2025-03-11_14h13.54.019,Surprise recog test,2023.1.3,59.96444107396887,
190,0,190,0,,,,,,,,,,,,,,,,,,,,,,,,,,,,,,,,,,779.5955025000148,780.6019942999701,778.8160023000091,778.8160023000091,778.8160023000091,778.8160023000091,,old_sceneOut_28.png,191,4.0,0.7698503999854438,,057,00,2025-03-11_14h13.54.019,Surprise recog test,2023.1.3,59.96444107396887,
191,0,191,0,,,,,,,,,,,,,,,,,,,,,,,,,,,,,,,,,,781.5471201000037,782.5516184999724,780.6019942999701,780.6019942999701,780.6019942999701,780.6019942999701,,old_sceneIn_48.png,192,4.0,0.9370177999953739,,057,00,2025-03-11_14h13.54.019,Surprise recog test,2023.1.3,59.96444107396887,
192,0,192,0,,,,,,,,,,,,,,,,,,,,,,,,,,,,,,,,,,783.2652724999934,784.2699399999692,782.5516184999724,782.5516184999724,782.5516184999724,782.5516184999724,,new_stationery_16.png,193,4.0,0.7037422000430524,,057,00,2025-03-11_14h13.54.019,Surprise recog test,2023.1.3,59.96444107396887,
193,0,193,0,,,,,,,,,,,,,,,,,,,,,,,,,,,,,,,,,,785.9508185000159,786.9565328999888,784.2699399999692,784.2699399999692,784.2699399999692,784.2699399999692,,new_fruit_7.png,194,4.0,1.6708254999830388,,057,00,2025-03-11_14h13.54.019,Surprise recog test,2023.1.3,59.96444107396887,
194,0,194,0,,,,,,,,,,,,,,,,,,,,,,,,,,,,,,,,,,787.5521182999946,788.5563314000028,786.9565328999888,786.9565328999888,786.9565328999888,786.9565328999888,,old_sceneOut_16.png,195,4.0,0.5865579000092112,,057,00,2025-03-11_14h13.54.019,Surprise recog test,2023.1.3,59.96444107396887,
195,0,195,0,,,,,,,,,,,,,,,,,,,,,,,,,,,,,,,,,,790.6880119999987,791.6929553999798,788.5563314000028,788.5563314000028,788.5563314000028,788.5563314000028,,new_stationery_12.png,196,4.0,2.1207498000003397,,057,00,2025-03-11_14h13.54.019,Surprise recog test,2023.1.3,59.96444107396887,
196,0,196,0,,,,,,,,,,,,,,,,,,,,,,,,,,,,,,,,,,792.6396804000251,793.6451096999808,791.6929553999798,791.6929553999798,791.6929553999798,791.6929553999798,,new_sceneIn_2.png,197,4.0,0.9370188000029884,,057,00,2025-03-11_14h13.54.019,Surprise recog test,2023.1.3,59.96444107396887,
197,0,197,0,,,,,,,,,,,,,,,,,,,,,,,,,,,,,,,,,,794.9583664999809,795.9632932000095,793.6451096999808,793.6451096999808,793.6451096999808,793.6451096999808,,old_sceneIn_15.png,198,4.0,1.3037680000416003,,057,00,2025-03-11_14h13.54.019,Surprise recog test,2023.1.3,59.96444107396887,
198,0,198,0,,,,,,,,,,,,,,,,,,,,,,,,,,,,,,,,,,796.7431276999996,797.7482641999959,795.9632932000095,795.9632932000095,795.9632932000095,795.9632932000095,,new_sceneIn_49.png,199,4.0,0.7696590999839827,,057,00,2025-03-11_14h13.54.019,Surprise recog test,2023.1.3,59.96444107396887,
199,0,199,0,,,,,,,,,,,,,,,,,,,,,,,,,,,,,,,,,,799.7624125999864,800.7673948999727,797.7482641999959,797.7482641999959,797.7482641999959,797.7482641999959,,old_sceneIn_14.png,200,4.0,2.0039059999980964,,057,00,2025-03-11_14h13.54.019,Surprise recog test,2023.1.3,59.96444107396887,
200,0,200,0,,,,,,,,,,,,,,,,,,,,,,,,,,,,,,,,,,801.7973647000035,802.802022000018,800.7673948999727,800.7673948999727,800.7673948999727,800.7673948999727,,new_stationery_3.png,201,4.0,1.0201878999941982,,057,00,2025-03-11_14h13.54.019,Surprise recog test,2023.1.3,59.96444107396887,
201,0,201,0,,,,,,,,,,,,,,,,,,,,,,,,,,,,,,,,,,804.0658920999849,805.0708754999796,802.802022000018,802.802022000018,802.802022000018,802.802022000018,,new_fruit_14.png,202,4.0,1.2539180999738164,,057,00,2025-03-11_14h13.54.019,Surprise recog test,2023.1.3,59.96444107396887,
202,0,202,0,,,,,,,,,,,,,,,,,,,,,,,,,,,,,,,,,,806.3011332000024,807.3060629999964,805.0708754999796,805.0708754999796,805.0708754999796,805.0708754999796,,old_sceneOut_21.png,203,4.0,1.2200923999771476,,057,00,2025-03-11_14h13.54.019,Surprise recog test,2023.1.3,59.96444107396887,
203,0,203,0,,,,,,,,,,,,,,,,,,,,,,,,,,,,,,,,,,808.9032062999904,809.9074319999781,807.3060629999964,807.3060629999964,807.3060629999964,807.3060629999964,,new_sceneIn_13.png,204,4.0,1.5872657999861985,,057,00,2025-03-11_14h13.54.019,Surprise recog test,2023.1.3,59.96444107396887,
204,0,204,0,,,,,,,,,,,,,,,,,,,,,,,,,,,,,,,,,,812.506241599971,813.511013499985,809.9074319999781,809.9074319999781,809.9074319999781,809.9074319999781,,old_stationery_47.png,205,1.0,2.5884366999962367,,057,00,2025-03-11_14h13.54.019,Surprise recog test,2023.1.3,59.96444107396887,
205,0,205,0,,,,,,,,,,,,,,,,,,,,,,,,,,,,,,,,,,814.8081767999684,815.8137792000198,813.511013499985,813.511013499985,813.511013499985,813.511013499985,,old_sceneIn_29.png,206,4.0,1.2891009000013582,,057,00,2025-03-11_14h13.54.019,Surprise recog test,2023.1.3,59.96444107396887,
206,0,206,0,,,,,,,,,,,,,,,,,,,,,,,,,,,,,,,,,,816.6930835000239,817.699698899989,815.8137792000198,815.8137792000198,815.8137792000198,815.8137792000198,,old_sceneIn_42.png,207,4.0,0.8702268999768421,,057,00,2025-03-11_14h13.54.019,Surprise recog test,2023.1.3,59.96444107396887,
207,0,207,0,,,,,,,,,,,,,,,,,,,,,,,,,,,,,,,,,,818.8449106999906,819.8542002000031,817.699698899989,817.699698899989,817.699698899989,817.699698899989,,old_stationery_38.png,208,4.0,1.1371858000056818,,057,00,2025-03-11_14h13.54.019,Surprise recog test,2023.1.3,59.96444107396887,
208,0,208,0,,,,,,,,,,,,,,,,,,,,,,,,,,,,,,,,,,821.4491244999808,822.4553016999853,819.8542002000031,819.8542002000031,819.8542002000031,819.8542002000031,,new_fruit_37.png,209,3.0,1.5887949999887496,,057,00,2025-03-11_14h13.54.019,Surprise recog test,2023.1.3,59.96444107396887,
209,0,209,0,,,,,,,,,,,,,,,,,,,,,,,,,,,,,,,,,,823.1338627000223,824.157955600007,822.4553016999853,822.4553016999853,822.4553016999853,822.4553016999853,,new_sceneOut_16.png,210,4.0,0.6742161000147462,,057,00,2025-03-11_14h13.54.019,Surprise recog test,2023.1.3,59.96444107396887,
210,0,210,0,,,,,,,,,,,,,,,,,,,,,,,,,,,,,,,,,,825.0514247000101,826.0719481999986,824.157955600007,824.157955600007,824.157955600007,824.157955600007,,new_sceneIn_29.png,211,4.0,0.8954291999689303,,057,00,2025-03-11_14h13.54.019,Surprise recog test,2023.1.3,59.96444107396887,
211,0,211,0,,,,,,,,,,,,,,,,,,,,,,,,,,,,,,,,,,827.8524931999855,828.8736676999833,826.0719481999986,826.0719481999986,826.0719481999986,826.0719481999986,,new_fruit_49.png,212,4.0,1.7815416000084952,,057,00,2025-03-11_14h13.54.019,Surprise recog test,2023.1.3,59.96444107396887,
212,0,212,0,,,,,,,,,,,,,,,,,,,,,,,,,,,,,,,,,,830.0204521999694,831.0413660000195,828.8736676999833,828.8736676999833,828.8736676999833,828.8736676999833,,new_fruit_42.png,213,4.0,1.1493189000175335,,057,00,2025-03-11_14h13.54.019,Surprise recog test,2023.1.3,59.96444107396887,
213,0,213,0,,,,,,,,,,,,,,,,,,,,,,,,,,,,,,,,,,831.9257542999694,,831.0413660000195,831.0413660000195,831.0413660000195,831.0413660000195,,old_sceneIn_8.png,214,4.0,0.8868193000089377,,057,00,2025-03-11_14h13.54.019,Surprise recog test,2023.1.3,59.96444107396887,
214,0,214,0,,,,,,,,,,,,,,,,,,,,,,,,,,,,,,,,,,834.0088236000156,835.0276122000068,832.9467932999833,832.9467932999833,832.9467932999833,832.9467932999833,,old_sceneIn_50.png,215,4.0,1.0581674000131898,,057,00,2025-03-11_14h13.54.019,Surprise recog test,2023.1.3,59.96444107396887,
215,0,215,0,,,,,,,,,,,,,,,,,,,,,,,,,,,,,,,,,,838.8615369999898,839.8814933000249,835.0276122000068,835.0276122000068,835.0276122000068,835.0276122000068,,new_fruit_36.png,216,3.0,3.8297116000321694,,057,00,2025-03-11_14h13.54.019,Surprise recog test,2023.1.3,59.96444107396887,
216,0,216,0,,,,,,,,,,,,,,,,,,,,,,,,,,,,,,,,,,840.6550563999917,841.6858612999786,839.8814933000249,839.8814933000249,839.8814933000249,839.8814933000249,,new_stationery_37.png,217,4.0,0.776458400010597,,057,00,2025-03-11_14h13.54.019,Surprise recog test,2023.1.3,59.96444107396887,
217,0,217,0,,,,,,,,,,,,,,,,,,,,,,,,,,,,,,,,,,844.1252877999796,845.1547855000244,841.6858612999786,841.6858612999786,841.6858612999786,841.6858612999786,,old_fruit_20.png,218,4.0,2.4396973000257276,,057,00,2025-03-11_14h13.54.019,Surprise recog test,2023.1.3,59.96444107396887,
218,0,218,0,,,,,,,,,,,,,,,,,,,,,,,,,,,,,,,,,,845.8614096000092,846.8757434000145,845.1547855000244,845.1547855000244,845.1547855000244,845.1547855000244,,new_sceneIn_30.png,219,4.0,0.7077059000148438,,057,00,2025-03-11_14h13.54.019,Surprise recog test,2023.1.3,59.96444107396887,
219,0,219,0,,,,,,,,,,,,,,,,,,,,,,,,,,,,,,,,,,849.1286229999969,850.1557474000147,846.8757434000145,846.8757434000145,846.8757434000145,846.8757434000145,,old_fruit_28.png,220,3.0,2.248650200024713,,057,00,2025-03-11_14h13.54.019,Surprise recog test,2023.1.3,59.96444107396887,
220,0,220,0,,,,,,,,,,,,,,,,,,,,,,,,,,,,,,,,,,850.9697078000172,851.9915745999897,850.1557474000147,850.1557474000147,850.1557474000147,850.1557474000147,,old_stationery_21.png,221,4.0,0.8150038999738172,,057,00,2025-03-11_14h13.54.019,Surprise recog test,2023.1.3,59.96444107396887,
221,0,221,0,,,,,,,,,,,,,,,,,,,,,,,,,,,,,,,,,,853.2445315999794,,851.9915745999897,851.9915745999897,851.9915745999897,851.9915745999897,,old_fruit_6.png,222,4.0,1.2549342999700457,,057,00,2025-03-11_14h13.54.019,Surprise recog test,2023.1.3,59.96444107396887,
222,0,222,0,,,,,,,,,,,,,,,,,,,,,,,,,,,,,,,,,,855.4588580999989,856.4821059000096,854.2723969999934,854.2723969999934,854.2723969999934,854.2723969999934,,old_sceneIn_22.png,223,4.0,1.1867331000394188,,057,00,2025-03-11_14h13.54.019,Surprise recog test,2023.1.3,59.96444107396887,
223,0,223,0,,,,,,,,,,,,,,,,,,,,,,,,,,,,,,,,,,857.4122458000202,,856.4821059000096,856.4821059000096,856.4821059000096,856.4821059000096,,new_sceneIn_36.png,224,4.0,0.9307017999817617,,057,00,2025-03-11_14h13.54.019,Surprise recog test,2023.1.3,59.96444107396887,
224,0,224,0,,,,,,,,,,,,,,,,,,,,,,,,,,,,,,,,,,859.4097255999804,860.4329941999749,858.4348810000229,858.4348810000229,858.4348810000229,858.4348810000229,,old_sceneOut_4.png,225,4.0,0.970747500017751,,057,00,2025-03-11_14h13.54.019,Surprise recog test,2023.1.3,59.96444107396887,
225,0,225,0,,,,,,,,,,,,,,,,,,,,,,,,,,,,,,,,,,861.2381648999872,862.2681126000243,860.4329941999749,860.4329941999749,860.4329941999749,860.4329941999749,,old_sceneOut_38.png,226,4.0,0.8071726000052877,,057,00,2025-03-11_14h13.54.019,Surprise recog test,2023.1.3,59.96444107396887,
226,0,226,0,,,,,,,,,,,,,,,,,,,,,,,,,,,,,,,,,,863.1252391000162,864.1517180000083,862.2681126000243,862.2681126000243,862.2681126000243,862.2681126000243,,old_sceneOut_10.png,227,4.0,0.8581855000229552,,057,00,2025-03-11_14h13.54.019,Surprise recog test,2023.1.3,59.96444107396887,
227,0,227,0,,,,,,,,,,,,,,,,,,,,,,,,,,,,,,,,,,864.8711435999721,865.9039648000035,864.1517180000083,864.1517180000083,864.1517180000083,864.1517180000083,,new_sceneIn_45.png,228,4.0,0.7217881000251509,,057,00,2025-03-11_14h13.54.019,Surprise recog test,2023.1.3,59.96444107396887,
228,0,228,0,,,,,,,,,,,,,,,,,,,,,,,,,,,,,,,,,,866.6072887000046,867.6391938999877,865.9039648000035,865.9039648000035,865.9039648000035,865.9039648000035,,new_stationery_20.png,229,4.0,0.7037707999697886,,057,00,2025-03-11_14h13.54.019,Surprise recog test,2023.1.3,59.96444107396887,
229,0,229,0,,,,,,,,,,,,,,,,,,,,,,,,,,,,,,,,,,868.3743422999978,869.4100792999961,867.6391938999877,867.6391938999877,867.6391938999877,867.6391938999877,,old_sceneOut_15.png,230,4.0,0.7371442999574356,,057,00,2025-03-11_14h13.54.019,Surprise recog test,2023.1.3,59.96444107396887,
230,0,230,0,,,,,,,,,,,,,,,,,,,,,,,,,,,,,,,,,,870.0708992999862,871.0923971000011,869.4100792999961,869.4100792999961,869.4100792999961,869.4100792999961,,new_sceneIn_19.png,231,4.0,0.6575000999728218,,057,00,2025-03-11_14h13.54.019,Surprise recog test,2023.1.3,59.96444107396887,
231,0,231,0,,,,,,,,,,,,,,,,,,,,,,,,,,,,,,,,,,871.9911512999679,,871.0923971000011,871.0923971000011,871.0923971000011,871.0923971000011,,old_fruit_46.png,232,4.0,0.8992964000208303,,057,00,2025-03-11_14h13.54.019,Surprise recog test,2023.1.3,59.96444107396887,
232,0,232,0,,,,,,,,,,,,,,,,,,,,,,,,,,,,,,,,,,874.6791780000203,,873.0258335999679,873.0258335999679,873.0258335999679,873.0258335999679,,old_fruit_13.png,233,4.0,1.6555950999609195,,057,00,2025-03-11_14h13.54.019,Surprise recog test,2023.1.3,59.96444107396887,
233,0,233,0,,,,,,,,,,,,,,,,,,,,,,,,,,,,,,,,,,876.6298350999714,,875.7127342000022,875.7127342000022,875.7127342000022,875.7127342000022,,new_stationery_45.png,234,4.0,0.9173325999872759,,057,00,2025-03-11_14h13.54.019,Surprise recog test,2023.1.3,59.96444107396887,
234,0,234,0,,,,,,,,,,,,,,,,,,,,,,,,,,,,,,,,,,878.8289483999833,879.8462873999961,877.6651039000135,877.6651039000135,877.6651039000135,877.6651039000135,,new_stationery_33.png,235,4.0,1.1656077000079677,,057,00,2025-03-11_14h13.54.019,Surprise recog test,2023.1.3,59.96444107396887,
235,0,235,0,,,,,,,,,,,,,,,,,,,,,,,,,,,,,,,,,,880.9272469999851,881.9489899000037,879.8462873999961,879.8462873999961,879.8462873999961,879.8462873999961,,new_sceneIn_42.png,236,4.0,1.0831682999851182,,057,00,2025-03-11_14h13.54.019,Surprise recog test,2023.1.3,59.96444107396887,
236,0,236,0,,,,,,,,,,,,,,,,,,,,,,,,,,,,,,,,,,882.872236199968,883.900447299995,881.9489899000037,881.9489899000037,881.9489899000037,881.9489899000037,,new_fruit_45.png,237,4.0,0.9243258999777026,,057,00,2025-03-11_14h13.54.019,Surprise recog test,2023.1.3,59.96444107396887,
237,0,237,0,,,,,,,,,,,,,,,,,,,,,,,,,,,,,,,,,,884.9108170000254,885.9374092000071,883.900447299995,883.900447299995,883.900447299995,883.900447299995,,old_stationery_16.png,238,4.0,1.0128362000104971,,057,00,2025-03-11_14h13.54.019,Surprise recog test,2023.1.3,59.96444107396887,
238,0,238,0,,,,,,,,,,,,,,,,,,,,,,,,,,,,,,,,,,886.9286502000177,887.9565053000115,885.9374092000071,885.9374092000071,885.9374092000071,885.9374092000071,,new_sceneIn_4.png,239,4.0,0.9923705999972299,,057,00,2025-03-11_14h13.54.019,Surprise recog test,2023.1.3,59.96444107396887,
239,0,239,0,,,,,,,,,,,,,,,,,,,,,,,,,,,,,,,,,,890.2444462999701,891.2764507000102,887.9565053000115,887.9565053000115,887.9565053000115,887.9565053000115,,old_sceneIn_44.png,240,3.0,2.2893355000414886,,057,00,2025-03-11_14h13.54.019,Surprise recog test,2023.1.3,59.96444107396887,
240,0,240,0,,,,,,,,,,,,,,,,,,,,,,,,,,,,,,,,,,892.0110850000056,893.0448972000158,891.2764507000102,891.2764507000102,891.2764507000102,891.2764507000102,,new_sceneOut_45.png,241,4.0,0.736135600018315,,057,00,2025-03-11_14h13.54.019,Surprise recog test,2023.1.3,59.96444107396887,
241,0,241,0,,,,,,,,,,,,,,,,,,,,,,,,,,,,,,,,,,894.045723600022,895.077046499995,893.0448972000158,893.0448972000158,893.0448972000158,893.0448972000158,,new_sceneIn_25.png,242,4.0,1.0037574999732897,,057,00,2025-03-11_14h13.54.019,Surprise recog test,2023.1.3,59.96444107396887,
242,0,242,0,,,,,,,,,,,,,,,,,,,,,,,,,,,,,,,,,,896.053625200002,897.0811924000154,895.077046499995,895.077046499995,895.077046499995,895.077046499995,,new_sceneOut_49.png,243,4.0,0.9786640999955125,,057,00,2025-03-11_14h13.54.019,Surprise recog test,2023.1.3,59.96444107396887,
243,0,243,0,,,,,,,,,,,,,,,,,,,,,,,,,,,,,,,,,,899.3490991999861,,897.0811924000154,897.0811924000154,897.0811924000154,897.0811924000154,,old_sceneOut_11.png,244,4.0,2.2710166000179015,,057,00,2025-03-11_14h13.54.019,Surprise recog test,2023.1.3,59.96444107396887,
244,0,244,0,,,,,,,,,,,,,,,,,,,,,,,,,,,,,,,,,,902.8033520000172,903.8354412000044,900.3842059000162,900.3842059000162,900.3842059000162,900.3842059000162,,old_sceneIn_47.png,245,4.0,2.420925200043712,,057,00,2025-03-11_14h13.54.019,Surprise recog test,2023.1.3,59.96444107396887,
245,0,245,0,,,,,,,,,,,,,,,,,,,,,,,,,,,,,,,,,,908.6883368999697,,903.8354412000044,903.8354412000044,903.8354412000044,903.8354412000044,,new_fruit_46.png,246,4.0,4.854366399988066,,057,00,2025-03-11_14h13.54.019,Surprise recog test,2023.1.3,59.96444107396887,
246,0,246,0,,,,,,,,,,,,,,,,,,,,,,,,,,,,,,,,,,912.1518223999883,913.164733099984,909.7207138999947,909.7207138999947,909.7207138999947,909.7207138999947,,old_stationery_30.png,247,4.0,2.4330153000191785,,057,00,2025-03-11_14h13.54.019,Surprise recog test,2023.1.3,59.96444107396887,
247,0,247,0,,,,,,,,,,,,,,,,,,,,,,,,,,,,,,,,,,914.6283618999878,,913.164733099984,913.164733099984,913.164733099984,913.164733099984,,old_stationery_44.png,248,4.0,1.4599326999741606,,057,00,2025-03-11_14h13.54.019,Surprise recog test,2023.1.3,59.96444107396887,
248,0,248,0,,,,,,,,,,,,,,,,,,,,,,,,,,,,,,,,,,917.6525586000062,918.6821223999723,915.6538628999842,915.6538628999842,915.6538628999842,915.6538628999842,,old_fruit_21.png,249,2.0,1.9986569000175223,,057,00,2025-03-11_14h13.54.019,Surprise recog test,2023.1.3,59.96444107396887,
249,0,249,0,,,,,,,,,,,,,,,,,,,,,,,,,,,,,,,,,,920.4150343000074,,918.6821223999723,918.6821223999723,918.6821223999723,918.6821223999723,,new_stationery_19.png,250,4.0,1.7324951000045985,,057,00,2025-03-11_14h13.54.019,Surprise recog test,2023.1.3,59.96444107396887,
250,0,250,0,,,,,,,,,,,,,,,,,,,,,,,,,,,,,,,,,,922.9722745000036,924.0018340999959,921.4336352000246,921.4336352000246,921.4336352000246,921.4336352000246,,new_fruit_30.png,251,4.0,1.5345066000008956,,057,00,2025-03-11_14h13.54.019,Surprise recog test,2023.1.3,59.96444107396887,
251,0,251,0,,,,,,,,,,,,,,,,,,,,,,,,,,,,,,,,,,924.98614980001,,924.0018340999959,924.0018340999959,924.0018340999959,924.0018340999959,,old_fruit_31.png,252,4.0,0.986369599995669,,057,00,2025-03-11_14h13.54.019,Surprise recog test,2023.1.3,59.96444107396887,
252,0,252,0,,,,,,,,,,,,,,,,,,,,,,,,,,,,,,,,,,929.0646909999778,930.0934489999781,926.0216836999753,926.0216836999753,926.0216836999753,926.0216836999753,,old_sceneIn_6.png,253,3.0,3.046734999981709,,057,00,2025-03-11_14h13.54.019,Surprise recog test,2023.1.3,59.96444107396887,
253,0,253,0,,,,,,,,,,,,,,,,,,,,,,,,,,,,,,,,,,930.9049140000134,931.917586399999,930.0934489999781,930.0934489999781,930.0934489999781,930.0934489999781,,old_stationery_20.png,254,4.0,0.8123986999853514,,057,00,2025-03-11_14h13.54.019,Surprise recog test,2023.1.3,59.96444107396887,
254,0,254,0,,,,,,,,,,,,,,,,,,,,,,,,,,,,,,,,,,932.8237366999965,933.8444792000228,931.917586399999,931.917586399999,931.917586399999,931.917586399999,,new_sceneIn_31.png,255,4.0,0.9081051999819465,,057,00,2025-03-11_14h13.54.019,Surprise recog test,2023.1.3,59.96444107396887,
255,0,255,0,,,,,,,,,,,,,,,,,,,,,,,,,,,,,,,,,,935.0571694999817,936.0778750000172,933.8444792000228,933.8444792000228,933.8444792000228,933.8444792000228,,new_stationery_49.png,256,4.0,1.2130548999994062,,057,00,2025-03-11_14h13.54.019,Surprise recog test,2023.1.3,59.96444107396887,
256,0,256,0,,,,,,,,,,,,,,,,,,,,,,,,,,,,,,,,,,937.5810831999988,,936.0778750000172,936.0778750000172,936.0778750000172,936.0778750000172,,old_sceneIn_19.png,257,4.0,1.5030657000024803,,057,00,2025-03-11_14h13.54.019,Surprise recog test,2023.1.3,59.96444107396887,
257,0,257,0,,,,,,,,,,,,,,,,,,,,,,,,,,,,,,,,,,939.5199559999746,940.5368273999775,938.6082147000125,938.6082147000125,938.6082147000125,938.6082147000125,,old_sceneOut_44.png,258,4.0,0.9074354999465868,,057,00,2025-03-11_14h13.54.019,Surprise recog test,2023.1.3,59.96444107396887,
258,0,258,0,,,,,,,,,,,,,,,,,,,,,,,,,,,,,,,,,,941.3677951999707,,940.5368273999775,940.5368273999775,940.5368273999775,940.5368273999775,,new_sceneOut_32.png,259,4.0,0.8268112000077963,,057,00,2025-03-11_14h13.54.019,Surprise recog test,2023.1.3,59.96444107396887,
259,0,259,0,,,,,,,,,,,,,,,,,,,,,,,,,,,,,,,,,,943.3252754000132,944.3364294000203,942.3880368000246,942.3880368000246,942.3880368000246,942.3880368000246,,new_sceneOut_10.png,260,4.0,0.9297841999796219,,057,00,2025-03-11_14h13.54.019,Surprise recog test,2023.1.3,59.96444107396887,
260,0,260,0,,,,,,,,,,,,,,,,,,,,,,,,,,,,,,,,,,948.0280139999813,949.0561251000036,944.3364294000203,944.3364294000203,944.3364294000203,944.3364294000203,,old_fruit_47.png,261,4.0,3.6844943999894895,,057,00,2025-03-11_14h13.54.019,Surprise recog test,2023.1.3,59.96444107396887,
261,0,261,0,,,,,,,,,,,,,,,,,,,,,,,,,,,,,,,,,,950.0875531000202,951.1117403000244,949.0561251000036,949.0561251000036,949.0561251000036,949.0561251000036,,old_sceneIn_49.png,262,4.0,1.027183199999854,,057,00,2025-03-11_14h13.54.019,Surprise recog test,2023.1.3,59.96444107396887,
262,0,262,0,,,,,,,,,,,,,,,,,,,,,,,,,,,,,,,,,,951.9725696999812,952.9963976999861,951.1117403000244,951.1117403000244,951.1117403000244,951.1117403000244,,new_stationery_42.png,263,4.0,0.8611246999935247,,057,00,2025-03-11_14h13.54.019,Surprise recog test,2023.1.3,59.96444107396887,
263,0,263,0,,,,,,,,,,,,,,,,,,,,,,,,,,,,,,,,,,954.1820661000093,955.1985934000113,952.9963976999861,952.9963976999861,952.9963976999861,952.9963976999861,,old_sceneIn_13.png,264,4.0,1.188581799971871,,057,00,2025-03-11_14h13.54.019,Surprise recog test,2023.1.3,59.96444107396887,
264,0,264,0,,,,,,,,,,,,,,,,,,,,,,,,,,,,,,,,,,955.9349331000121,956.9505960000097,955.1985934000113,955.1985934000113,955.1985934000113,955.1985934000113,,old_sceneOut_31.png,265,4.0,0.7294332000310533,,057,00,2025-03-11_14h13.54.019,Surprise recog test,2023.1.3,59.96444107396887,
265,0,265,0,,,,,,,,,,,,,,,,,,,,,,,,,,,,,,,,,,958.9325968999765,959.9655774999992,956.9505960000097,956.9505960000097,956.9505960000097,956.9505960000097,,new_stationery_35.png,266,3.0,1.9769255999708548,,057,00,2025-03-11_14h13.54.019,Surprise recog test,2023.1.3,59.96444107396887,
266,0,266,0,,,,,,,,,,,,,,,,,,,,,,,,,,,,,,,,,,961.0329862000071,,959.9655774999992,959.9655774999992,959.9655774999992,959.9655774999992,,old_sceneOut_18.png,267,4.0,1.0663464000099339,,057,00,2025-03-11_14h13.54.019,Surprise recog test,2023.1.3,59.96444107396887,
267,0,267,0,,,,,,,,,,,,,,,,,,,,,,,,,,,,,,,,,,963.0492704000208,964.0709729000228,962.0601349999779,962.0601349999779,962.0601349999779,962.0601349999779,,new_stationery_43.png,268,4.0,0.9848389999824576,,057,00,2025-03-11_14h13.54.019,Surprise recog test,2023.1.3,59.96444107396887,
268,0,268,0,,,,,,,,,,,,,,,,,,,,,,,,,,,,,,,,,,964.9073042999953,965.9384818000253,964.0709729000228,964.0709729000228,964.0709729000228,964.0709729000228,,new_sceneOut_34.png,269,4.0,0.8364416999975219,,057,00,2025-03-11_14h13.54.019,Surprise recog test,2023.1.3,59.96444107396887,
269,0,269,0,,,,,,,,,,,,,,,,,,,,,,,,,,,,,,,,,,967.5821233000024,968.6050400999957,965.9384818000253,965.9384818000253,965.9384818000253,965.9384818000253,,new_sceneIn_44.png,270,4.0,1.6441250999923795,,057,00,2025-03-11_14h13.54.019,Surprise recog test,2023.1.3,59.96444107396887,
270,0,270,0,,,,,,,,,,,,,,,,,,,,,,,,,,,,,,,,,,969.7217272999696,970.7393377000117,968.6050400999957,968.6050400999957,968.6050400999957,968.6050400999957,,new_sceneIn_18.png,271,4.0,1.118966099980753,,057,00,2025-03-11_14h13.54.019,Surprise recog test,2023.1.3,59.96444107396887,
271,0,271,0,,,,,,,,,,,,,,,,,,,,,,,,,,,,,,,,,,972.6859369999729,973.6980800000019,970.7393377000117,970.7393377000117,970.7393377000117,970.7393377000117,,new_stationery_28.png,272,4.0,1.9460549000068568,,057,00,2025-03-11_14h13.54.019,Surprise recog test,2023.1.3,59.96444107396887,
272,0,272,0,,,,,,,,,,,,,,,,,,,,,,,,,,,,,,,,,,975.3781755000236,,973.6980800000019,973.6980800000019,973.6980800000019,973.6980800000019,,old_fruit_5.png,273,4.0,1.6727773000020534,,057,00,2025-03-11_14h13.54.019,Surprise recog test,2023.1.3,59.96444107396887,
273,0,273,0,,,,,,,,,,,,,,,,,,,,,,,,,,,,,,,,,,979.3362351999967,980.3682119000005,976.4057375999982,976.4057375999982,976.4057375999982,976.4057375999982,,old_fruit_25.png,274,2.0,2.9254486999707296,,057,00,2025-03-11_14h13.54.019,Surprise recog test,2023.1.3,59.96444107396887,
274,0,274,0,,,,,,,,,,,,,,,,,,,,,,,,,,,,,,,,,,982.1343523000251,,980.3682119000005,980.3682119000005,980.3682119000005,980.3682119000005,,new_sceneIn_16.png,275,4.0,1.7656869000056759,,057,00,2025-03-11_14h13.54.019,Surprise recog test,2023.1.3,59.96444107396887,
275,0,275,0,,,,,,,,,,,,,,,,,,,,,,,,,,,,,,,,,,984.3374943999806,985.358056099969,983.1658353999956,983.1658353999956,983.1658353999956,983.1658353999956,,new_fruit_3.png,276,4.0,1.1725526000373065,,057,00,2025-03-11_14h13.54.019,Surprise recog test,2023.1.3,59.96444107396887,
276,0,276,0,,,,,,,,,,,,,,,,,,,,,,,,,,,,,,,,,,986.1252635999699,987.1549564999877,985.358056099969,985.358056099969,985.358056099969,985.358056099969,,old_sceneOut_12.png,277,4.0,0.7612966999877244,,057,00,2025-03-11_14h13.54.019,Surprise recog test,2023.1.3,59.96444107396887,
277,0,277,0,,,,,,,,,,,,,,,,,,,,,,,,,,,,,,,,,,988.9956588000059,990.0236444000038,987.1549564999877,987.1549564999877,987.1549564999877,987.1549564999877,,new_sceneOut_13.png,278,4.0,1.8427451999741606,,057,00,2025-03-11_14h13.54.019,Surprise recog test,2023.1.3,59.96444107396887,
278,0,278,0,,,,,,,,,,,,,,,,,,,,,,,,,,,,,,,,,,992.804633599997,993.8273414999712,990.0236444000038,990.0236444000038,990.0236444000038,990.0236444000038,,new_fruit_18.png,279,2.0,2.7823759999591857,,057,00,2025-03-11_14h13.54.019,Surprise recog test,2023.1.3,59.96444107396887,
279,0,279,0,,,,,,,,,,,,,,,,,,,,,,,,,,,,,,,,,,994.9924791000085,996.0000228999997,993.8273414999712,993.8273414999712,993.8273414999712,993.8273414999712,,new_sceneIn_20.png,280,4.0,1.1679386000032537,,057,00,2025-03-11_14h13.54.019,Surprise recog test,2023.1.3,59.96444107396887,
280,0,280,0,,,,,,,,,,,,,,,,,,,,,,,,,,,,,,,,,,997.3300465000211,,996.0000228999997,996.0000228999997,996.0000228999997,996.0000228999997,,new_sceneOut_20.png,281,4.0,1.3235493999673054,,057,00,2025-03-11_14h13.54.019,Surprise recog test,2023.1.3,59.96444107396887,
281,0,281,0,,,,,,,,,,,,,,,,,,,,,,,,,,,,,,,,,,1000.2492618000251,,998.3511262999964,998.3511262999964,998.3511262999964,998.3511262999964,,new_sceneIn_39.png,282,4.0,1.8936544000171125,,057,00,2025-03-11_14h13.54.019,Surprise recog test,2023.1.3,59.96444107396887,
282,0,282,0,,,,,,,,,,,,,,,,,,,,,,,,,,,,,,,,,,1004.995175899996,1006.0241315999883,1001.2814644000027,1001.2814644000027,1001.2814644000027,1001.2814644000027,,new_sceneIn_22.png,283,3.0,3.7147185999783687,,057,00,2025-03-11_14h13.54.019,Surprise recog test,2023.1.3,59.96444107396887,
283,0,283,0,,,,,,,,,,,,,,,,,,,,,,,,,,,,,,,,,,1006.8525346000097,1007.8727705000201,1006.0241315999883,1006.0241315999883,1006.0241315999883,1006.0241315999883,,new_sceneOut_22.png,284,4.0,0.8319588000304066,,057,00,2025-03-11_14h13.54.019,Surprise recog test,2023.1.3,59.96444107396887,
284,0,284,0,,,,,,,,,,,,,,,,,,,,,,,,,,,,,,,,,,1010.1074075999786,,1007.8727705000201,1007.8727705000201,1007.8727705000201,1007.8727705000201,,new_sceneOut_5.png,285,4.0,2.2367597999982536,,057,00,2025-03-11_14h13.54.019,Surprise recog test,2023.1.3,59.96444107396887,
285,0,285,0,,,,,,,,,,,,,,,,,,,,,,,,,,,,,,,,,,1012.0880675999797,1013.0977893000236,1011.140085699968,1011.140085699968,1011.140085699968,1011.140085699968,,new_sceneOut_29.png,286,4.0,0.9479841000284068,,057,00,2025-03-11_14h13.54.019,Surprise recog test,2023.1.3,59.96444107396887,
286,0,286,0,,,,,,,,,,,,,,,,,,,,,,,,,,,,,,,,,,1014.1946118000196,,1013.0977893000236,1013.0977893000236,1013.0977893000236,1013.0977893000236,,new_sceneIn_35.png,287,4.0,1.0919041000306606,,057,00,2025-03-11_14h13.54.019,Surprise recog test,2023.1.3,59.96444107396887,
287,0,287,0,,,,,,,,,,,,,,,,,,,,,,,,,,,,,,,,,,1016.8047933999915,1017.8236951999716,1015.2267873000237,1015.2267873000237,1015.2267873000237,1015.2267873000237,,old_sceneIn_9.png,288,4.0,1.5796982999891043,,057,00,2025-03-11_14h13.54.019,Surprise recog test,2023.1.3,59.96444107396887,
288,0,288,0,,,,,,,,,,,,,,,,,,,,,,,,,,,,,,,,,,1018.7842518999823,1019.8030748000019,1017.8236951999716,1017.8236951999716,1017.8236951999716,1017.8236951999716,,old_sceneOut_19.png,289,4.0,0.960887500026729,,057,00,2025-03-11_14h13.54.019,Surprise recog test,2023.1.3,59.96444107396887,
289,0,289,0,,,,,,,,,,,,,,,,,,,,,,,,,,,,,,,,,,1021.7849300000235,,1019.8030748000019,1019.8030748000019,1019.8030748000019,1019.8030748000019,,old_stationery_28.png,290,3.0,1.9779136999859475,,057,00,2025-03-11_14h13.54.019,Surprise recog test,2023.1.3,59.96444107396887,
290,0,290,0,,,,,,,,,,,,,,,,,,,,,,,,,,,,,,,,,,1023.6320820000255,1024.6526782999863,1022.8164877999807,1022.8164877999807,1022.8164877999807,1022.8164877999807,,new_stationery_8.png,291,4.0,0.8150845000054687,,057,00,2025-03-11_14h13.54.019,Surprise recog test,2023.1.3,59.96444107396887,
291,0,291,0,,,,,,,,,,,,,,,,,,,,,,,,,,,,,,,,,,1026.164094000007,1027.188073600002,1024.6526782999863,1024.6526782999863,1024.6526782999863,1024.6526782999863,,new_fruit_43.png,292,4.0,1.512797400006093,,057,00,2025-03-11_14h13.54.019,Surprise recog test,2023.1.3,59.96444107396887,
292,0,292,0,,,,,,,,,,,,,,,,,,,,,,,,,,,,,,,,,,1029.9873536999803,1031.0017177999835,1027.188073600002,1027.188073600002,1027.188073600002,1027.188073600002,,old_fruit_22.png,293,4.0,2.7946494999923743,,057,00,2025-03-11_14h13.54.019,Surprise recog test,2023.1.3,59.96444107396887,
293,0,293,0,,,,,,,,,,,,,,,,,,,,,,,,,,,,,,,,,,1032.2792192000197,1033.2977379999938,1031.0017177999835,1031.0017177999835,1031.0017177999835,1031.0017177999835,,old_stationery_26.png,294,4.0,1.2784042000421323,,057,00,2025-03-11_14h13.54.019,Surprise recog test,2023.1.3,59.96444107396887,
294,0,294,0,,,,,,,,,,,,,,,,,,,,,,,,,,,,,,,,,,1033.9792514999863,1035.005005599989,1033.2977379999938,1033.2977379999938,1033.2977379999938,1033.2977379999938,,new_sceneOut_33.png,295,4.0,0.6762307999888435,,057,00,2025-03-11_14h13.54.019,Surprise recog test,2023.1.3,59.96444107396887,
295,0,295,0,,,,,,,,,,,,,,,,,,,,,,,,,,,,,,,,,,1035.8280021999963,,1035.005005599989,1035.005005599989,1035.005005599989,1035.005005599989,,old_sceneIn_16.png,296,4.0,0.8225712000275962,,057,00,2025-03-11_14h13.54.019,Surprise recog test,2023.1.3,59.96444107396887,
296,0,296,0,,,,,,,,,,,,,,,,,,,,,,,,,,,,,,,,,,1038.2592330999905,1039.2897315999726,1036.8509533000179,1036.8509533000179,1036.8509533000179,1036.8509533000179,,old_stationery_33.png,297,4.0,1.4031500999699347,,057,00,2025-03-11_14h13.54.019,Surprise recog test,2023.1.3,59.96444107396887,
297,0,297,0,,,,,,,,,,,,,,,,,,,,,,,,,,,,,,,,,,1040.712482700008,1041.7337195000146,1039.2897315999726,1039.2897315999726,1039.2897315999726,1039.2897315999726,,old_stationery_49.png,298,4.0,1.4272998999804258,,057,00,2025-03-11_14h13.54.019,Surprise recog test,2023.1.3,59.96444107396887,
298,0,298,0,,,,,,,,,,,,,,,,,,,,,,,,,,,,,,,,,,1042.9862349000177,1044.020694100007,1041.7337195000146,1041.7337195000146,1041.7337195000146,1041.7337195000146,,old_stationery_2.png,299,4.0,1.2538609000039287,,057,00,2025-03-11_14h13.54.019,Surprise recog test,2023.1.3,59.96444107396887,
299,0,299,0,,,,,,,,,,,,,,,,,,,,,,,,,,,,,,,,,,1045.3189305000124,,1044.020694100007,1044.020694100007,1044.020694100007,1044.020694100007,,old_sceneOut_24.png,300,4.0,1.3026470000040717,,057,00,2025-03-11_14h13.54.019,Surprise recog test,2023.1.3,59.96444107396887,
300,0,300,0,,,,,,,,,,,,,,,,,,,,,,,,,,,,,,,,,,1047.5239166999818,1048.5583918999764,1046.349256800022,1046.349256800022,1046.349256800022,1046.349256800022,,new_sceneIn_1.png,301,4.0,1.1756703000282869,,057,00,2025-03-11_14h13.54.019,Surprise recog test,2023.1.3,59.96444107396887,
301,0,301,0,,,,,,,,,,,,,,,,,,,,,,,,,,,,,,,,,,1050.2109818999888,1051.242406299978,1048.5583918999764,1048.5583918999764,1048.5583918999764,1048.5583918999764,,new_fruit_31.png,302,4.0,1.656542900018394,,057,00,2025-03-11_14h13.54.019,Surprise recog test,2023.1.3,59.96444107396887,
302,0,302,0,,,,,,,,,,,,,,,,,,,,,,,,,,,,,,,,,,1052.2389092000085,1053.2673789000255,1051.242406299978,1051.242406299978,1051.242406299978,1051.242406299978,,new_sceneIn_47.png,303,4.0,0.9967915999586694,,057,00,2025-03-11_14h13.54.019,Surprise recog test,2023.1.3,59.96444107396887,
303,0,303,0,,,,,,,,,,,,,,,,,,,,,,,,,,,,,,,,,,1054.5548771999893,1055.5800910000107,1053.2673789000255,1053.2673789000255,1053.2673789000255,1053.2673789000255,,new_sceneIn_33.png,304,4.0,1.2921929000294767,,057,00,2025-03-11_14h13.54.019,Surprise recog test,2023.1.3,59.96444107396887,
304,0,304,0,,,,,,,,,,,,,,,,,,,,,,,,,,,,,,,,,,1057.7503021999728,1058.78247809998,1055.5800910000107,1055.5800910000107,1055.5800910000107,1055.5800910000107,,old_stationery_13.png,305,4.0,2.173426100052893,,057,00,2025-03-11_14h13.54.019,Surprise recog test,2023.1.3,59.96444107396887,
305,0,305,0,,,,,,,,,,,,,,,,,,,,,,,,,,,,,,,,,,1060.815890799975,,1058.78247809998,1058.78247809998,1058.78247809998,1058.78247809998,,old_fruit_12.png,306,3.0,2.034539100015536,,057,00,2025-03-11_14h13.54.019,Surprise recog test,2023.1.3,59.96444107396887,
306,0,306,0,,,,,,,,,,,,,,,,,,,,,,,,,,,,,,,,,,1062.9227811999735,1063.9564743000083,1061.8367891000235,1061.8367891000235,1061.8367891000235,1061.8367891000235,,old_fruit_32.png,307,4.0,1.0808303999947384,,057,00,2025-03-11_14h13.54.019,Surprise recog test,2023.1.3,59.96444107396887,
307,0,307,0,,,,,,,,,,,,,,,,,,,,,,,,,,,,,,,,,,1064.8129063000088,1065.839027500013,1063.9564743000083,1063.9564743000083,1063.9564743000083,1063.9564743000083,,new_sceneIn_9.png,308,4.0,0.8576646000146866,,057,00,2025-03-11_14h13.54.019,Surprise recog test,2023.1.3,59.96444107396887,
308,0,308,0,,,,,,,,,,,,,,,,,,,,,,,,,,,,,,,,,,1066.6931528999703,1067.7096574999741,1065.839027500013,1065.839027500013,1065.839027500013,1065.839027500013,,old_sceneIn_3.png,309,4.0,0.857042099989485,,057,00,2025-03-11_14h13.54.019,Surprise recog test,2023.1.3,59.96444107396887,
309,0,309,0,,,,,,,,,,,,,,,,,,,,,,,,,,,,,,,,,,1068.730312699976,1069.7449425000232,1067.7096574999741,1067.7096574999741,1067.7096574999741,1067.7096574999741,,old_sceneOut_17.png,310,4.0,1.0166947999969125,,057,00,2025-03-11_14h13.54.019,Surprise recog test,2023.1.3,59.96444107396887,
310,0,310,0,,,,,,,,,,,,,,,,,,,,,,,,,,,,,,,,,,1070.5821067999932,1071.615142100025,1069.7449425000232,1069.7449425000232,1069.7449425000232,1069.7449425000232,,old_sceneIn_7.png,311,4.0,0.8362452000146732,,057,00,2025-03-11_14h13.54.019,Surprise recog test,2023.1.3,59.96444107396887,
311,0,311,0,,,,,,,,,,,,,,,,,,,,,,,,,,,,,,,,,,1072.9293152000173,1073.9626125000068,1071.615142100025,1071.615142100025,1071.615142100025,1071.615142100025,,new_fruit_50.png,312,4.0,1.317286699952092,,057,00,2025-03-11_14h13.54.019,Surprise recog test,2023.1.3,59.96444107396887,
312,0,312,0,,,,,,,,,,,,,,,,,,,,,,,,,,,,,,,,,,1076.02563009999,1077.0483329999843,1073.9626125000068,1073.9626125000068,1073.9626125000068,1073.9626125000068,,old_stationery_8.png,313,4.0,2.0626687999465503,,057,00,2025-03-11_14h13.54.019,Surprise recog test,2023.1.3,59.96444107396887,
313,0,313,0,,,,,,,,,,,,,,,,,,,,,,,,,,,,,,,,,,1078.4087876999984,1079.4320160999778,1077.0483329999843,1077.0483329999843,1077.0483329999843,1077.0483329999843,,old_sceneIn_24.png,314,4.0,1.354468800011091,,057,00,2025-03-11_14h13.54.019,Surprise recog test,2023.1.3,59.96444107396887,
314,0,314,0,,,,,,,,,,,,,,,,,,,,,,,,,,,,,,,,,,1080.2207162000122,1081.2494102999917,1079.4320160999778,1079.4320160999778,1079.4320160999778,1079.4320160999778,,old_sceneIn_12.png,315,4.0,0.790579600026831,,057,00,2025-03-11_14h13.54.019,Surprise recog test,2023.1.3,59.96444107396887,
315,0,315,0,,,,,,,,,,,,,,,,,,,,,,,,,,,,,,,,,,1082.4876248000073,1083.5178984000231,1081.2494102999917,1081.2494102999917,1081.2494102999917,1081.2494102999917,,old_stationery_46.png,316,4.0,1.2406666000024416,,057,00,2025-03-11_14h13.54.019,Surprise recog test,2023.1.3,59.96444107396887,
316,0,316,0,,,,,,,,,,,,,,,,,,,,,,,,,,,,,,,,,,1085.1387588999933,1086.1722153999726,1083.5178984000231,1083.5178984000231,1083.5178984000231,1083.5178984000231,,old_fruit_35.png,317,4.0,1.621328600042034,,057,00,2025-03-11_14h13.54.019,Surprise recog test,2023.1.3,59.96444107396887,
317,0,317,0,,,,,,,,,,,,,,,,,,,,,,,,,,,,,,,,,,1087.2985762999742,1088.3225658999872,1086.1722153999726,1086.1722153999726,1086.1722153999726,1086.1722153999726,,old_sceneOut_49.png,318,4.0,1.1282527999719605,,057,00,2025-03-11_14h13.54.019,Surprise recog test,2023.1.3,59.96444107396887,
318,0,318,0,,,,,,,,,,,,,,,,,,,,,,,,,,,,,,,,,,1089.3121917999815,1090.3291548999841,1088.3225658999872,1088.3225658999872,1088.3225658999872,1088.3225658999872,,old_stationery_37.png,319,4.0,0.9926665000384673,,057,00,2025-03-11_14h13.54.019,Surprise recog test,2023.1.3,59.96444107396887,
319,0,319,0,,,,,,,,,,,,,,,,,,,,,,,,,,,,,,,,,,1092.3247923000017,,1090.3291548999841,1090.3291548999841,1090.3291548999841,1090.3291548999841,,new_stationery_24.png,320,4.0,1.9902627999545075,,057,00,2025-03-11_14h13.54.019,Surprise recog test,2023.1.3,59.96444107396887,
320,0,320,0,,,,,,,,,,,,,,,,,,,,,,,,,,,,,,,,,,1094.908299600007,1095.9310869000037,1093.3600040000165,1093.3600040000165,1093.3600040000165,1093.3600040000165,,old_fruit_30.png,321,4.0,1.5488397000008263,,057,00,2025-03-11_14h13.54.019,Surprise recog test,2023.1.3,59.96444107396887,
321,0,321,0,,,,,,,,,,,,,,,,,,,,,,,,,,,,,,,,,,1098.8780804999988,1099.899615500006,1095.9310869000037,1095.9310869000037,1095.9310869000037,1095.9310869000037,,new_fruit_22.png,322,3.0,2.9442275000037625,,057,00,2025-03-11_14h13.54.019,Surprise recog test,2023.1.3,59.96444107396887,
322,0,322,0,,,,,,,,,,,,,,,,,,,,,,,,,,,,,,,,,,1100.6013447999721,1101.6167988000088,1099.899615500006,1099.899615500006,1099.899615500006,1099.899615500006,,old_sceneIn_4.png,323,4.0,0.7047032999689691,,057,00,2025-03-11_14h13.54.019,Surprise recog test,2023.1.3,59.96444107396887,
323,0,323,0,,,,,,,,,,,,,,,,,,,,,,,,,,,,,,,,,,1102.7670658999705,,1101.6167988000088,1101.6167988000088,1101.6167988000088,1101.6167988000088,,old_stationery_10.png,324,4.0,1.14420079998672,,057,00,2025-03-11_14h13.54.019,Surprise recog test,2023.1.3,59.96444107396887,
324,0,324,0,,,,,,,,,,,,,,,,,,,,,,,,,,,,,,,,,,1104.5995187999797,1105.6191001000116,1103.8019770000246,1103.8019770000246,1103.8019770000246,1103.8019770000246,,old_sceneOut_5.png,325,4.0,0.7972440000157803,,057,00,2025-03-11_14h13.54.019,Surprise recog test,2023.1.3,59.96444107396887,
325,0,325,0,,,,,,,,,,,,,,,,,,,,,,,,,,,,,,,,,,1106.9645629000152,1107.9828895999817,1105.6191001000116,1105.6191001000116,1105.6191001000116,1105.6191001000116,,old_sceneOut_33.png,326,4.0,1.344277000054717,,057,00,2025-03-11_14h13.54.019,Surprise recog test,2023.1.3,59.96444107396887,
326,0,326,0,,,,,,,,,,,,,,,,,,,,,,,,,,,,,,,,,,1109.0439374999842,1110.0756539999857,1107.9828895999817,1107.9828895999817,1107.9828895999817,1107.9828895999817,,old_sceneIn_35.png,327,4.0,1.0632611000328325,,057,00,2025-03-11_14h13.54.019,Surprise recog test,2023.1.3,59.96444107396887,
327,0,327,0,,,,,,,,,,,,,,,,,,,,,,,,,,,,,,,,,,1111.071477600024,1112.0802142000175,1110.0756539999857,1110.0756539999857,1110.0756539999857,1110.0756539999857,,new_stationery_9.png,328,4.0,0.9921666000154801,,057,00,2025-03-11_14h13.54.019,Surprise recog test,2023.1.3,59.96444107396887,
328,0,328,0,,,,,,,,,,,,,,,,,,,,,,,,,,,,,,,,,,1113.599275799992,1114.6297081999946,1112.0802142000175,1112.0802142000175,1112.0802142000175,1112.0802142000175,,new_sceneOut_26.png,329,4.0,1.5109496000222862,,057,00,2025-03-11_14h13.54.019,Surprise recog test,2023.1.3,59.96444107396887,
329,0,329,0,,,,,,,,,,,,,,,,,,,,,,,,,,,,,,,,,,1115.6692712000222,1116.701528400008,1114.6297081999946,1114.6297081999946,1114.6297081999946,1114.6297081999946,,new_stationery_5.png,330,4.0,1.0422883999999613,,057,00,2025-03-11_14h13.54.019,Surprise recog test,2023.1.3,59.96444107396887,
330,0,330,0,,,,,,,,,,,,,,,,,,,,,,,,,,,,,,,,,,1118.09497440001,1119.1139725000248,1116.701528400008,1116.701528400008,1116.701528400008,1116.701528400008,,new_sceneOut_1.png,331,4.0,1.3969524000422098,,057,00,2025-03-11_14h13.54.019,Surprise recog test,2023.1.3,59.96444107396887,
331,0,331,0,,,,,,,,,,,,,,,,,,,,,,,,,,,,,,,,,,1120.6761043000151,1121.7024632000248,1119.1139725000248,1119.1139725000248,1119.1139725000248,1119.1139725000248,,old_fruit_24.png,332,4.0,1.5622305999859236,,057,00,2025-03-11_14h13.54.019,Surprise recog test,2023.1.3,59.96444107396887,
332,0,332,0,,,,,,,,,,,,,,,,,,,,,,,,,,,,,,,,,,1123.0552977999905,1124.084328499972,1121.7024632000248,1121.7024632000248,1121.7024632000248,1121.7024632000248,,old_sceneIn_45.png,333,4.0,1.3548423000029288,,057,00,2025-03-11_14h13.54.019,Surprise recog test,2023.1.3,59.96444107396887,
333,0,333,0,,,,,,,,,,,,,,,,,,,,,,,,,,,,,,,,,,1126.0266375999781,1127.0547677999712,1124.084328499972,1124.084328499972,1124.084328499972,1124.084328499972,,new_stationery_15.png,334,4.0,1.9441797999897972,,057,00,2025-03-11_14h13.54.019,Surprise recog test,2023.1.3,59.96444107396887,
334,0,334,0,,,,,,,,,,,,,,,,,,,,,,,,,,,,,,,,,,1128.0780876000063,1129.1051681999816,1127.0547677999712,1127.0547677999712,1127.0547677999712,1127.0547677999712,,old_sceneIn_38.png,335,4.0,1.02475639997283,,057,00,2025-03-11_14h13.54.019,Surprise recog test,2023.1.3,59.96444107396887,
335,0,335,0,,,,,,,,,,,,,,,,,,,,,,,,,,,,,,,,,,1130.3605606000056,1131.3947024000227,1129.1051681999816,1129.1051681999816,1129.1051681999816,1129.1051681999816,,new_sceneOut_8.png,336,4.0,1.257531300012488,,057,00,2025-03-11_14h13.54.019,Surprise recog test,2023.1.3,59.96444107396887,
336,0,336,0,,,,,,,,,,,,,,,,,,,,,,,,,,,,,,,,,,1132.3258598999819,,1131.3947024000227,1131.3947024000227,1131.3947024000227,1131.3947024000227,,new_stationery_48.png,337,4.0,0.936034899961669,,057,00,2025-03-11_14h13.54.019,Surprise recog test,2023.1.3,59.96444107396887,
337,0,337,0,,,,,,,,,,,,,,,,,,,,,,,,,,,,,,,,,,1134.350299999991,1135.3659795999993,1133.3616105999681,1133.3616105999681,1133.3616105999681,1133.3616105999681,,old_sceneIn_30.png,338,4.0,0.9895801999955438,,057,00,2025-03-11_14h13.54.019,Surprise recog test,2023.1.3,59.96444107396887,
338,0,338,0,,,,,,,,,,,,,,,,,,,,,,,,,,,,,,,,,,1136.4382092999876,1137.4546271999716,1135.3659795999993,1135.3659795999993,1135.3659795999993,1135.3659795999993,,old_sceneOut_22.png,339,4.0,1.0659477000008337,,057,00,2025-03-11_14h13.54.019,Surprise recog test,2023.1.3,59.96444107396887,
339,0,339,0,,,,,,,,,,,,,,,,,,,,,,,,,,,,,,,,,,1138.4964787000208,,1137.4546271999716,1137.4546271999716,1137.4546271999716,1137.4546271999716,,new_stationery_32.png,340,4.0,1.0422864999854937,,057,00,2025-03-11_14h13.54.019,Surprise recog test,2023.1.3,59.96444107396887,
340,0,340,0,,,,,,,,,,,,,,,,,,,,,,,,,,,,,,,,,,1140.7128074999782,1141.732886200014,1139.5182764999918,1139.5182764999918,1139.5182764999918,1139.5182764999918,,new_sceneOut_36.png,341,4.0,1.1878799999831244,,057,00,2025-03-11_14h13.54.019,Surprise recog test,2023.1.3,59.96444107396887,
341,0,341,0,,,,,,,,,,,,,,,,,,,,,,,,,,,,,,,,,,1142.7951131999725,1143.8058436000138,1141.732886200014,1141.732886200014,1141.732886200014,1141.732886200014,,old_sceneIn_11.png,342,4.0,1.064366800012067,,057,00,2025-03-11_14h13.54.019,Surprise recog test,2023.1.3,59.96444107396887,
342,0,342,0,,,,,,,,,,,,,,,,,,,,,,,,,,,,,,,,,,1145.4210709999898,,1143.8058436000138,1143.8058436000138,1143.8058436000138,1143.8058436000138,,old_fruit_15.png,343,2.0,1.6108133000088856,,057,00,2025-03-11_14h13.54.019,Surprise recog test,2023.1.3,59.96444107396887,
343,0,343,0,,,,,,,,,,,,,,,,,,,,,,,,,,,,,,,,,,1147.9176406000042,1148.9270765000256,1146.4596322000143,1146.4596322000143,1146.4596322000143,1146.4596322000143,,new_sceneOut_21.png,344,4.0,1.4631355999736115,,057,00,2025-03-11_14h13.54.019,Surprise recog test,2023.1.3,59.96444107396887,
344,0,344,0,,,,,,,,,,,,,,,,,,,,,,,,,,,,,,,,,,1150.8545863999752,1151.8772897999734,1148.9270765000256,1148.9270765000256,1148.9270765000256,1148.9270765000256,,old_stationery_22.png,345,4.0,1.9204490999691188,,057,00,2025-03-11_14h13.54.019,Surprise recog test,2023.1.3,59.96444107396887,
345,0,345,0,,,,,,,,,,,,,,,,,,,,,,,,,,,,,,,,,,1153.772363999975,1154.7928981999867,1151.8772897999734,1151.8772897999734,1151.8772897999734,1151.8772897999734,,new_fruit_13.png,346,4.0,1.8973216000013053,,057,00,2025-03-11_14h13.54.019,Surprise recog test,2023.1.3,59.96444107396887,
346,0,346,0,,,,,,,,,,,,,,,,,,,,,,,,,,,,,,,,,,1155.7948982000235,,1154.7928981999867,1154.7928981999867,1154.7928981999867,1154.7928981999867,,old_sceneOut_2.png,347,4.0,1.0037639000220224,,057,00,2025-03-11_14h13.54.019,Surprise recog test,2023.1.3,59.96444107396887,
347,0,347,0,,,,,,,,,,,,,,,,,,,,,,,,,,,,,,,,,,1157.910280000011,1158.931919900002,1156.816463599971,1156.816463599971,1156.816463599971,1156.816463599971,,old_sceneIn_34.png,348,4.0,1.0871423999778926,,057,00,2025-03-11_14h13.54.019,Surprise recog test,2023.1.3,59.96444107396887,
348,0,348,0,,,,,,,,,,,,,,,,,,,,,,,,,,,,,,,,,,1160.4428166999714,1161.4658884999808,1158.931919900002,1158.931919900002,1158.931919900002,1158.931919900002,,old_sceneOut_50.png,349,4.0,1.5137864000280388,,057,00,2025-03-11_14h13.54.019,Surprise recog test,2023.1.3,59.96444107396887,
349,0,349,0,,,,,,,,,,,,,,,,,,,,,,,,,,,,,,,,,,1165.0960413999856,1166.1246721000061,1161.4658884999808,1161.4658884999808,1161.4658884999808,1161.4658884999808,,old_stationery_42.png,350,3.0,3.6324345999746583,,057,00,2025-03-11_14h13.54.019,Surprise recog test,2023.1.3,59.96444107396887,
350,0,350,0,,,,,,,,,,,,,,,,,,,,,,,,,,,,,,,,,,1168.0415847999975,1169.0741618999746,1166.1246721000061,1166.1246721000061,1166.1246721000061,1166.1246721000061,,old_sceneOut_34.png,351,4.0,1.920832799980417,,057,00,2025-03-11_14h13.54.019,Surprise recog test,2023.1.3,59.96444107396887,
351,0,351,0,,,,,,,,,,,,,,,,,,,,,,,,,,,,,,,,,,1169.958937700023,1170.9947761999792,1169.0741618999746,1169.0741618999746,1169.0741618999746,1169.0741618999746,,old_sceneOut_37.png,352,4.0,0.8874146000016481,,057,00,2025-03-11_14h13.54.019,Surprise recog test,2023.1.3,59.96444107396887,
352,0,352,0,,,,,,,,,,,,,,,,,,,,,,,,,,,,,,,,,,1172.063302399998,1173.092606500024,1170.9947761999792,1170.9947761999792,1170.9947761999792,1170.9947761999792,,new_sceneIn_48.png,353,4.0,1.071384400012903,,057,00,2025-03-11_14h13.54.019,Surprise recog test,2023.1.3,59.96444107396887,
353,0,353,0,,,,,,,,,,,,,,,,,,,,,,,,,,,,,,,,,,1174.0604709999752,,1173.092606500024,1173.092606500024,1173.092606500024,1173.092606500024,,new_sceneIn_12.png,354,4.0,0.9705389000009745,,057,00,2025-03-11_14h13.54.019,Surprise recog test,2023.1.3,59.96444107396887,
