trial_loop.thisRepN,trial_loop.thisTrialN,trial_loop.thisN,trial_loop.thisIndex,VAS_slider.started,VAS_text.started,VAS_notstressed_text.started,VAS_stressed_text.started,continue_input.started,continue_text.started,label0.started,label10.started,label20.started,label30.started,label40.started,label50.started,label60.started,label70.started,label80.started,label90.started,label100.started,VAS_slider.response,VAS_slider.rt,VAS_slider.history,Answer_VAS,continue_input.keys,instruction_text.started,continue_text_2.started,continue_input_2.started,continue_input_2.keys,continue_input_2.rt,continue_input_2.duration,example_text.started,example_slider_2.started,example_image.started,example_slider_2.response,example_slider_2.rt,fixcross.started,fixcross.stopped,front_square.started,stim_images.started,trial_inst_images.started,slider_images.started,slider_images.stopped,thisImg,trial_count,slider_images.response,slider_images.rt,outro.started,outro.stopped,participant,condition,date,expName,psychopyVersion,frameRate,
,,,,8588.003553700008,8588.003553700008,8588.003553700008,8588.003553700008,8588.003553700008,8588.003553700008,8588.003553700008,8588.003553700008,8588.003553700008,8588.003553700008,8588.003553700008,8588.003553700008,8588.003553700008,8588.003553700008,8588.003553700008,8588.003553700008,8588.003553700008,0.9944444444444445,23.045306300002267,"[(0.9944444444444445, 23.045306300002267)]",0.9944444444444445,None,,,,,,,,,,,,,,,,,,,,,,,,,058,11,2025-03-07_15h58.00.720,Surprise recog test,2023.1.3,60.05392843113156,
,,,,,,,,,,,,,,,,,,,,,,,,,,8611.084939700013,8611.084939700013,8611.084939700013,space,20.817881999988458,None,,,,,,,,,,,,,,,,,,,058,11,2025-03-07_15h58.00.720,Surprise recog test,2023.1.3,60.05392843113156,
0,0,0,0,,,,,,,,,,,,,,,,,,,,,,,,,,,,,8632.03636150001,8632.03636150001,8632.03636150001,5.0,4.545705099997576,8642.520547200009,8637.534101200014,8637.534101200014,8637.534101200014,8637.534101200014,8637.534101200014,8642.50015620001,old_sceneIn_20.png,1,None,None,,,058,11,2025-03-07_15h58.00.720,Surprise recog test,2023.1.3,60.05392843113156,
1,0,1,0,,,,,,,,,,,,,,,,,,,,,,,,,,,,,,,,,,8645.136006,8646.157462100004,8643.542639900013,8643.542639900013,8643.542639900013,8643.542639900013,,new_sceneOut_37.png,2,5.0,1.5960187000018777,,,058,11,2025-03-07_15h58.00.720,Surprise recog test,2023.1.3,60.05392843113156,
2,0,2,0,,,,,,,,,,,,,,,,,,,,,,,,,,,,,,,,,,8648.871023900007,8649.896564500013,8646.157462100004,8646.157462100004,8646.157462100004,8646.157462100004,,old_fruit_25.png,3,3.0,2.716852600002312,,,058,11,2025-03-07_15h58.00.720,Surprise recog test,2023.1.3,60.05392843113156,
3,0,3,0,,,,,,,,,,,,,,,,,,,,,,,,,,,,,,,,,,8651.889172800002,8652.915348800001,8649.896564500013,8649.896564500013,8649.896564500013,8649.896564500013,,new_fruit_37.png,4,4.0,1.9943849999981467,,,058,11,2025-03-07_15h58.00.720,Surprise recog test,2023.1.3,60.05392843113156,
4,0,4,0,,,,,,,,,,,,,,,,,,,,,,,,,,,,,,,,,,8655.701147600004,,8652.915348800001,8652.915348800001,8652.915348800001,8652.915348800001,,old_sceneOut_40.png,5,2.0,2.7856609000009485,,,058,11,2025-03-07_15h58.00.720,Surprise recog test,2023.1.3,60.05392843113156,
5,0,5,0,,,,,,,,,,,,,,,,,,,,,,,,,,,,,,,,,,8658.790184000012,8659.823087900004,8656.73057330001,8656.73057330001,8656.73057330001,8656.73057330001,,old_sceneIn_46.png,6,4.0,2.058772999997018,,,058,11,2025-03-07_15h58.00.720,Surprise recog test,2023.1.3,60.05392843113156,
6,0,6,0,,,,,,,,,,,,,,,,,,,,,,,,,,,,,,,,,,8661.703177000003,8662.7116924,8659.823087900004,8659.823087900004,8659.823087900004,8659.823087900004,,new_stationery_38.png,7,4.0,1.8835384999983944,,,058,11,2025-03-07_15h58.00.720,Surprise recog test,2023.1.3,60.05392843113156,
7,0,7,0,,,,,,,,,,,,,,,,,,,,,,,,,,,,,,,,,,8664.738153800005,8665.749129200005,8662.7116924,8662.7116924,8662.7116924,8662.7116924,,old_stationery_13.png,8,2.0,2.0224329000047874,,,058,11,2025-03-07_15h58.00.720,Surprise recog test,2023.1.3,60.05392843113156,
8,0,8,0,,,,,,,,,,,,,,,,,,,,,,,,,,,,,,,,,,8667.143339300004,,8665.749129200005,8665.749129200005,8665.749129200005,8665.749129200005,,old_stationery_4.png,9,2.0,1.3915526000055252,,,058,11,2025-03-07_15h58.00.720,Surprise recog test,2023.1.3,60.05392843113156,
9,0,9,0,,,,,,,,,,,,,,,,,,,,,,,,,,,,,,,,,,8670.310265100008,8671.331462200003,8668.165884400005,8668.165884400005,8668.165884400005,8668.165884400005,,new_sceneOut_32.png,10,4.0,2.1379557000036584,,,058,11,2025-03-07_15h58.00.720,Surprise recog test,2023.1.3,60.05392843113156,
10,0,10,0,,,,,,,,,,,,,,,,,,,,,,,,,,,,,,,,,,8674.104694900001,8675.12152890001,8671.331462200003,8671.331462200003,8671.331462200003,8671.331462200003,,new_fruit_39.png,11,3.0,2.7749783000035677,,,058,11,2025-03-07_15h58.00.720,Surprise recog test,2023.1.3,60.05392843113156,
11,0,11,0,,,,,,,,,,,,,,,,,,,,,,,,,,,,,,,,,,8676.799347900014,8677.818888600013,8675.12152890001,8675.12152890001,8675.12152890001,8675.12152890001,,old_sceneIn_38.png,12,4.0,1.6670482000045013,,,058,11,2025-03-07_15h58.00.720,Surprise recog test,2023.1.3,60.05392843113156,
12,0,12,0,,,,,,,,,,,,,,,,,,,,,,,,,,,,,,,,,,8679.25191440001,8680.255678100002,8677.818888600013,8677.818888600013,8677.818888600013,8677.818888600013,,old_sceneIn_47.png,13,4.0,1.4350051999936113,,,058,11,2025-03-07_15h58.00.720,Surprise recog test,2023.1.3,60.05392843113156,
13,0,13,0,,,,,,,,,,,,,,,,,,,,,,,,,,,,,,,,,,8681.472528600003,,8680.255678100002,8680.255678100002,8680.255678100002,8680.255678100002,,new_stationery_32.png,14,4.0,1.2132563999912236,,,058,11,2025-03-07_15h58.00.720,Surprise recog test,2023.1.3,60.05392843113156,
14,0,14,0,,,,,,,,,,,,,,,,,,,,,,,,,,,,,,,,,,8684.505596500007,8685.514104700007,8682.509082500008,8682.509082500008,8682.509082500008,8682.509082500008,,new_fruit_18.png,15,2.0,1.9985404000035487,,,058,11,2025-03-07_15h58.00.720,Surprise recog test,2023.1.3,60.05392843113156,
15,0,15,0,,,,,,,,,,,,,,,,,,,,,,,,,,,,,,,,,,8688.249354500003,8689.266619600006,8685.514104700007,8685.514104700007,8685.514104700007,8685.514104700007,,new_sceneIn_35.png,16,4.0,2.7300551000080304,,,058,11,2025-03-07_15h58.00.720,Surprise recog test,2023.1.3,60.05392843113156,
16,0,16,0,,,,,,,,,,,,,,,,,,,,,,,,,,,,,,,,,,8690.911920500002,8691.928230500009,8689.266619600006,8689.266619600006,8689.266619600006,8689.266619600006,,new_sceneOut_21.png,17,4.0,1.6440941000037128,,,058,11,2025-03-07_15h58.00.720,Surprise recog test,2023.1.3,60.05392843113156,
17,0,17,0,,,,,,,,,,,,,,,,,,,,,,,,,,,,,,,,,,8693.9133918,8694.921890100013,8691.928230500009,8691.928230500009,8691.928230500009,8691.928230500009,,new_stationery_33.png,18,2.0,1.9850490000098944,,,058,11,2025-03-07_15h58.00.720,Surprise recog test,2023.1.3,60.05392843113156,
18,0,18,0,,,,,,,,,,,,,,,,,,,,,,,,,,,,,,,,,,8696.60551410001,8697.632102100004,8694.921890100013,8694.921890100013,8694.921890100013,8694.921890100013,,old_sceneOut_20.png,19,4.0,1.679679600012605,,,058,11,2025-03-07_15h58.00.720,Surprise recog test,2023.1.3,60.05392843113156,
19,0,19,0,,,,,,,,,,,,,,,,,,,,,,,,,,,,,,,,,,8700.602012600008,8701.628258000012,8697.632102100004,8697.632102100004,8697.632102100004,8697.632102100004,,new_stationery_28.png,20,3.0,2.970819100009976,,,058,11,2025-03-07_15h58.00.720,Surprise recog test,2023.1.3,60.05392843113156,
20,0,20,0,,,,,,,,,,,,,,,,,,,,,,,,,,,,,,,,,,8703.044379400002,8704.065312300008,8701.628258000012,8701.628258000012,8701.628258000012,8701.628258000012,,old_sceneIn_11.png,21,4.0,1.4212463000003481,,,058,11,2025-03-07_15h58.00.720,Surprise recog test,2023.1.3,60.05392843113156,
21,0,21,0,,,,,,,,,,,,,,,,,,,,,,,,,,,,,,,,,,8705.625241800008,,8704.065312300008,8704.065312300008,8704.065312300008,8704.065312300008,,old_sceneOut_12.png,22,4.0,1.5523391000024276,,,058,11,2025-03-07_15h58.00.720,Surprise recog test,2023.1.3,60.05392843113156,
22,0,22,0,,,,,,,,,,,,,,,,,,,,,,,,,,,,,,,,,,8708.474382800006,8709.496616100005,8706.658916400003,8706.658916400003,8706.658916400003,8706.658916400003,,new_fruit_40.png,23,3.0,1.816848900009063,,,058,11,2025-03-07_15h58.00.720,Surprise recog test,2023.1.3,60.05392843113156,
23,0,23,0,,,,,,,,,,,,,,,,,,,,,,,,,,,,,,,,,,8710.923937900006,8711.949003500005,8709.496616100005,8709.496616100005,8709.496616100005,8709.496616100005,,new_stationery_27.png,24,4.0,1.428739199996926,,,058,11,2025-03-07_15h58.00.720,Surprise recog test,2023.1.3,60.05392843113156,
24,0,24,0,,,,,,,,,,,,,,,,,,,,,,,,,,,,,,,,,,8714.043739100001,8715.069213900002,8711.949003500005,8711.949003500005,8711.949003500005,8711.949003500005,,old_sceneOut_41.png,25,3.0,2.096941199997673,,,058,11,2025-03-07_15h58.00.720,Surprise recog test,2023.1.3,60.05392843113156,
25,0,25,0,,,,,,,,,,,,,,,,,,,,,,,,,,,,,,,,,,8716.908508100008,8717.935983700008,8715.069213900002,8715.069213900002,8715.069213900002,8715.069213900002,,old_sceneIn_9.png,26,3.0,1.842396699998062,,,058,11,2025-03-07_15h58.00.720,Surprise recog test,2023.1.3,60.05392843113156,
26,0,26,0,,,,,,,,,,,,,,,,,,,,,,,,,,,,,,,,,,8719.601529700012,8720.6219787,8717.935983700008,8717.935983700008,8717.935983700008,8717.935983700008,,old_sceneIn_42.png,27,4.0,1.660944200004451,,,058,11,2025-03-07_15h58.00.720,Surprise recog test,2023.1.3,60.05392843113156,
27,0,27,0,,,,,,,,,,,,,,,,,,,,,,,,,,,,,,,,,,8722.188913300008,8723.206393300003,8720.6219787,8720.6219787,8720.6219787,8720.6219787,,old_stationery_37.png,28,4.0,1.5668742000125349,,,058,11,2025-03-07_15h58.00.720,Surprise recog test,2023.1.3,60.05392843113156,
28,0,28,0,,,,,,,,,,,,,,,,,,,,,,,,,,,,,,,,,,8725.456332400005,8726.47605930001,8723.206393300003,8723.206393300003,8723.206393300003,8723.206393300003,,new_stationery_43.png,29,2.0,2.2479464000061853,,,058,11,2025-03-07_15h58.00.720,Surprise recog test,2023.1.3,60.05392843113156,
29,0,29,0,,,,,,,,,,,,,,,,,,,,,,,,,,,,,,,,,,8727.395300400007,,8726.47605930001,8726.47605930001,8726.47605930001,8726.47605930001,,old_stationery_29.png,30,2.0,0.9223290999943856,,,058,11,2025-03-07_15h58.00.720,Surprise recog test,2023.1.3,60.05392843113156,
30,0,30,0,,,,,,,,,,,,,,,,,,,,,,,,,,,,,,,,,,8729.272136300002,8730.297402300013,8728.429052700012,8728.429052700012,8728.429052700012,8728.429052700012,,old_stationery_50.png,31,2.0,0.8450222999963444,,,058,11,2025-03-07_15h58.00.720,Surprise recog test,2023.1.3,60.05392843113156,
31,0,31,0,,,,,,,,,,,,,,,,,,,,,,,,,,,,,,,,,,8731.1836645,8732.213793100003,8730.297402300013,8730.297402300013,8730.297402300013,8730.297402300013,,old_fruit_8.png,32,2.0,0.8887802999961423,,,058,11,2025-03-07_15h58.00.720,Surprise recog test,2023.1.3,60.05392843113156,
32,0,32,0,,,,,,,,,,,,,,,,,,,,,,,,,,,,,,,,,,8734.275520800002,8735.300139800005,8732.213793100003,8732.213793100003,8732.213793100003,8732.213793100003,,old_sceneOut_6.png,33,3.0,2.0632253999938257,,,058,11,2025-03-07_15h58.00.720,Surprise recog test,2023.1.3,60.05392843113156,
33,0,33,0,,,,,,,,,,,,,,,,,,,,,,,,,,,,,,,,,,8737.023046600007,8738.054502000014,8735.300139800005,8735.300139800005,8735.300139800005,8735.300139800005,,new_fruit_27.png,34,3.0,1.725908199994592,,,058,11,2025-03-07_15h58.00.720,Surprise recog test,2023.1.3,60.05392843113156,
34,0,34,0,,,,,,,,,,,,,,,,,,,,,,,,,,,,,,,,,,8740.764018600006,8741.786828100012,8738.054502000014,8738.054502000014,8738.054502000014,8738.054502000014,,new_sceneOut_33.png,35,4.0,2.7126512999966508,,,058,11,2025-03-07_15h58.00.720,Surprise recog test,2023.1.3,60.05392843113156,
35,0,35,0,,,,,,,,,,,,,,,,,,,,,,,,,,,,,,,,,,8743.217041800002,8744.24191350001,8741.786828100012,8741.786828100012,8741.786828100012,8741.786828100012,,old_fruit_3.png,36,3.0,1.4294313999998849,,,058,11,2025-03-07_15h58.00.720,Surprise recog test,2023.1.3,60.05392843113156,
36,0,36,0,,,,,,,,,,,,,,,,,,,,,,,,,,,,,,,,,,8746.341419000004,8747.348837700003,8744.24191350001,8744.24191350001,8744.24191350001,8744.24191350001,,new_fruit_41.png,37,3.0,2.1014443000021856,,,058,11,2025-03-07_15h58.00.720,Surprise recog test,2023.1.3,60.05392843113156,
37,0,37,0,,,,,,,,,,,,,,,,,,,,,,,,,,,,,,,,,,8749.113222500004,,8747.348837700003,8747.348837700003,8747.348837700003,8747.348837700003,,old_stationery_25.png,38,2.0,1.7594198000006145,,,058,11,2025-03-07_15h58.00.720,Surprise recog test,2023.1.3,60.05392843113156,
38,0,38,0,,,,,,,,,,,,,,,,,,,,,,,,,,,,,,,,,,8752.418278100013,8753.446702200003,8750.133271300001,8750.133271300001,8750.133271300001,8750.133271300001,,new_sceneIn_7.png,39,4.0,2.2836791000008816,,,058,11,2025-03-07_15h58.00.720,Surprise recog test,2023.1.3,60.05392843113156,
39,0,39,0,,,,,,,,,,,,,,,,,,,,,,,,,,,,,,,,,,8754.552932800012,8755.584529000014,8753.446702200003,8753.446702200003,8753.446702200003,8753.446702200003,,old_sceneIn_25.png,40,4.0,1.107035500011989,,,058,11,2025-03-07_15h58.00.720,Surprise recog test,2023.1.3,60.05392843113156,
40,0,40,0,,,,,,,,,,,,,,,,,,,,,,,,,,,,,,,,,,8757.5494416,8758.572846300012,8755.584529000014,8755.584529000014,8755.584529000014,8755.584529000014,,old_stationery_23.png,41,1.0,1.966099800003576,,,058,11,2025-03-07_15h58.00.720,Surprise recog test,2023.1.3,60.05392843113156,
41,0,41,0,,,,,,,,,,,,,,,,,,,,,,,,,,,,,,,,,,8761.002570700002,8762.009475100014,8758.572846300012,8758.572846300012,8758.572846300012,8758.572846300012,,old_sceneOut_29.png,42,4.0,2.4319160000013653,,,058,11,2025-03-07_15h58.00.720,Surprise recog test,2023.1.3,60.05392843113156,
42,0,42,0,,,,,,,,,,,,,,,,,,,,,,,,,,,,,,,,,,8763.95159160001,8764.97778490001,8762.009475100014,8762.009475100014,8762.009475100014,8762.009475100014,,old_sceneOut_39.png,43,3.0,1.935600999990129,,,058,11,2025-03-07_15h58.00.720,Surprise recog test,2023.1.3,60.05392843113156,
43,0,43,0,,,,,,,,,,,,,,,,,,,,,,,,,,,,,,,,,,8766.673873800013,8767.680401000005,8764.97778490001,8764.97778490001,8764.97778490001,8764.97778490001,,new_sceneOut_1.png,44,3.0,1.6926131000072928,,,058,11,2025-03-07_15h58.00.720,Surprise recog test,2023.1.3,60.05392843113156,
44,0,44,0,,,,,,,,,,,,,,,,,,,,,,,,,,,,,,,,,,8769.210215000014,8770.230420900014,8767.680401000005,8767.680401000005,8767.680401000005,8767.680401000005,,new_sceneIn_42.png,45,4.0,1.5255143000104,,,058,11,2025-03-07_15h58.00.720,Surprise recog test,2023.1.3,60.05392843113156,
45,0,45,0,,,,,,,,,,,,,,,,,,,,,,,,,,,,,,,,,,8773.353919400004,8774.384653900008,8770.230420900014,8770.230420900014,8770.230420900014,8770.230420900014,,old_fruit_29.png,46,2.0,3.1257516000041505,,,058,11,2025-03-07_15h58.00.720,Surprise recog test,2023.1.3,60.05392843113156,
46,0,46,0,,,,,,,,,,,,,,,,,,,,,,,,,,,,,,,,,,8775.77344270001,8776.802371500002,8774.384653900008,8774.384653900008,8774.384653900008,8774.384653900008,,old_fruit_41.png,47,3.0,1.391675299993949,,,058,11,2025-03-07_15h58.00.720,Surprise recog test,2023.1.3,60.05392843113156,
47,0,47,0,,,,,,,,,,,,,,,,,,,,,,,,,,,,,,,,,,8778.233180200012,8779.241864700001,8776.802371500002,8776.802371500002,8776.802371500002,8776.802371500002,,new_sceneIn_48.png,48,4.0,1.4303037999925436,,,058,11,2025-03-07_15h58.00.720,Surprise recog test,2023.1.3,60.05392843113156,
48,0,48,0,,,,,,,,,,,,,,,,,,,,,,,,,,,,,,,,,,8781.9359884,8782.942304200013,8779.241864700001,8779.241864700001,8779.241864700001,8779.241864700001,,old_fruit_9.png,49,3.0,2.6872444999899017,,,058,11,2025-03-07_15h58.00.720,Surprise recog test,2023.1.3,60.05392843113156,
49,0,49,0,,,,,,,,,,,,,,,,,,,,,,,,,,,,,,,,,,8784.497753500007,8785.510092300014,8782.942304200013,8782.942304200013,8782.942304200013,8782.942304200013,,new_sceneIn_38.png,50,4.0,1.5526624000049196,,,058,11,2025-03-07_15h58.00.720,Surprise recog test,2023.1.3,60.05392843113156,
50,0,50,0,,,,,,,,,,,,,,,,,,,,,,,,,,,,,,,,,,8786.850355500006,8787.877626400004,8785.510092300014,8785.510092300014,8785.510092300014,8785.510092300014,,new_fruit_46.png,51,4.0,1.3367913000111002,,,058,11,2025-03-07_15h58.00.720,Surprise recog test,2023.1.3,60.05392843113156,
51,0,51,0,,,,,,,,,,,,,,,,,,,,,,,,,,,,,,,,,,8789.580525700003,,8787.877626400004,8787.877626400004,8787.877626400004,8787.877626400004,,old_fruit_39.png,52,3.0,1.702618800001801,,,058,11,2025-03-07_15h58.00.720,Surprise recog test,2023.1.3,60.05392843113156,
52,0,52,0,,,,,,,,,,,,,,,,,,,,,,,,,,,,,,,,,,8792.0847469,8793.1040661,8790.610024000009,8790.610024000009,8790.610024000009,8790.610024000009,,old_stationery_41.png,53,1.0,1.4772269999957643,,,058,11,2025-03-07_15h58.00.720,Surprise recog test,2023.1.3,60.05392843113156,
53,0,53,0,,,,,,,,,,,,,,,,,,,,,,,,,,,,,,,,,,8795.349515700014,8796.369274900004,8793.1040661,8793.1040661,8793.1040661,8793.1040661,,old_fruit_12.png,54,3.0,2.2417098000005353,,,058,11,2025-03-07_15h58.00.720,Surprise recog test,2023.1.3,60.05392843113156,
54,0,54,0,,,,,,,,,,,,,,,,,,,,,,,,,,,,,,,,,,8797.674811200006,8798.690369400007,8796.369274900004,8796.369274900004,8796.369274900004,8796.369274900004,,new_sceneOut_36.png,55,4.0,1.3068034000025364,,,058,11,2025-03-07_15h58.00.720,Surprise recog test,2023.1.3,60.05392843113156,
55,0,55,0,,,,,,,,,,,,,,,,,,,,,,,,,,,,,,,,,,8800.011352700007,8801.037779700011,8798.690369400007,8798.690369400007,8798.690369400007,8798.690369400007,,old_stationery_49.png,56,1.0,1.3142730000108713,,,058,11,2025-03-07_15h58.00.720,Surprise recog test,2023.1.3,60.05392843113156,
56,0,56,0,,,,,,,,,,,,,,,,,,,,,,,,,,,,,,,,,,8803.17530850001,,8801.037779700011,8801.037779700011,8801.037779700011,8801.037779700011,,old_sceneIn_36.png,57,4.0,2.13873569999123,,,058,11,2025-03-07_15h58.00.720,Surprise recog test,2023.1.3,60.05392843113156,
57,0,57,0,,,,,,,,,,,,,,,,,,,,,,,,,,,,,,,,,,8806.126465600013,,8804.199632700009,8804.199632700009,8804.199632700009,8804.199632700009,,old_stationery_19.png,58,3.0,1.9253185999987181,,,058,11,2025-03-07_15h58.00.720,Surprise recog test,2023.1.3,60.05392843113156,
58,0,58,0,,,,,,,,,,,,,,,,,,,,,,,,,,,,,,,,,,8808.925799100005,8809.945197000008,8807.158974400008,8807.158974400008,8807.158974400008,8807.158974400008,,new_sceneOut_28.png,59,3.0,1.7661197000124957,,,058,11,2025-03-07_15h58.00.720,Surprise recog test,2023.1.3,60.05392843113156,
59,0,59,0,,,,,,,,,,,,,,,,,,,,,,,,,,,,,,,,,,8812.0043229,8813.030826700007,8809.945197000008,8809.945197000008,8809.945197000008,8809.945197000008,,new_sceneIn_6.png,60,5.0,2.0615152999962447,,,058,11,2025-03-07_15h58.00.720,Surprise recog test,2023.1.3,60.05392843113156,
60,0,60,0,,,,,,,,,,,,,,,,,,,,,,,,,,,,,,,,,,8814.480277400013,8815.495642500013,8813.030826700007,8813.030826700007,8813.030826700007,8813.030826700007,,new_sceneOut_17.png,61,5.0,1.4449621999956435,,,058,11,2025-03-07_15h58.00.720,Surprise recog test,2023.1.3,60.05392843113156,
61,0,61,0,,,,,,,,,,,,,,,,,,,,,,,,,,,,,,,,,,8817.240118500005,8818.262972900004,8815.495642500013,8815.495642500013,8815.495642500013,8815.495642500013,,new_fruit_45.png,62,3.0,1.7404765999963274,,,058,11,2025-03-07_15h58.00.720,Surprise recog test,2023.1.3,60.05392843113156,
62,0,62,0,,,,,,,,,,,,,,,,,,,,,,,,,,,,,,,,,,8820.034987200008,8821.055289200012,8818.262972900004,8818.262972900004,8818.262972900004,8818.262972900004,,old_fruit_18.png,63,3.0,1.7717338999937056,,,058,11,2025-03-07_15h58.00.720,Surprise recog test,2023.1.3,60.05392843113156,
63,0,63,0,,,,,,,,,,,,,,,,,,,,,,,,,,,,,,,,,,8822.50910390001,8823.528940100005,8821.055289200012,8821.055289200012,8821.055289200012,8821.055289200012,,old_sceneIn_32.png,64,4.0,1.4552375999919605,,,058,11,2025-03-07_15h58.00.720,Surprise recog test,2023.1.3,60.05392843113156,
64,0,64,0,,,,,,,,,,,,,,,,,,,,,,,,,,,,,,,,,,8825.148947600013,8826.176235200008,8823.528940100005,8823.528940100005,8823.528940100005,8823.528940100005,,new_stationery_48.png,65,3.0,1.6163401999947382,,,058,11,2025-03-07_15h58.00.720,Surprise recog test,2023.1.3,60.05392843113156,
65,0,65,0,,,,,,,,,,,,,,,,,,,,,,,,,,,,,,,,,,8827.579358700008,8828.5962899,8826.176235200008,8826.176235200008,8826.176235200008,8826.176235200008,,new_sceneIn_3.png,66,4.0,1.405505099988659,,,058,11,2025-03-07_15h58.00.720,Surprise recog test,2023.1.3,60.05392843113156,
66,0,66,0,,,,,,,,,,,,,,,,,,,,,,,,,,,,,,,,,,8830.686118200014,8831.708437600013,8828.5962899,8828.5962899,8828.5962899,8828.5962899,,old_sceneOut_19.png,67,5.0,2.083250700001372,,,058,11,2025-03-07_15h58.00.720,Surprise recog test,2023.1.3,60.05392843113156,
67,0,67,0,,,,,,,,,,,,,,,,,,,,,,,,,,,,,,,,,,8833.412976200008,8834.424084600003,8831.708437600013,8831.708437600013,8831.708437600013,8831.708437600013,,old_sceneOut_32.png,68,5.0,1.7008971000032034,,,058,11,2025-03-07_15h58.00.720,Surprise recog test,2023.1.3,60.05392843113156,
68,0,68,0,,,,,,,,,,,,,,,,,,,,,,,,,,,,,,,,,,8836.023264700008,8837.052460800012,8834.424084600003,8834.424084600003,8834.424084600003,8834.424084600003,,old_sceneOut_49.png,69,4.0,1.599212200002512,,,058,11,2025-03-07_15h58.00.720,Surprise recog test,2023.1.3,60.05392843113156,
69,0,69,0,,,,,,,,,,,,,,,,,,,,,,,,,,,,,,,,,,8838.90033660001,8839.91583540001,8837.052460800012,8837.052460800012,8837.052460800012,8837.052460800012,,new_stationery_25.png,70,4.0,1.8482939999958035,,,058,11,2025-03-07_15h58.00.720,Surprise recog test,2023.1.3,60.05392843113156,
70,0,70,0,,,,,,,,,,,,,,,,,,,,,,,,,,,,,,,,,,8841.769806600001,8842.796779000011,8839.91583540001,8839.91583540001,8839.91583540001,8839.91583540001,,old_fruit_17.png,71,3.0,1.8517025000037393,,,058,11,2025-03-07_15h58.00.720,Surprise recog test,2023.1.3,60.05392843113156,
71,0,71,0,,,,,,,,,,,,,,,,,,,,,,,,,,,,,,,,,,8844.066517900006,8845.091406800013,8842.796779000011,8842.796779000011,8842.796779000011,8842.796779000011,,new_sceneOut_20.png,72,4.0,1.2728012000006856,,,058,11,2025-03-07_15h58.00.720,Surprise recog test,2023.1.3,60.05392843113156,
72,0,72,0,,,,,,,,,,,,,,,,,,,,,,,,,,,,,,,,,,8846.750319500003,8847.779054000013,8845.091406800013,8845.091406800013,8845.091406800013,8845.091406800013,,old_sceneIn_43.png,73,4.0,1.6610186000034446,,,058,11,2025-03-07_15h58.00.720,Surprise recog test,2023.1.3,60.05392843113156,
73,0,73,0,,,,,,,,,,,,,,,,,,,,,,,,,,,,,,,,,,8849.4378613,8850.46587120001,8847.779054000013,8847.779054000013,8847.779054000013,8847.779054000013,,new_fruit_25.png,74,3.0,1.6617059999989579,,,058,11,2025-03-07_15h58.00.720,Surprise recog test,2023.1.3,60.05392843113156,
74,0,74,0,,,,,,,,,,,,,,,,,,,,,,,,,,,,,,,,,,8851.888425100013,8852.907314200012,8850.46587120001,8850.46587120001,8850.46587120001,8850.46587120001,,old_sceneIn_2.png,75,4.0,1.4234017999988282,,,058,11,2025-03-07_15h58.00.720,Surprise recog test,2023.1.3,60.05392843113156,
75,0,75,0,,,,,,,,,,,,,,,,,,,,,,,,,,,,,,,,,,8854.361707500007,8855.395180300009,8852.907314200012,8852.907314200012,8852.907314200012,8852.907314200012,,old_stationery_40.png,76,1.0,1.454943100005039,,,058,11,2025-03-07_15h58.00.720,Surprise recog test,2023.1.3,60.05392843113156,
76,0,76,0,,,,,,,,,,,,,,,,,,,,,,,,,,,,,,,,,,8857.01936250001,,8855.395180300009,8855.395180300009,8855.395180300009,8855.395180300009,,old_stationery_47.png,77,1.0,1.6252934999938589,,,058,11,2025-03-07_15h58.00.720,Surprise recog test,2023.1.3,60.05392843113156,
77,0,77,0,,,,,,,,,,,,,,,,,,,,,,,,,,,,,,,,,,8859.437973200009,,8858.041621100012,8858.041621100012,8858.041621100012,8858.041621100012,,old_fruit_33.png,78,1.0,1.3916207000002032,,,058,11,2025-03-07_15h58.00.720,Surprise recog test,2023.1.3,60.05392843113156,
78,0,78,0,,,,,,,,,,,,,,,,,,,,,,,,,,,,,,,,,,8863.0897406,,8860.455752000009,8860.455752000009,8860.455752000009,8860.455752000009,,old_sceneIn_21.png,79,4.0,2.628012099987245,,,058,11,2025-03-07_15h58.00.720,Surprise recog test,2023.1.3,60.05392843113156,
79,0,79,0,,,,,,,,,,,,,,,,,,,,,,,,,,,,,,,,,,8865.831366500002,8866.861567200001,8864.119112300003,8864.119112300003,8864.119112300003,8864.119112300003,,old_stationery_10.png,80,4.0,1.7138856000092346,,,058,11,2025-03-07_15h58.00.720,Surprise recog test,2023.1.3,60.05392843113156,
80,0,80,0,,,,,,,,,,,,,,,,,,,,,,,,,,,,,,,,,,8868.478155000004,,8866.861567200001,8866.861567200001,8866.861567200001,8866.861567200001,,old_sceneIn_5.png,81,4.0,1.616725400002906,,,058,11,2025-03-07_15h58.00.720,Surprise recog test,2023.1.3,60.05392843113156,
81,0,81,0,,,,,,,,,,,,,,,,,,,,,,,,,,,,,,,,,,8870.825076600013,8871.83380040001,8869.511857400008,8869.511857400008,8869.511857400008,8869.511857400008,,new_fruit_28.png,82,3.0,1.3126044000091497,,,058,11,2025-03-07_15h58.00.720,Surprise recog test,2023.1.3,60.05392843113156,
82,0,82,0,,,,,,,,,,,,,,,,,,,,,,,,,,,,,,,,,,8873.363121300004,8874.384367200008,8871.83380040001,8871.83380040001,8871.83380040001,8871.83380040001,,old_sceneOut_31.png,83,4.0,1.5254547000076855,,,058,11,2025-03-07_15h58.00.720,Surprise recog test,2023.1.3,60.05392843113156,
83,0,83,0,,,,,,,,,,,,,,,,,,,,,,,,,,,,,,,,,,8877.154692700002,8878.187178500011,8874.384367200008,8874.384367200008,8874.384367200008,8874.384367200008,,old_fruit_16.png,84,3.0,2.7730490999965696,,,058,11,2025-03-07_15h58.00.720,Surprise recog test,2023.1.3,60.05392843113156,
84,0,84,0,,,,,,,,,,,,,,,,,,,,,,,,,,,,,,,,,,8880.034988000014,8881.050507500011,8878.187178500011,8878.187178500011,8878.187178500011,8878.187178500011,,old_fruit_4.png,85,4.0,1.846952899999451,,,058,11,2025-03-07_15h58.00.720,Surprise recog test,2023.1.3,60.05392843113156,
85,0,85,0,,,,,,,,,,,,,,,,,,,,,,,,,,,,,,,,,,8882.620479200006,8883.627137600008,8881.050507500011,8881.050507500011,8881.050507500011,8881.050507500011,,old_fruit_6.png,86,3.0,1.5675912000006065,,,058,11,2025-03-07_15h58.00.720,Surprise recog test,2023.1.3,60.05392843113156,
86,0,86,0,,,,,,,,,,,,,,,,,,,,,,,,,,,,,,,,,,8885.0328209,8886.046235000002,8883.627137600008,8883.627137600008,8883.627137600008,8883.627137600008,,old_sceneIn_17.png,87,4.0,1.3995546999940416,,,058,11,2025-03-07_15h58.00.720,Surprise recog test,2023.1.3,60.05392843113156,
87,0,87,0,,,,,,,,,,,,,,,,,,,,,,,,,,,,,,,,,,8888.758201300006,8889.76785460001,8886.046235000002,8886.046235000002,8886.046235000002,8886.046235000002,,old_sceneOut_17.png,88,5.0,2.7088760000042384,,,058,11,2025-03-07_15h58.00.720,Surprise recog test,2023.1.3,60.05392843113156,
88,0,88,0,,,,,,,,,,,,,,,,,,,,,,,,,,,,,,,,,,8891.226723800006,8892.2477698,8889.76785460001,8889.76785460001,8889.76785460001,8889.76785460001,,old_sceneOut_7.png,89,4.0,1.4523287999909371,,,058,11,2025-03-07_15h58.00.720,Surprise recog test,2023.1.3,60.05392843113156,
89,0,89,0,,,,,,,,,,,,,,,,,,,,,,,,,,,,,,,,,,8894.483161000011,,8892.2477698,8892.2477698,8892.2477698,8892.2477698,,new_sceneOut_26.png,90,5.0,2.2347579000052065,,,058,11,2025-03-07_15h58.00.720,Surprise recog test,2023.1.3,60.05392843113156,
90,0,90,0,,,,,,,,,,,,,,,,,,,,,,,,,,,,,,,,,,8897.15057550001,8898.154584600008,8895.516511700014,8895.516511700014,8895.516511700014,8895.516511700014,,new_fruit_38.png,91,3.0,1.6354809000040404,,,058,11,2025-03-07_15h58.00.720,Surprise recog test,2023.1.3,60.05392843113156,
91,0,91,0,,,,,,,,,,,,,,,,,,,,,,,,,,,,,,,,,,8899.8850829,8900.907711000007,8898.154584600008,8898.154584600008,8898.154584600008,8898.154584600008,,old_fruit_20.png,92,3.0,1.726901399990311,,,058,11,2025-03-07_15h58.00.720,Surprise recog test,2023.1.3,60.05392843113156,
92,0,92,0,,,,,,,,,,,,,,,,,,,,,,,,,,,,,,,,,,8902.465288700012,8903.486162900008,8900.907711000007,8900.907711000007,8900.907711000007,8900.907711000007,,new_sceneIn_46.png,93,4.0,1.5635812999971677,,,058,11,2025-03-07_15h58.00.720,Surprise recog test,2023.1.3,60.05392843113156,
93,0,93,0,,,,,,,,,,,,,,,,,,,,,,,,,,,,,,,,,,8905.256014800005,8906.269695300012,8903.486162900008,8903.486162900008,8903.486162900008,8903.486162900008,,new_fruit_19.png,94,3.0,1.7672209000011208,,,058,11,2025-03-07_15h58.00.720,Surprise recog test,2023.1.3,60.05392843113156,
94,0,94,0,,,,,,,,,,,,,,,,,,,,,,,,,,,,,,,,,,8908.683308200008,8909.716707000014,8906.269695300012,8906.269695300012,8906.269695300012,8906.269695300012,,old_sceneIn_16.png,95,4.0,2.41448799999489,,,058,11,2025-03-07_15h58.00.720,Surprise recog test,2023.1.3,60.05392843113156,
95,0,95,0,,,,,,,,,,,,,,,,,,,,,,,,,,,,,,,,,,8912.265239600005,,8909.716707000014,8909.716707000014,8909.716707000014,8909.716707000014,,old_sceneIn_34.png,96,2.0,2.5494321000005584,,,058,11,2025-03-07_15h58.00.720,Surprise recog test,2023.1.3,60.05392843113156,
96,0,96,0,,,,,,,,,,,,,,,,,,,,,,,,,,,,,,,,,,8914.7880459,8915.81837970001,8913.29945830001,8913.29945830001,8913.29945830001,8913.29945830001,,old_sceneOut_27.png,97,4.0,1.4890056000003824,,,058,11,2025-03-07_15h58.00.720,Surprise recog test,2023.1.3,60.05392843113156,
97,0,97,0,,,,,,,,,,,,,,,,,,,,,,,,,,,,,,,,,,8918.351939200002,8919.36796090001,8915.81837970001,8915.81837970001,8915.81837970001,8915.81837970001,,old_sceneOut_2.png,98,3.0,2.535453899996355,,,058,11,2025-03-07_15h58.00.720,Surprise recog test,2023.1.3,60.05392843113156,
98,0,98,0,,,,,,,,,,,,,,,,,,,,,,,,,,,,,,,,,,8921.409180100003,8922.427894000008,8919.36796090001,8919.36796090001,8919.36796090001,8919.36796090001,,new_sceneIn_13.png,99,4.0,2.0432331999909366,,,058,11,2025-03-07_15h58.00.720,Surprise recog test,2023.1.3,60.05392843113156,
99,0,99,0,,,,,,,,,,,,,,,,,,,,,,,,,,,,,,,,,,8924.400533500011,8925.42385440001,8922.427894000008,8922.427894000008,8922.427894000008,8922.427894000008,,new_stationery_37.png,100,3.0,1.9688202000106685,,,058,11,2025-03-07_15h58.00.720,Surprise recog test,2023.1.3,60.05392843113156,
100,0,100,0,,,,,,,,,,,,,,,,,,,,,,,,,,,,,,,,,,8927.831704700002,8928.865312500013,8925.42385440001,8925.42385440001,8925.42385440001,8925.42385440001,,new_sceneOut_31.png,101,4.0,2.409035999997286,,,058,11,2025-03-07_15h58.00.720,Surprise recog test,2023.1.3,60.05392843113156,
101,0,101,0,,,,,,,,,,,,,,,,,,,,,,,,,,,,,,,,,,8931.480030900013,,8928.865312500013,8928.865312500013,8928.865312500013,8928.865312500013,,old_stationery_7.png,102,3.0,2.618360100008431,,,058,11,2025-03-07_15h58.00.720,Surprise recog test,2023.1.3,60.05392843113156,
102,0,102,0,,,,,,,,,,,,,,,,,,,,,,,,,,,,,,,,,,8934.63550280001,8935.670863900014,8932.50989120001,8932.50989120001,8932.50989120001,8932.50989120001,,new_sceneOut_16.png,103,4.0,2.123701499993331,,,058,11,2025-03-07_15h58.00.720,Surprise recog test,2023.1.3,60.05392843113156,
103,0,103,0,,,,,,,,,,,,,,,,,,,,,,,,,,,,,,,,,,8937.265604700005,8938.274562700011,8935.670863900014,8935.670863900014,8935.670863900014,8935.670863900014,,old_fruit_2.png,104,3.0,1.598460500012152,,,058,11,2025-03-07_15h58.00.720,Surprise recog test,2023.1.3,60.05392843113156,
104,0,104,0,,,,,,,,,,,,,,,,,,,,,,,,,,,,,,,,,,8939.863629000014,8940.892230900005,8938.274562700011,8938.274562700011,8938.274562700011,8938.274562700011,,old_sceneIn_26.png,105,4.0,1.5832499999960419,,,058,11,2025-03-07_15h58.00.720,Surprise recog test,2023.1.3,60.05392843113156,
105,0,105,0,,,,,,,,,,,,,,,,,,,,,,,,,,,,,,,,,,8942.726450500006,8943.74605300001,8940.892230900005,8940.892230900005,8940.892230900005,8940.892230900005,,new_sceneIn_17.png,106,5.0,1.8372188000066672,,,058,11,2025-03-07_15h58.00.720,Surprise recog test,2023.1.3,60.05392843113156,
106,0,106,0,,,,,,,,,,,,,,,,,,,,,,,,,,,,,,,,,,8945.6609761,8946.696912800006,8943.74605300001,8943.74605300001,8943.74605300001,8943.74605300001,,new_stationery_9.png,107,2.0,1.9107402000081493,,,058,11,2025-03-07_15h58.00.720,Surprise recog test,2023.1.3,60.05392843113156,
107,0,107,0,,,,,,,,,,,,,,,,,,,,,,,,,,,,,,,,,,8949.727341000005,8950.746334800002,8946.696912800006,8946.696912800006,8946.696912800006,8946.696912800006,,new_sceneIn_32.png,108,1.0,3.0332875000021886,,,058,11,2025-03-07_15h58.00.720,Surprise recog test,2023.1.3,60.05392843113156,
108,0,108,0,,,,,,,,,,,,,,,,,,,,,,,,,,,,,,,,,,8952.35096190001,8953.376538100012,8950.746334800002,8950.746334800002,8950.746334800002,8950.746334800002,,old_sceneOut_24.png,109,4.0,1.6068793999875197,,,058,11,2025-03-07_15h58.00.720,Surprise recog test,2023.1.3,60.05392843113156,
109,0,109,0,,,,,,,,,,,,,,,,,,,,,,,,,,,,,,,,,,8954.664558500008,8955.687179700006,8953.376538100012,8953.376538100012,8953.376538100012,8953.376538100012,,old_fruit_34.png,110,3.0,1.2893511000002036,,,058,11,2025-03-07_15h58.00.720,Surprise recog test,2023.1.3,60.05392843113156,
110,0,110,0,,,,,,,,,,,,,,,,,,,,,,,,,,,,,,,,,,8958.0904324,8959.12024840001,8955.687179700006,8955.687179700006,8955.687179700006,8955.687179700006,,old_sceneOut_22.png,111,3.0,2.4059412999922642,,,058,11,2025-03-07_15h58.00.720,Surprise recog test,2023.1.3,60.05392843113156,
111,0,111,0,,,,,,,,,,,,,,,,,,,,,,,,,,,,,,,,,,8961.049642500002,8962.061022600014,8959.12024840001,8959.12024840001,8959.12024840001,8959.12024840001,,old_fruit_26.png,112,3.0,1.931348700003582,,,058,11,2025-03-07_15h58.00.720,Surprise recog test,2023.1.3,60.05392843113156,
112,0,112,0,,,,,,,,,,,,,,,,,,,,,,,,,,,,,,,,,,8963.704613000009,8964.72688690001,8962.061022600014,8962.061022600014,8962.061022600014,8962.061022600014,,old_sceneOut_47.png,113,4.0,1.6359767999965698,,,058,11,2025-03-07_15h58.00.720,Surprise recog test,2023.1.3,60.05392843113156,
113,0,113,0,,,,,,,,,,,,,,,,,,,,,,,,,,,,,,,,,,8966.660514200004,,8964.72688690001,8964.72688690001,8964.72688690001,8964.72688690001,,new_sceneIn_21.png,114,4.0,1.936062499997206,,,058,11,2025-03-07_15h58.00.720,Surprise recog test,2023.1.3,60.05392843113156,
114,0,114,0,,,,,,,,,,,,,,,,,,,,,,,,,,,,,,,,,,8969.255755400009,8970.273174500006,8967.696159300001,8967.696159300001,8967.696159300001,8967.696159300001,,old_stationery_8.png,115,1.0,1.562667699996382,,,058,11,2025-03-07_15h58.00.720,Surprise recog test,2023.1.3,60.05392843113156,
115,0,115,0,,,,,,,,,,,,,,,,,,,,,,,,,,,,,,,,,,8972.270581200006,8973.29934360001,8970.273174500006,8970.273174500006,8970.273174500006,8970.273174500006,,old_sceneIn_23.png,116,4.0,1.9983990999899106,,,058,11,2025-03-07_15h58.00.720,Surprise recog test,2023.1.3,60.05392843113156,
116,0,116,0,,,,,,,,,,,,,,,,,,,,,,,,,,,,,,,,,,8974.480888400009,8975.503493100012,8973.29934360001,8973.29934360001,8973.29934360001,8973.29934360001,,new_fruit_30.png,117,3.0,1.1815711000090232,,,058,11,2025-03-07_15h58.00.720,Surprise recog test,2023.1.3,60.05392843113156,
117,0,117,0,,,,,,,,,,,,,,,,,,,,,,,,,,,,,,,,,,8978.321462900014,8979.352739500013,8975.503493100012,8975.503493100012,8975.503493100012,8975.503493100012,,new_sceneOut_43.png,118,2.0,2.820278600003803,,,058,11,2025-03-07_15h58.00.720,Surprise recog test,2023.1.3,60.05392843113156,
118,0,118,0,,,,,,,,,,,,,,,,,,,,,,,,,,,,,,,,,,8981.953151300011,8982.96955580001,8979.352739500013,8979.352739500013,8979.352739500013,8979.352739500013,,new_sceneOut_19.png,119,4.0,2.600952699998743,,,058,11,2025-03-07_15h58.00.720,Surprise recog test,2023.1.3,60.05392843113156,
119,0,119,0,,,,,,,,,,,,,,,,,,,,,,,,,,,,,,,,,,8986.003704800009,8987.027239500007,8982.96955580001,8982.96955580001,8982.96955580001,8982.96955580001,,old_sceneOut_10.png,120,4.0,3.03489680000348,,,058,11,2025-03-07_15h58.00.720,Surprise recog test,2023.1.3,60.05392843113156,
120,0,120,0,,,,,,,,,,,,,,,,,,,,,,,,,,,,,,,,,,8990.078124900014,8991.098763400005,8987.027239500007,8987.027239500007,8987.027239500007,8987.027239500007,,old_sceneIn_29.png,121,3.0,3.053401000011945,,,058,11,2025-03-07_15h58.00.720,Surprise recog test,2023.1.3,60.05392843113156,
121,0,121,0,,,,,,,,,,,,,,,,,,,,,,,,,,,,,,,,,,8993.496017200014,8994.510532500004,8991.098763400005,8991.098763400005,8991.098763400005,8991.098763400005,,new_stationery_36.png,122,3.0,2.3931622999953106,,,058,11,2025-03-07_15h58.00.720,Surprise recog test,2023.1.3,60.05392843113156,
122,0,122,0,,,,,,,,,,,,,,,,,,,,,,,,,,,,,,,,,,8996.466960900012,8997.480798000004,8994.510532500004,8994.510532500004,8994.510532500004,8994.510532500004,,new_sceneIn_10.png,123,3.0,1.9569062999944435,,,058,11,2025-03-07_15h58.00.720,Surprise recog test,2023.1.3,60.05392843113156,
123,0,123,0,,,,,,,,,,,,,,,,,,,,,,,,,,,,,,,,,,8998.747579000003,8999.759316900003,8997.480798000004,8997.480798000004,8997.480798000004,8997.480798000004,,old_stationery_26.png,124,1.0,1.2611868999956641,,,058,11,2025-03-07_15h58.00.720,Surprise recog test,2023.1.3,60.05392843113156,
124,0,124,0,,,,,,,,,,,,,,,,,,,,,,,,,,,,,,,,,,9002.753837200013,9003.777480200006,8999.759316900003,8999.759316900003,8999.759316900003,8999.759316900003,,new_stationery_8.png,125,4.0,2.9857092999882298,,,058,11,2025-03-07_15h58.00.720,Surprise recog test,2023.1.3,60.05392843113156,
125,0,125,0,,,,,,,,,,,,,,,,,,,,,,,,,,,,,,,,,,9005.155733900014,9006.16446330001,9003.777480200006,9003.777480200006,9003.777480200006,9003.777480200006,,old_stationery_35.png,126,1.0,1.3771973999973852,,,058,11,2025-03-07_15h58.00.720,Surprise recog test,2023.1.3,60.05392843113156,
126,0,126,0,,,,,,,,,,,,,,,,,,,,,,,,,,,,,,,,,,9007.69702420001,9008.730227000007,9006.16446330001,9006.16446330001,9006.16446330001,9006.16446330001,,new_fruit_26.png,127,3.0,1.5256283000053372,,,058,11,2025-03-07_15h58.00.720,Surprise recog test,2023.1.3,60.05392843113156,
127,0,127,0,,,,,,,,,,,,,,,,,,,,,,,,,,,,,,,,,,9010.977504300012,9011.9930781,9008.730227000007,9008.730227000007,9008.730227000007,9008.730227000007,,new_sceneIn_1.png,128,4.0,2.249166299996432,,,058,11,2025-03-07_15h58.00.720,Surprise recog test,2023.1.3,60.05392843113156,
128,0,128,0,,,,,,,,,,,,,,,,,,,,,,,,,,,,,,,,,,9013.956992900014,9014.986158400003,9011.9930781,9011.9930781,9011.9930781,9011.9930781,,new_fruit_16.png,129,3.0,1.964623499996378,,,058,11,2025-03-07_15h58.00.720,Surprise recog test,2023.1.3,60.05392843113156,
129,0,129,0,,,,,,,,,,,,,,,,,,,,,,,,,,,,,,,,,,9017.266208300003,9018.286657000004,9014.986158400003,9014.986158400003,9014.986158400003,9014.986158400003,,new_sceneOut_45.png,130,4.0,2.2833118999988073,,,058,11,2025-03-07_15h58.00.720,Surprise recog test,2023.1.3,60.05392843113156,
130,0,130,0,,,,,,,,,,,,,,,,,,,,,,,,,,,,,,,,,,9019.668017600008,9020.682098000005,9018.286657000004,9018.286657000004,9018.286657000004,9018.286657000004,,new_fruit_48.png,131,3.0,1.376127900002757,,,058,11,2025-03-07_15h58.00.720,Surprise recog test,2023.1.3,60.05392843113156,
131,0,131,0,,,,,,,,,,,,,,,,,,,,,,,,,,,,,,,,,,9022.65301580001,9023.661661000006,9020.682098000005,9020.682098000005,9020.682098000005,9020.682098000005,,new_stationery_22.png,132,2.0,1.9725080999924103,,,058,11,2025-03-07_15h58.00.720,Surprise recog test,2023.1.3,60.05392843113156,
132,0,132,0,,,,,,,,,,,,,,,,,,,,,,,,,,,,,,,,,,9025.972757900003,9026.989088600007,9023.661661000006,9023.661661000006,9023.661661000006,9023.661661000006,,old_fruit_14.png,133,2.0,2.306768300011754,,,058,11,2025-03-07_15h58.00.720,Surprise recog test,2023.1.3,60.05392843113156,
133,0,133,0,,,,,,,,,,,,,,,,,,,,,,,,,,,,,,,,,,9029.278208300006,,9026.989088600007,9026.989088600007,9026.989088600007,9026.989088600007,,new_sceneOut_14.png,134,3.0,2.2901304000115488,,,058,11,2025-03-07_15h58.00.720,Surprise recog test,2023.1.3,60.05392843113156,
134,0,134,0,,,,,,,,,,,,,,,,,,,,,,,,,,,,,,,,,,9032.273383900014,9033.286146800005,9030.2996404,9030.2996404,9030.2996404,9030.2996404,,new_stationery_12.png,135,3.0,1.9697297000093386,,,058,11,2025-03-07_15h58.00.720,Surprise recog test,2023.1.3,60.05392843113156,
135,0,135,0,,,,,,,,,,,,,,,,,,,,,,,,,,,,,,,,,,9035.020590200002,9036.0519184,9033.286146800005,9033.286146800005,9033.286146800005,9033.286146800005,,old_stationery_9.png,136,1.0,1.7299344000057317,,,058,11,2025-03-07_15h58.00.720,Surprise recog test,2023.1.3,60.05392843113156,
136,0,136,0,,,,,,,,,,,,,,,,,,,,,,,,,,,,,,,,,,9038.462289500007,9039.479699400006,9036.0519184,9036.0519184,9036.0519184,9036.0519184,,new_fruit_47.png,137,3.0,2.413317000013194,,,058,11,2025-03-07_15h58.00.720,Surprise recog test,2023.1.3,60.05392843113156,
137,0,137,0,,,,,,,,,,,,,,,,,,,,,,,,,,,,,,,,,,9041.846845000007,9042.863710200007,9039.479699400006,9039.479699400006,9039.479699400006,9039.479699400006,,old_sceneIn_14.png,138,3.0,2.3674156999913976,,,058,11,2025-03-07_15h58.00.720,Surprise recog test,2023.1.3,60.05392843113156,
138,0,138,0,,,,,,,,,,,,,,,,,,,,,,,,,,,,,,,,,,9044.207788400003,,9042.863710200007,9042.863710200007,9042.863710200007,9042.863710200007,,old_stationery_46.png,139,1.0,1.3406357000058051,,,058,11,2025-03-07_15h58.00.720,Surprise recog test,2023.1.3,60.05392843113156,
139,0,139,0,,,,,,,,,,,,,,,,,,,,,,,,,,,,,,,,,,9046.502437300005,9047.523269900004,9045.242937600007,9045.242937600007,9045.242937600007,9045.242937600007,,old_stationery_12.png,140,1.0,1.2623821000015596,,,058,11,2025-03-07_15h58.00.720,Surprise recog test,2023.1.3,60.05392843113156,
140,0,140,0,,,,,,,,,,,,,,,,,,,,,,,,,,,,,,,,,,9049.814415200002,9050.847874700004,9047.523269900004,9047.523269900004,9047.523269900004,9047.523269900004,,old_sceneIn_37.png,141,3.0,2.290850799996406,,,058,11,2025-03-07_15h58.00.720,Surprise recog test,2023.1.3,60.05392843113156,
141,0,141,0,,,,,,,,,,,,,,,,,,,,,,,,,,,,,,,,,,9052.833932300011,9053.868072700003,9050.847874700004,9050.847874700004,9050.847874700004,9050.847874700004,,new_sceneOut_6.png,142,4.0,1.98731629998656,,,058,11,2025-03-07_15h58.00.720,Surprise recog test,2023.1.3,60.05392843113156,
142,0,142,0,,,,,,,,,,,,,,,,,,,,,,,,,,,,,,,,,,9056.799364800012,9057.819954300008,9053.868072700003,9053.868072700003,9053.868072700003,9053.868072700003,,new_sceneIn_9.png,143,3.0,2.933586400002241,,,058,11,2025-03-07_15h58.00.720,Surprise recog test,2023.1.3,60.05392843113156,
143,0,143,0,,,,,,,,,,,,,,,,,,,,,,,,,,,,,,,,,,9061.479669600012,9062.4930055,9057.819954300008,9057.819954300008,9057.819954300008,9057.819954300008,,new_sceneIn_5.png,144,3.0,3.6625944999977946,,,058,11,2025-03-07_15h58.00.720,Surprise recog test,2023.1.3,60.05392843113156,
144,0,144,0,,,,,,,,,,,,,,,,,,,,,,,,,,,,,,,,,,9064.486420400004,9065.496978300012,9062.4930055,9062.4930055,9062.4930055,9062.4930055,,old_fruit_32.png,145,4.0,1.9893441000021994,,,058,11,2025-03-07_15h58.00.720,Surprise recog test,2023.1.3,60.05392843113156,
145,0,145,0,,,,,,,,,,,,,,,,,,,,,,,,,,,,,,,,,,9068.248506500007,9069.277877600005,9065.496978300012,9065.496978300012,9065.496978300012,9065.496978300012,,old_sceneOut_35.png,146,3.0,2.747171900002286,,,058,11,2025-03-07_15h58.00.720,Surprise recog test,2023.1.3,60.05392843113156,
146,0,146,0,,,,,,,,,,,,,,,,,,,,,,,,,,,,,,,,,,9071.329106100005,9072.348102300006,9069.277877600005,9069.277877600005,9069.277877600005,9069.277877600005,,old_sceneIn_7.png,147,3.0,2.053140199990594,,,058,11,2025-03-07_15h58.00.720,Surprise recog test,2023.1.3,60.05392843113156,
147,0,147,0,,,,,,,,,,,,,,,,,,,,,,,,,,,,,,,,,,9074.472013000006,9075.501057500005,9072.348102300006,9072.348102300006,9072.348102300006,9072.348102300006,,new_sceneOut_35.png,148,4.0,2.1261538000107976,,,058,11,2025-03-07_15h58.00.720,Surprise recog test,2023.1.3,60.05392843113156,
148,0,148,0,,,,,,,,,,,,,,,,,,,,,,,,,,,,,,,,,,9076.849519800002,9077.857178700011,9075.501057500005,9075.501057500005,9075.501057500005,9075.501057500005,,new_sceneOut_42.png,149,4.0,1.348712599996361,,,058,11,2025-03-07_15h58.00.720,Surprise recog test,2023.1.3,60.05392843113156,
149,0,149,0,,,,,,,,,,,,,,,,,,,,,,,,,,,,,,,,,,9080.101473600007,9081.10944510001,9077.857178700011,9077.857178700011,9077.857178700011,9077.857178700011,,new_sceneIn_20.png,150,3.0,2.2358108000044012,,,058,11,2025-03-07_15h58.00.720,Surprise recog test,2023.1.3,60.05392843113156,
150,0,150,0,,,,,,,,,,,,,,,,,,,,,,,,,,,,,,,,,,9082.776091800013,9083.80100810001,9081.10944510001,9081.10944510001,9081.10944510001,9081.10944510001,,old_stationery_36.png,151,1.0,1.6628443999943556,,,058,11,2025-03-07_15h58.00.720,Surprise recog test,2023.1.3,60.05392843113156,
151,0,151,0,,,,,,,,,,,,,,,,,,,,,,,,,,,,,,,,,,9085.954883800005,9086.976914100014,9083.80100810001,9083.80100810001,9083.80100810001,9083.80100810001,,new_stationery_10.png,152,3.0,2.15452360000927,,,058,11,2025-03-07_15h58.00.720,Surprise recog test,2023.1.3,60.05392843113156,
152,0,152,0,,,,,,,,,,,,,,,,,,,,,,,,,,,,,,,,,,9089.0672931,9090.094649400009,9086.976914100014,9086.976914100014,9086.976914100014,9086.976914100014,,old_fruit_43.png,153,2.0,2.0929005999932997,,,058,11,2025-03-07_15h58.00.720,Surprise recog test,2023.1.3,60.05392843113156,
153,0,153,0,,,,,,,,,,,,,,,,,,,,,,,,,,,,,,,,,,9090.983473200002,9092.013825000002,9090.094649400009,9090.094649400009,9090.094649400009,9090.094649400009,,old_fruit_22.png,154,2.0,0.8892951000016183,,,058,11,2025-03-07_15h58.00.720,Surprise recog test,2023.1.3,60.05392843113156,
154,0,154,0,,,,,,,,,,,,,,,,,,,,,,,,,,,,,,,,,,9093.934137600008,,9092.013825000002,9092.013825000002,9092.013825000002,9092.013825000002,,new_sceneIn_45.png,155,4.0,1.9222908999945503,,,058,11,2025-03-07_15h58.00.720,Surprise recog test,2023.1.3,60.05392843113156,
155,0,155,0,,,,,,,,,,,,,,,,,,,,,,,,,,,,,,,,,,9096.467757700011,,9094.954320500008,9094.954320500008,9094.954320500008,9094.954320500008,,new_sceneOut_24.png,156,4.0,1.5073989999946207,,,058,11,2025-03-07_15h58.00.720,Surprise recog test,2023.1.3,60.05392843113156,
156,0,156,0,,,,,,,,,,,,,,,,,,,,,,,,,,,,,,,,,,9099.254374100012,,9097.503034000008,9097.503034000008,9097.503034000008,9097.503034000008,,old_fruit_44.png,157,3.0,1.7549278999940725,,,058,11,2025-03-07_15h58.00.720,Surprise recog test,2023.1.3,60.05392843113156,
157,0,157,0,,,,,,,,,,,,,,,,,,,,,,,,,,,,,,,,,,9101.4764536,9102.502075100012,9100.28753120001,9100.28753120001,9100.28753120001,9100.28753120001,,new_fruit_9.png,158,3.0,1.1910767999943346,,,058,11,2025-03-07_15h58.00.720,Surprise recog test,2023.1.3,60.05392843113156,
158,0,158,0,,,,,,,,,,,,,,,,,,,,,,,,,,,,,,,,,,9103.969799900005,9104.979976800008,9102.502075100012,9102.502075100012,9102.502075100012,9102.502075100012,,new_sceneOut_8.png,159,4.0,1.4685350999934599,,,058,11,2025-03-07_15h58.00.720,Surprise recog test,2023.1.3,60.05392843113156,
159,0,159,0,,,,,,,,,,,,,,,,,,,,,,,,,,,,,,,,,,9107.274133600004,9108.293920800003,9104.979976800008,9104.979976800008,9104.979976800008,9104.979976800008,,old_stationery_30.png,160,1.0,2.2898206999961985,,,058,11,2025-03-07_15h58.00.720,Surprise recog test,2023.1.3,60.05392843113156,
160,0,160,0,,,,,,,,,,,,,,,,,,,,,,,,,,,,,,,,,,9110.255227600006,9111.2797308,9108.293920800003,9108.293920800003,9108.293920800003,9108.293920800003,,old_fruit_1.png,161,3.0,1.962925300002098,,,058,11,2025-03-07_15h58.00.720,Surprise recog test,2023.1.3,60.05392843113156,
161,0,161,0,,,,,,,,,,,,,,,,,,,,,,,,,,,,,,,,,,9112.934224800003,9113.965543400001,9111.2797308,9111.2797308,9111.2797308,9111.2797308,,new_sceneIn_47.png,162,4.0,1.6557647000008728,,,058,11,2025-03-07_15h58.00.720,Surprise recog test,2023.1.3,60.05392843113156,
162,0,162,0,,,,,,,,,,,,,,,,,,,,,,,,,,,,,,,,,,9115.36506370001,9116.382116400011,9113.965543400001,9113.965543400001,9113.965543400001,9113.965543400001,,old_stationery_44.png,163,1.0,1.4022922000003746,,,058,11,2025-03-07_15h58.00.720,Surprise recog test,2023.1.3,60.05392843113156,
163,0,163,0,,,,,,,,,,,,,,,,,,,,,,,,,,,,,,,,,,9117.752697600008,,9116.382116400011,9116.382116400011,9116.382116400011,9116.382116400011,,old_sceneIn_24.png,164,4.0,1.371471600010409,,,058,11,2025-03-07_15h58.00.720,Surprise recog test,2023.1.3,60.05392843113156,
164,0,164,0,,,,,,,,,,,,,,,,,,,,,,,,,,,,,,,,,,9119.907577900012,9120.937918500014,9118.78946900001,9118.78946900001,9118.78946900001,9118.78946900001,,new_sceneOut_48.png,165,4.0,1.12238129999605,,,058,11,2025-03-07_15h58.00.720,Surprise recog test,2023.1.3,60.05392843113156,
165,0,165,0,,,,,,,,,,,,,,,,,,,,,,,,,,,,,,,,,,9122.338320900002,9123.352849000003,9120.937918500014,9120.937918500014,9120.937918500014,9120.937918500014,,old_sceneOut_15.png,166,4.0,1.4028117999987444,,,058,11,2025-03-07_15h58.00.720,Surprise recog test,2023.1.3,60.05392843113156,
166,0,166,0,,,,,,,,,,,,,,,,,,,,,,,,,,,,,,,,,,9124.916635700007,9125.945400600001,9123.352849000003,9123.352849000003,9123.352849000003,9123.352849000003,,new_fruit_3.png,167,4.0,1.5654314999992494,,,058,11,2025-03-07_15h58.00.720,Surprise recog test,2023.1.3,60.05392843113156,
167,0,167,0,,,,,,,,,,,,,,,,,,,,,,,,,,,,,,,,,,9127.461721700005,,9125.945400600001,9125.945400600001,9125.945400600001,9125.945400600001,,old_fruit_24.png,168,1.0,1.5209197000076529,,,058,11,2025-03-07_15h58.00.720,Surprise recog test,2023.1.3,60.05392843113156,
168,0,168,0,,,,,,,,,,,,,,,,,,,,,,,,,,,,,,,,,,9130.495910100013,,9128.493709700007,9128.493709700007,9128.493709700007,9128.493709700007,,new_stationery_50.png,169,3.0,2.003462699998636,,,058,11,2025-03-07_15h58.00.720,Surprise recog test,2023.1.3,60.05392843113156,
169,0,169,0,,,,,,,,,,,,,,,,,,,,,,,,,,,,,,,,,,9133.016636,,9131.522862000013,9131.522862000013,9131.522862000013,9131.522862000013,,old_stationery_43.png,170,3.0,1.4896541999914916,,,058,11,2025-03-07_15h58.00.720,Surprise recog test,2023.1.3,60.05392843113156,
170,0,170,0,,,,,,,,,,,,,,,,,,,,,,,,,,,,,,,,,,9135.853143,9136.88587720001,9134.04158650001,9134.04158650001,9134.04158650001,9134.04158650001,,new_sceneOut_38.png,171,4.0,1.8127376000047661,,,058,11,2025-03-07_15h58.00.720,Surprise recog test,2023.1.3,60.05392843113156,
171,0,171,0,,,,,,,,,,,,,,,,,,,,,,,,,,,,,,,,,,9139.230684900002,9140.258173600014,9136.88587720001,9136.88587720001,9136.88587720001,9136.88587720001,,old_sceneIn_13.png,172,4.0,2.3465972999983933,,,058,11,2025-03-07_15h58.00.720,Surprise recog test,2023.1.3,60.05392843113156,
172,0,172,0,,,,,,,,,,,,,,,,,,,,,,,,,,,,,,,,,,9142.468119100013,9143.490231300006,9140.258173600014,9140.258173600014,9140.258173600014,9140.258173600014,,old_sceneOut_3.png,173,3.0,2.2129217000037897,,,058,11,2025-03-07_15h58.00.720,Surprise recog test,2023.1.3,60.05392843113156,
173,0,173,0,,,,,,,,,,,,,,,,,,,,,,,,,,,,,,,,,,9144.996240700013,9146.014143100008,9143.490231300006,9143.490231300006,9143.490231300006,9143.490231300006,,new_stationery_34.png,174,1.0,1.5053998999937903,,,058,11,2025-03-07_15h58.00.720,Surprise recog test,2023.1.3,60.05392843113156,
174,0,174,0,,,,,,,,,,,,,,,,,,,,,,,,,,,,,,,,,,9147.284191800005,9148.2993098,9146.014143100008,9146.014143100008,9146.014143100008,9146.014143100008,,old_stationery_15.png,175,1.0,1.2642648999899393,,,058,11,2025-03-07_15h58.00.720,Surprise recog test,2023.1.3,60.05392843113156,
175,0,175,0,,,,,,,,,,,,,,,,,,,,,,,,,,,,,,,,,,9149.504281700007,9150.517943400002,9148.2993098,9148.2993098,9148.2993098,9148.2993098,,new_sceneOut_29.png,176,4.0,1.196984300011536,,,058,11,2025-03-07_15h58.00.720,Surprise recog test,2023.1.3,60.05392843113156,
176,0,176,0,,,,,,,,,,,,,,,,,,,,,,,,,,,,,,,,,,9152.316941600002,9153.349059,9150.517943400002,9150.517943400002,9150.517943400002,9150.517943400002,,new_sceneIn_12.png,177,3.0,1.795018799995887,,,058,11,2025-03-07_15h58.00.720,Surprise recog test,2023.1.3,60.05392843113156,
177,0,177,0,,,,,,,,,,,,,,,,,,,,,,,,,,,,,,,,,,9155.431006400002,9156.438960400003,9153.349059,9153.349059,9153.349059,9153.349059,,new_sceneOut_22.png,178,4.0,2.084619900007965,,,058,11,2025-03-07_15h58.00.720,Surprise recog test,2023.1.3,60.05392843113156,
178,0,178,0,,,,,,,,,,,,,,,,,,,,,,,,,,,,,,,,,,9158.782758000001,9159.802915100008,9156.438960400003,9156.438960400003,9156.438960400003,9156.438960400003,,new_fruit_32.png,179,4.0,2.339571699994849,,,058,11,2025-03-07_15h58.00.720,Surprise recog test,2023.1.3,60.05392843113156,
179,0,179,0,,,,,,,,,,,,,,,,,,,,,,,,,,,,,,,,,,9161.935551300005,9162.953463600003,9159.802915100008,9159.802915100008,9159.802915100008,9159.802915100008,,new_sceneOut_5.png,180,4.0,2.131349700008286,,,058,11,2025-03-07_15h58.00.720,Surprise recog test,2023.1.3,60.05392843113156,
180,0,180,0,,,,,,,,,,,,,,,,,,,,,,,,,,,,,,,,,,9164.534763000003,9165.567807500003,9162.953463600003,9162.953463600003,9162.953463600003,9162.953463600003,,old_sceneIn_40.png,181,4.0,1.583424800002831,,,058,11,2025-03-07_15h58.00.720,Surprise recog test,2023.1.3,60.05392843113156,
181,0,181,0,,,,,,,,,,,,,,,,,,,,,,,,,,,,,,,,,,9166.9934813,,9165.567807500003,9165.567807500003,9165.567807500003,9165.567807500003,,new_stationery_15.png,182,1.0,1.4302599999937229,,,058,11,2025-03-07_15h58.00.720,Surprise recog test,2023.1.3,60.05392843113156,
182,0,182,0,,,,,,,,,,,,,,,,,,,,,,,,,,,,,,,,,,9169.627506200006,9170.651476800005,9168.027070000011,9168.027070000011,9168.027070000011,9168.027070000011,,new_fruit_11.png,183,3.0,1.6024441000045044,,,058,11,2025-03-07_15h58.00.720,Surprise recog test,2023.1.3,60.05392843113156,
183,0,183,0,,,,,,,,,,,,,,,,,,,,,,,,,,,,,,,,,,9171.75447900001,9172.782224900002,9170.651476800005,9170.651476800005,9170.651476800005,9170.651476800005,,old_fruit_7.png,184,3.0,1.106193900006474,,,058,11,2025-03-07_15h58.00.720,Surprise recog test,2023.1.3,60.05392843113156,
184,0,184,0,,,,,,,,,,,,,,,,,,,,,,,,,,,,,,,,,,9174.096736100008,9175.11748130001,9172.782224900002,9172.782224900002,9172.782224900002,9172.782224900002,,new_sceneIn_29.png,185,4.0,1.3165023999899859,,,058,11,2025-03-07_15h58.00.720,Surprise recog test,2023.1.3,60.05392843113156,
185,0,185,0,,,,,,,,,,,,,,,,,,,,,,,,,,,,,,,,,,9176.944381400011,9177.975998400012,9175.11748130001,9175.11748130001,9175.11748130001,9175.11748130001,,old_stationery_32.png,186,3.0,1.8304506999993464,,,058,11,2025-03-07_15h58.00.720,Surprise recog test,2023.1.3,60.05392843113156,
186,0,186,0,,,,,,,,,,,,,,,,,,,,,,,,,,,,,,,,,,9179.309200200005,9180.326062200009,9177.975998400012,9177.975998400012,9177.975998400012,9177.975998400012,,new_sceneOut_25.png,187,4.0,1.3376036999979988,,,058,11,2025-03-07_15h58.00.720,Surprise recog test,2023.1.3,60.05392843113156,
187,0,187,0,,,,,,,,,,,,,,,,,,,,,,,,,,,,,,,,,,9183.304583900011,9184.311226100006,9180.326062200009,9180.326062200009,9180.326062200009,9180.326062200009,,new_stationery_42.png,188,3.0,2.974650699994527,,,058,11,2025-03-07_15h58.00.720,Surprise recog test,2023.1.3,60.05392843113156,
188,0,188,0,,,,,,,,,,,,,,,,,,,,,,,,,,,,,,,,,,9185.606406000006,9186.627581100009,9184.311226100006,9184.311226100006,9184.311226100006,9184.311226100006,,old_fruit_50.png,189,3.0,1.2904877999972086,,,058,11,2025-03-07_15h58.00.720,Surprise recog test,2023.1.3,60.05392843113156,
189,0,189,0,,,,,,,,,,,,,,,,,,,,,,,,,,,,,,,,,,9188.071199500002,9189.083772000013,9186.627581100009,9186.627581100009,9186.627581100009,9186.627581100009,,old_sceneOut_18.png,190,4.0,1.4444258000003174,,,058,11,2025-03-07_15h58.00.720,Surprise recog test,2023.1.3,60.05392843113156,
190,0,190,0,,,,,,,,,,,,,,,,,,,,,,,,,,,,,,,,,,9190.560602900005,9191.5680383,9189.083772000013,9189.083772000013,9189.083772000013,9189.083772000013,,new_sceneOut_47.png,191,4.0,1.472909600008279,,,058,11,2025-03-07_15h58.00.720,Surprise recog test,2023.1.3,60.05392843113156,
191,0,191,0,,,,,,,,,,,,,,,,,,,,,,,,,,,,,,,,,,9193.095560100002,9194.11225450001,9191.5680383,9191.5680383,9191.5680383,9191.5680383,,old_stationery_5.png,192,3.0,1.521076400007587,,,058,11,2025-03-07_15h58.00.720,Surprise recog test,2023.1.3,60.05392843113156,
192,0,192,0,,,,,,,,,,,,,,,,,,,,,,,,,,,,,,,,,,9196.27672580001,9197.289813800002,9194.11225450001,9194.11225450001,9194.11225450001,9194.11225450001,,new_fruit_6.png,193,3.0,2.164620700001251,,,058,11,2025-03-07_15h58.00.720,Surprise recog test,2023.1.3,60.05392843113156,
193,0,193,0,,,,,,,,,,,,,,,,,,,,,,,,,,,,,,,,,,9199.908852500012,9200.926296300007,9197.289813800002,9197.289813800002,9197.289813800002,9197.289813800002,,new_stationery_21.png,194,5.0,2.612557200001902,,,058,11,2025-03-07_15h58.00.720,Surprise recog test,2023.1.3,60.05392843113156,
194,0,194,0,,,,,,,,,,,,,,,,,,,,,,,,,,,,,,,,,,9203.880680500006,9204.907029900001,9200.926296300007,9200.926296300007,9200.926296300007,9200.926296300007,,new_fruit_12.png,195,3.0,2.950450299991644,,,058,11,2025-03-07_15h58.00.720,Surprise recog test,2023.1.3,60.05392843113156,
195,0,195,0,,,,,,,,,,,,,,,,,,,,,,,,,,,,,,,,,,9207.792942400003,,9204.907029900001,9204.907029900001,9204.907029900001,9204.907029900001,,old_fruit_37.png,196,3.0,2.8882126999960747,,,058,11,2025-03-07_15h58.00.720,Surprise recog test,2023.1.3,60.05392843113156,
196,0,196,0,,,,,,,,,,,,,,,,,,,,,,,,,,,,,,,,,,9210.76046820001,9211.784733700013,9208.814737700013,9208.814737700013,9208.814737700013,9208.814737700013,,old_sceneIn_45.png,197,4.0,1.9394395999988774,,,058,11,2025-03-07_15h58.00.720,Surprise recog test,2023.1.3,60.05392843113156,
197,0,197,0,,,,,,,,,,,,,,,,,,,,,,,,,,,,,,,,,,9214.05967670001,9215.084363500006,9211.784733700013,9211.784733700013,9211.784733700013,9211.784733700013,,new_stationery_3.png,198,4.0,2.2760413000069093,,,058,11,2025-03-07_15h58.00.720,Surprise recog test,2023.1.3,60.05392843113156,
198,0,198,0,,,,,,,,,,,,,,,,,,,,,,,,,,,,,,,,,,9217.360594600003,9218.386505900009,9215.084363500006,9215.084363500006,9215.084363500006,9215.084363500006,,new_sceneOut_12.png,199,3.0,2.2793570999929216,,,058,11,2025-03-07_15h58.00.720,Surprise recog test,2023.1.3,60.05392843113156,
199,0,199,0,,,,,,,,,,,,,,,,,,,,,,,,,,,,,,,,,,9219.648837800007,9220.670231100012,9218.386505900009,9218.386505900009,9218.386505900009,9218.386505900009,,new_sceneOut_50.png,200,4.0,1.2637155999982497,,,058,11,2025-03-07_15h58.00.720,Surprise recog test,2023.1.3,60.05392843113156,
200,0,200,0,,,,,,,,,,,,,,,,,,,,,,,,,,,,,,,,,,9222.343653400007,9223.3791031,9220.670231100012,9220.670231100012,9220.670231100012,9220.670231100012,,old_sceneOut_50.png,201,4.0,1.6761939999996684,,,058,11,2025-03-07_15h58.00.720,Surprise recog test,2023.1.3,60.05392843113156,
201,0,201,0,,,,,,,,,,,,,,,,,,,,,,,,,,,,,,,,,,9225.038818900008,9226.056218900005,9223.3791031,9223.3791031,9223.3791031,9223.3791031,,new_stationery_44.png,202,3.0,1.6573968000011519,,,058,11,2025-03-07_15h58.00.720,Surprise recog test,2023.1.3,60.05392843113156,
202,0,202,0,,,,,,,,,,,,,,,,,,,,,,,,,,,,,,,,,,9228.141536900002,9229.148253200008,9226.056218900005,9226.056218900005,9226.056218900005,9226.056218900005,,old_stationery_31.png,203,1.0,2.082051000004867,,,058,11,2025-03-07_15h58.00.720,Surprise recog test,2023.1.3,60.05392843113156,
203,0,203,0,,,,,,,,,,,,,,,,,,,,,,,,,,,,,,,,,,9230.586944800001,9231.608536400003,9229.148253200008,9229.148253200008,9229.148253200008,9229.148253200008,,new_fruit_21.png,204,3.0,1.4328160000004573,,,058,11,2025-03-07_15h58.00.720,Surprise recog test,2023.1.3,60.05392843113156,
204,0,204,0,,,,,,,,,,,,,,,,,,,,,,,,,,,,,,,,,,9233.432441100013,,9231.608536400003,9231.608536400003,9231.608536400003,9231.608536400003,,new_stationery_40.png,205,4.0,1.8241177999880165,,,058,11,2025-03-07_15h58.00.720,Surprise recog test,2023.1.3,60.05392843113156,
205,0,205,0,,,,,,,,,,,,,,,,,,,,,,,,,,,,,,,,,,9237.216860400003,9238.239749400003,9234.465658700006,9234.465658700006,9234.465658700006,9234.465658700006,,old_sceneOut_28.png,206,3.0,2.753799700003583,,,058,11,2025-03-07_15h58.00.720,Surprise recog test,2023.1.3,60.05392843113156,
206,0,206,0,,,,,,,,,,,,,,,,,,,,,,,,,,,,,,,,,,9240.475858100006,9241.4908421,9238.239749400003,9238.239749400003,9238.239749400003,9238.239749400003,,old_fruit_23.png,207,1.0,2.2417089999944437,,,058,11,2025-03-07_15h58.00.720,Surprise recog test,2023.1.3,60.05392843113156,
207,0,207,0,,,,,,,,,,,,,,,,,,,,,,,,,,,,,,,,,,9243.201497200003,9244.209405700007,9241.4908421,9241.4908421,9241.4908421,9241.4908421,,new_stationery_19.png,208,2.0,1.7046881000132998,,,058,11,2025-03-07_15h58.00.720,Surprise recog test,2023.1.3,60.05392843113156,
208,0,208,0,,,,,,,,,,,,,,,,,,,,,,,,,,,,,,,,,,9245.316112,9246.337649100009,9244.209405700007,9244.209405700007,9244.209405700007,9244.209405700007,,old_fruit_48.png,209,3.0,1.1027324999886332,,,058,11,2025-03-07_15h58.00.720,Surprise recog test,2023.1.3,60.05392843113156,
209,0,209,0,,,,,,,,,,,,,,,,,,,,,,,,,,,,,,,,,,9247.941186600001,9248.953360900006,9246.337649100009,9246.337649100009,9246.337649100009,9246.337649100009,,new_sceneIn_14.png,210,4.0,1.5976473000046099,,,058,11,2025-03-07_15h58.00.720,Surprise recog test,2023.1.3,60.05392843113156,
210,0,210,0,,,,,,,,,,,,,,,,,,,,,,,,,,,,,,,,,,9250.1786766,,9248.953360900006,9248.953360900006,9248.953360900006,9248.953360900006,,old_sceneOut_11.png,211,4.0,1.2225113000022247,,,058,11,2025-03-07_15h58.00.720,Surprise recog test,2023.1.3,60.05392843113156,
211,0,211,0,,,,,,,,,,,,,,,,,,,,,,,,,,,,,,,,,,9252.200825200009,9253.232235100004,9251.212740000003,9251.212740000003,9251.212740000003,9251.212740000003,,new_sceneOut_11.png,212,4.0,0.9905520000029355,,,058,11,2025-03-07_15h58.00.720,Surprise recog test,2023.1.3,60.05392843113156,
212,0,212,0,,,,,,,,,,,,,,,,,,,,,,,,,,,,,,,,,,9254.746979100004,9255.774390400009,9253.232235100004,9253.232235100004,9253.232235100004,9253.232235100004,,new_sceneIn_8.png,213,4.0,1.5173764000064693,,,058,11,2025-03-07_15h58.00.720,Surprise recog test,2023.1.3,60.05392843113156,
213,0,213,0,,,,,,,,,,,,,,,,,,,,,,,,,,,,,,,,,,9257.104154200002,9258.134222800014,9255.774390400009,9255.774390400009,9255.774390400009,9255.774390400009,,old_sceneIn_49.png,214,4.0,1.3324445000034757,,,058,11,2025-03-07_15h58.00.720,Surprise recog test,2023.1.3,60.05392843113156,
214,0,214,0,,,,,,,,,,,,,,,,,,,,,,,,,,,,,,,,,,9259.642896500009,9260.671597500012,9258.134222800014,9258.134222800014,9258.134222800014,9258.134222800014,,new_sceneIn_36.png,215,4.0,1.5090173999924446,,,058,11,2025-03-07_15h58.00.720,Surprise recog test,2023.1.3,60.05392843113156,
215,0,215,0,,,,,,,,,,,,,,,,,,,,,,,,,,,,,,,,,,9262.543333300011,9263.572249500008,9260.671597500012,9260.671597500012,9260.671597500012,9260.671597500012,,old_fruit_5.png,216,3.0,1.872548999992432,,,058,11,2025-03-07_15h58.00.720,Surprise recog test,2023.1.3,60.05392843113156,
216,0,216,0,,,,,,,,,,,,,,,,,,,,,,,,,,,,,,,,,,9265.182506300014,9266.203225400008,9263.572249500008,9263.572249500008,9263.572249500008,9263.572249500008,,old_fruit_38.png,217,3.0,1.6107473000010941,,,058,11,2025-03-07_15h58.00.720,Surprise recog test,2023.1.3,60.05392843113156,
217,0,217,0,,,,,,,,,,,,,,,,,,,,,,,,,,,,,,,,,,9267.86592750001,9268.895281000005,9266.203225400008,9266.203225400008,9266.203225400008,9266.203225400008,,old_stationery_18.png,218,1.0,1.6638232999976026,,,058,11,2025-03-07_15h58.00.720,Surprise recog test,2023.1.3,60.05392843113156,
218,0,218,0,,,,,,,,,,,,,,,,,,,,,,,,,,,,,,,,,,9270.200971600003,9271.229225800009,9268.895281000005,9268.895281000005,9268.895281000005,9268.895281000005,,old_sceneIn_15.png,219,4.0,1.308437799991225,,,058,11,2025-03-07_15h58.00.720,Surprise recog test,2023.1.3,60.05392843113156,
219,0,219,0,,,,,,,,,,,,,,,,,,,,,,,,,,,,,,,,,,9272.811862200004,9273.833832400007,9271.229225800009,9271.229225800009,9271.229225800009,9271.229225800009,,new_stationery_30.png,220,1.0,1.5845533000101568,,,058,11,2025-03-07_15h58.00.720,Surprise recog test,2023.1.3,60.05392843113156,
220,0,220,0,,,,,,,,,,,,,,,,,,,,,,,,,,,,,,,,,,9275.730938700013,9276.751101900009,9273.833832400007,9273.833832400007,9273.833832400007,9273.833832400007,,new_fruit_13.png,221,3.0,1.895701800007373,,,058,11,2025-03-07_15h58.00.720,Surprise recog test,2023.1.3,60.05392843113156,
221,0,221,0,,,,,,,,,,,,,,,,,,,,,,,,,,,,,,,,,,9278.467812400006,9279.4843788,9276.751101900009,9276.751101900009,9276.751101900009,9276.751101900009,,old_sceneOut_44.png,222,4.0,1.7179993000027025,,,058,11,2025-03-07_15h58.00.720,Surprise recog test,2023.1.3,60.05392843113156,
222,0,222,0,,,,,,,,,,,,,,,,,,,,,,,,,,,,,,,,,,9280.823290400003,9281.856795200001,9279.4843788,9279.4843788,9279.4843788,9279.4843788,,new_fruit_15.png,223,3.0,1.3406092999939574,,,058,11,2025-03-07_15h58.00.720,Surprise recog test,2023.1.3,60.05392843113156,
223,0,223,0,,,,,,,,,,,,,,,,,,,,,,,,,,,,,,,,,,9283.078683900007,9284.099709000002,9281.856795200001,9281.856795200001,9281.856795200001,9281.856795200001,,old_fruit_28.png,224,3.0,1.2225165999989258,,,058,11,2025-03-07_15h58.00.720,Surprise recog test,2023.1.3,60.05392843113156,
224,0,224,0,,,,,,,,,,,,,,,,,,,,,,,,,,,,,,,,,,9286.215608800005,9287.236343100012,9284.099709000002,9284.099709000002,9284.099709000002,9284.099709000002,,old_sceneOut_46.png,225,4.0,2.116477700008545,,,058,11,2025-03-07_15h58.00.720,Surprise recog test,2023.1.3,60.05392843113156,
225,0,225,0,,,,,,,,,,,,,,,,,,,,,,,,,,,,,,,,,,9288.258046100003,9289.275337400002,9287.236343100012,9287.236343100012,9287.236343100012,9287.236343100012,,old_sceneIn_8.png,226,4.0,1.0208969000086654,,,058,11,2025-03-07_15h58.00.720,Surprise recog test,2023.1.3,60.05392843113156,
226,0,226,0,,,,,,,,,,,,,,,,,,,,,,,,,,,,,,,,,,9291.712516300002,9292.719645400008,9289.275337400002,9289.275337400002,9289.275337400002,9289.275337400002,,new_sceneIn_19.png,227,3.0,2.4372252999892225,,,058,11,2025-03-07_15h58.00.720,Surprise recog test,2023.1.3,60.05392843113156,
227,0,227,0,,,,,,,,,,,,,,,,,,,,,,,,,,,,,,,,,,9295.557984700004,9296.57318240001,9292.719645400008,9292.719645400008,9292.719645400008,9292.719645400008,,new_fruit_31.png,228,3.0,2.8330584000068484,,,058,11,2025-03-07_15h58.00.720,Surprise recog test,2023.1.3,60.05392843113156,
228,0,228,0,,,,,,,,,,,,,,,,,,,,,,,,,,,,,,,,,,9298.588903200012,9299.621712200009,9296.57318240001,9296.57318240001,9296.57318240001,9296.57318240001,,old_sceneOut_8.png,229,3.0,2.011906200001249,,,058,11,2025-03-07_15h58.00.720,Surprise recog test,2023.1.3,60.05392843113156,
229,0,229,0,,,,,,,,,,,,,,,,,,,,,,,,,,,,,,,,,,9301.06510810001,9302.073782800013,9299.621712200009,9299.621712200009,9299.621712200009,9299.621712200009,,old_sceneIn_41.png,230,4.0,1.4440062999929069,,,058,11,2025-03-07_15h58.00.720,Surprise recog test,2023.1.3,60.05392843113156,
230,0,230,0,,,,,,,,,,,,,,,,,,,,,,,,,,,,,,,,,,9303.470819300011,9304.494176800014,9302.073782800013,9302.073782800013,9302.073782800013,9302.073782800013,,old_sceneOut_4.png,231,4.0,1.386962799995672,,,058,11,2025-03-07_15h58.00.720,Surprise recog test,2023.1.3,60.05392843113156,
231,0,231,0,,,,,,,,,,,,,,,,,,,,,,,,,,,,,,,,,,9306.363348300001,9307.393732200013,9304.494176800014,9304.494176800014,9304.494176800014,9304.494176800014,,old_stationery_27.png,232,1.0,1.8723832999967271,,,058,11,2025-03-07_15h58.00.720,Surprise recog test,2023.1.3,60.05392843113156,
232,0,232,0,,,,,,,,,,,,,,,,,,,,,,,,,,,,,,,,,,9309.583449100013,9310.611757900013,9307.393732200013,9307.393732200013,9307.393732200013,9307.393732200013,,new_stationery_39.png,233,3.0,2.1929799000063213,,,058,11,2025-03-07_15h58.00.720,Surprise recog test,2023.1.3,60.05392843113156,
233,0,233,0,,,,,,,,,,,,,,,,,,,,,,,,,,,,,,,,,,9312.53720630001,9313.565688500006,9310.611757900013,9310.611757900013,9310.611757900013,9310.611757900013,,old_sceneOut_42.png,234,4.0,1.926784100010991,,,058,11,2025-03-07_15h58.00.720,Surprise recog test,2023.1.3,60.05392843113156,
234,0,234,0,,,,,,,,,,,,,,,,,,,,,,,,,,,,,,,,,,9314.870540000004,9315.898460700002,9313.565688500006,9313.565688500006,9313.565688500006,9313.565688500006,,old_stationery_14.png,235,1.0,1.3059624999877997,,,058,11,2025-03-07_15h58.00.720,Surprise recog test,2023.1.3,60.05392843113156,
235,0,235,0,,,,,,,,,,,,,,,,,,,,,,,,,,,,,,,,,,9317.04872620001,9318.058403400006,9315.898460700002,9315.898460700002,9315.898460700002,9315.898460700002,,new_fruit_29.png,236,3.0,1.149577499993029,,,058,11,2025-03-07_15h58.00.720,Surprise recog test,2023.1.3,60.05392843113156,
236,0,236,0,,,,,,,,,,,,,,,,,,,,,,,,,,,,,,,,,,9319.840499500002,9320.858636000004,9318.058403400006,9318.058403400006,9318.058403400006,9318.058403400006,,old_stationery_2.png,237,1.0,1.7794813999935286,,,058,11,2025-03-07_15h58.00.720,Surprise recog test,2023.1.3,60.05392843113156,
237,0,237,0,,,,,,,,,,,,,,,,,,,,,,,,,,,,,,,,,,9322.300712200013,9323.311279100002,9320.858636000004,9320.858636000004,9320.858636000004,9320.858636000004,,new_fruit_24.png,238,3.0,1.4397276999952737,,,058,11,2025-03-07_15h58.00.720,Surprise recog test,2023.1.3,60.05392843113156,
238,0,238,0,,,,,,,,,,,,,,,,,,,,,,,,,,,,,,,,,,9324.622322800002,9325.63715010001,9323.311279100002,9323.311279100002,9323.311279100002,9323.311279100002,,old_stationery_1.png,239,1.0,1.3071365999931004,,,058,11,2025-03-07_15h58.00.720,Surprise recog test,2023.1.3,60.05392843113156,
239,0,239,0,,,,,,,,,,,,,,,,,,,,,,,,,,,,,,,,,,9327.273823900003,9328.293538900005,9325.63715010001,9325.63715010001,9325.63715010001,9325.63715010001,,old_fruit_11.png,240,2.0,1.6314971999963745,,,058,11,2025-03-07_15h58.00.720,Surprise recog test,2023.1.3,60.05392843113156,
240,0,240,0,,,,,,,,,,,,,,,,,,,,,,,,,,,,,,,,,,9329.391308900013,9330.412812900002,9328.293538900005,9328.293538900005,9328.293538900005,9328.293538900005,,old_fruit_31.png,241,3.0,1.1007931000058306,,,058,11,2025-03-07_15h58.00.720,Surprise recog test,2023.1.3,60.05392843113156,
241,0,241,0,,,,,,,,,,,,,,,,,,,,,,,,,,,,,,,,,,9331.558368100013,9332.578966900008,9330.412812900002,9330.412812900002,9330.412812900002,9330.412812900002,,old_stationery_38.png,242,1.0,1.1479879999969853,,,058,11,2025-03-07_15h58.00.720,Surprise recog test,2023.1.3,60.05392843113156,
242,0,242,0,,,,,,,,,,,,,,,,,,,,,,,,,,,,,,,,,,9333.745850100007,9334.751662500013,9332.578966900008,9332.578966900008,9332.578966900008,9332.578966900008,,old_stationery_48.png,243,1.0,1.166943700009142,,,058,11,2025-03-07_15h58.00.720,Surprise recog test,2023.1.3,60.05392843113156,
243,0,243,0,,,,,,,,,,,,,,,,,,,,,,,,,,,,,,,,,,9336.9350386,,9334.751662500013,9334.751662500013,9334.751662500013,9334.751662500013,,new_sceneIn_15.png,244,4.0,2.1796267999889096,,,058,11,2025-03-07_15h58.00.720,Surprise recog test,2023.1.3,60.05392843113156,
244,0,244,0,,,,,,,,,,,,,,,,,,,,,,,,,,,,,,,,,,9339.452046000006,9340.45929140001,9337.968554100007,9337.968554100007,9337.968554100007,9337.968554100007,,old_fruit_36.png,245,3.0,1.4846885000006296,,,058,11,2025-03-07_15h58.00.720,Surprise recog test,2023.1.3,60.05392843113156,
245,0,245,0,,,,,,,,,,,,,,,,,,,,,,,,,,,,,,,,,,9342.742338700002,9343.772292400012,9340.45929140001,9340.45929140001,9340.45929140001,9340.45929140001,,new_stationery_45.png,246,4.0,2.2775247000099625,,,058,11,2025-03-07_15h58.00.720,Surprise recog test,2023.1.3,60.05392843113156,
246,0,246,0,,,,,,,,,,,,,,,,,,,,,,,,,,,,,,,,,,9344.980982100009,9346.008913500002,9343.772292400012,9343.772292400012,9343.772292400012,9343.772292400012,,old_fruit_40.png,247,3.0,1.210585099994205,,,058,11,2025-03-07_15h58.00.720,Surprise recog test,2023.1.3,60.05392843113156,
247,0,247,0,,,,,,,,,,,,,,,,,,,,,,,,,,,,,,,,,,9347.242708500009,,9346.008913500002,9346.008913500002,9346.008913500002,9346.008913500002,,new_sceneOut_3.png,248,4.0,1.2362445000035223,,,058,11,2025-03-07_15h58.00.720,Surprise recog test,2023.1.3,60.05392843113156,
248,0,248,0,,,,,,,,,,,,,,,,,,,,,,,,,,,,,,,,,,9349.402584400013,9350.430269500008,9348.27231320001,9348.27231320001,9348.27231320001,9348.27231320001,,old_sceneOut_30.png,249,4.0,1.1304803999955766,,,058,11,2025-03-07_15h58.00.720,Surprise recog test,2023.1.3,60.05392843113156,
249,0,249,0,,,,,,,,,,,,,,,,,,,,,,,,,,,,,,,,,,9353.3339997,9354.360685000007,9350.430269500008,9350.430269500008,9350.430269500008,9350.430269500008,,new_stationery_49.png,250,4.0,2.905222599991248,,,058,11,2025-03-07_15h58.00.720,Surprise recog test,2023.1.3,60.05392843113156,
250,0,250,0,,,,,,,,,,,,,,,,,,,,,,,,,,,,,,,,,,9355.664158200001,9356.68705020001,9354.360685000007,9354.360685000007,9354.360685000007,9354.360685000007,,old_stationery_3.png,251,1.0,1.300422800006345,,,058,11,2025-03-07_15h58.00.720,Surprise recog test,2023.1.3,60.05392843113156,
251,0,251,0,,,,,,,,,,,,,,,,,,,,,,,,,,,,,,,,,,9358.117432400002,9359.124156300008,9356.68705020001,9356.68705020001,9356.68705020001,9356.68705020001,,new_sceneIn_2.png,252,4.0,1.432825199997751,,,058,11,2025-03-07_15h58.00.720,Surprise recog test,2023.1.3,60.05392843113156,
252,0,252,0,,,,,,,,,,,,,,,,,,,,,,,,,,,,,,,,,,9360.046657400002,9361.055381000013,9359.124156300008,9359.124156300008,9359.124156300008,9359.124156300008,,new_sceneIn_18.png,253,4.0,0.9182519000023603,,,058,11,2025-03-07_15h58.00.720,Surprise recog test,2023.1.3,60.05392843113156,
253,0,253,0,,,,,,,,,,,,,,,,,,,,,,,,,,,,,,,,,,9362.936910400007,9363.961075600004,9361.055381000013,9361.055381000013,9361.055381000013,9361.055381000013,,new_stationery_29.png,254,5.0,1.8730530999891926,,,058,11,2025-03-07_15h58.00.720,Surprise recog test,2023.1.3,60.05392843113156,
254,0,254,0,,,,,,,,,,,,,,,,,,,,,,,,,,,,,,,,,,9365.30611440001,9366.309880500005,9363.961075600004,9363.961075600004,9363.961075600004,9363.961075600004,,new_sceneIn_43.png,255,5.0,1.3489823999989312,,,058,11,2025-03-07_15h58.00.720,Surprise recog test,2023.1.3,60.05392843113156,
255,0,255,0,,,,,,,,,,,,,,,,,,,,,,,,,,,,,,,,,,9367.615064600002,9368.652321600006,9366.309880500005,9366.309880500005,9366.309880500005,9366.309880500005,,new_sceneOut_10.png,256,4.0,1.2995853000029456,,,058,11,2025-03-07_15h58.00.720,Surprise recog test,2023.1.3,60.05392843113156,
256,0,256,0,,,,,,,,,,,,,,,,,,,,,,,,,,,,,,,,,,9369.809315000006,9370.830713200005,9368.652321600006,9368.652321600006,9368.652321600006,9368.652321600006,,old_sceneOut_16.png,257,4.0,1.1564593999937642,,,058,11,2025-03-07_15h58.00.720,Surprise recog test,2023.1.3,60.05392843113156,
257,0,257,0,,,,,,,,,,,,,,,,,,,,,,,,,,,,,,,,,,9372.712545600007,9373.720259500013,9370.830713200005,9370.830713200005,9370.830713200005,9370.830713200005,,old_sceneIn_4.png,258,4.0,1.8821491999988211,,,058,11,2025-03-07_15h58.00.720,Surprise recog test,2023.1.3,60.05392843113156,
258,0,258,0,,,,,,,,,,,,,,,,,,,,,,,,,,,,,,,,,,9375.584422400003,,9373.720259500013,9373.720259500013,9373.720259500013,9373.720259500013,,new_sceneOut_15.png,259,3.0,1.8600365999882342,,,058,11,2025-03-07_15h58.00.720,Surprise recog test,2023.1.3,60.05392843113156,
259,0,259,0,,,,,,,,,,,,,,,,,,,,,,,,,,,,,,,,,,9379.169499400014,,9376.622881400006,9376.622881400006,9376.622881400006,9376.622881400006,,new_sceneIn_41.png,260,3.0,2.550661899993429,,,058,11,2025-03-07_15h58.00.720,Surprise recog test,2023.1.3,60.05392843113156,
260,0,260,0,,,,,,,,,,,,,,,,,,,,,,,,,,,,,,,,,,9382.106829600001,,9380.203412300005,9380.203412300005,9380.203412300005,9380.203412300005,,old_fruit_47.png,261,1.0,1.90339990000939,,,058,11,2025-03-07_15h58.00.720,Surprise recog test,2023.1.3,60.05392843113156,
261,0,261,0,,,,,,,,,,,,,,,,,,,,,,,,,,,,,,,,,,9384.691399600008,,9383.137710500014,9383.137710500014,9383.137710500014,9383.137710500014,,old_sceneIn_39.png,262,1.0,1.5547434000036446,,,058,11,2025-03-07_15h58.00.720,Surprise recog test,2023.1.3,60.05392843113156,
262,0,262,0,,,,,,,,,,,,,,,,,,,,,,,,,,,,,,,,,,9388.74165950001,9389.76646910001,9385.7236501,9385.7236501,9385.7236501,9385.7236501,,new_stationery_14.png,263,3.0,3.0190506000071764,,,058,11,2025-03-07_15h58.00.720,Surprise recog test,2023.1.3,60.05392843113156,
263,0,263,0,,,,,,,,,,,,,,,,,,,,,,,,,,,,,,,,,,9391.381098100013,,9389.76646910001,9389.76646910001,9389.76646910001,9389.76646910001,,new_sceneOut_7.png,264,4.0,1.6179983999900287,,,058,11,2025-03-07_15h58.00.720,Surprise recog test,2023.1.3,60.05392843113156,
264,0,264,0,,,,,,,,,,,,,,,,,,,,,,,,,,,,,,,,,,9393.5068226,9394.537722000008,9392.401676600013,9392.401676600013,9392.401676600013,9392.401676600013,,old_sceneOut_45.png,265,4.0,1.1006051000003936,,,058,11,2025-03-07_15h58.00.720,Surprise recog test,2023.1.3,60.05392843113156,
265,0,265,0,,,,,,,,,,,,,,,,,,,,,,,,,,,,,,,,,,9396.057625400004,9397.074680500009,9394.537722000008,9394.537722000008,9394.537722000008,9394.537722000008,,new_fruit_36.png,266,3.0,1.52340930000355,,,058,11,2025-03-07_15h58.00.720,Surprise recog test,2023.1.3,60.05392843113156,
266,0,266,0,,,,,,,,,,,,,,,,,,,,,,,,,,,,,,,,,,9398.735389400012,,9397.074680500009,9397.074680500009,9397.074680500009,9397.074680500009,,old_sceneIn_44.png,267,4.0,1.658194600007846,,,058,11,2025-03-07_15h58.00.720,Surprise recog test,2023.1.3,60.05392843113156,
267,0,267,0,,,,,,,,,,,,,,,,,,,,,,,,,,,,,,,,,,9401.031735100012,9402.055882300003,9399.768589500003,9399.768589500003,9399.768589500003,9399.768589500003,,new_sceneIn_24.png,268,4.0,1.2630092999897897,,,058,11,2025-03-07_15h58.00.720,Surprise recog test,2023.1.3,60.05392843113156,
268,0,268,0,,,,,,,,,,,,,,,,,,,,,,,,,,,,,,,,,,9404.373817600004,,9402.055882300003,9402.055882300003,9402.055882300003,9402.055882300003,,new_sceneIn_26.png,269,4.0,2.3208729999896605,,,058,11,2025-03-07_15h58.00.720,Surprise recog test,2023.1.3,60.05392843113156,
269,0,269,0,,,,,,,,,,,,,,,,,,,,,,,,,,,,,,,,,,9407.008077000006,9408.027655900005,9405.396617800012,9405.396617800012,9405.396617800012,9405.396617800012,,new_sceneOut_13.png,270,5.0,1.6081440999987535,,,058,11,2025-03-07_15h58.00.720,Surprise recog test,2023.1.3,60.05392843113156,
270,0,270,0,,,,,,,,,,,,,,,,,,,,,,,,,,,,,,,,,,9409.649230400013,9410.681147400013,9408.027655900005,9408.027655900005,9408.027655900005,9408.027655900005,,new_sceneIn_39.png,271,4.0,1.622239400006947,,,058,11,2025-03-07_15h58.00.720,Surprise recog test,2023.1.3,60.05392843113156,
271,0,271,0,,,,,,,,,,,,,,,,,,,,,,,,,,,,,,,,,,9413.351697800012,9414.380638800008,9410.681147400013,9410.681147400013,9410.681147400013,9410.681147400013,,new_stationery_13.png,272,4.0,2.671136100005242,,,058,11,2025-03-07_15h58.00.720,Surprise recog test,2023.1.3,60.05392843113156,
272,0,272,0,,,,,,,,,,,,,,,,,,,,,,,,,,,,,,,,,,9416.03634430001,9417.0576325,9414.380638800008,9414.380638800008,9414.380638800008,9414.380638800008,,new_sceneOut_39.png,273,4.0,1.6595398000063142,,,058,11,2025-03-07_15h58.00.720,Surprise recog test,2023.1.3,60.05392843113156,
273,0,273,0,,,,,,,,,,,,,,,,,,,,,,,,,,,,,,,,,,9418.935646500002,,9417.0576325,9417.0576325,9417.0576325,9417.0576325,,new_stationery_23.png,274,2.0,1.8762072000099579,,,058,11,2025-03-07_15h58.00.720,Surprise recog test,2023.1.3,60.05392843113156,
274,0,274,0,,,,,,,,,,,,,,,,,,,,,,,,,,,,,,,,,,9421.397791400013,9422.426007200003,9419.95963740001,9419.95963740001,9419.95963740001,9419.95963740001,,new_stationery_5.png,275,2.0,1.4355953999911435,,,058,11,2025-03-07_15h58.00.720,Surprise recog test,2023.1.3,60.05392843113156,
275,0,275,0,,,,,,,,,,,,,,,,,,,,,,,,,,,,,,,,,,9423.750783100011,9424.759074000001,9422.426007200003,9422.426007200003,9422.426007200003,9422.426007200003,,new_stationery_24.png,276,2.0,1.3281067999923835,,,058,11,2025-03-07_15h58.00.720,Surprise recog test,2023.1.3,60.05392843113156,
276,0,276,0,,,,,,,,,,,,,,,,,,,,,,,,,,,,,,,,,,9426.306295400005,9427.323817200013,9424.759074000001,9424.759074000001,9424.759074000001,9424.759074000001,,old_sceneIn_33.png,277,4.0,1.542352899996331,,,058,11,2025-03-07_15h58.00.720,Surprise recog test,2023.1.3,60.05392843113156,
277,0,277,0,,,,,,,,,,,,,,,,,,,,,,,,,,,,,,,,,,9428.412954300002,9429.446014000001,9427.323817200013,9427.323817200013,9427.323817200013,9427.323817200013,,new_sceneOut_46.png,278,4.0,1.0874708000046667,,,058,11,2025-03-07_15h58.00.720,Surprise recog test,2023.1.3,60.05392843113156,
278,0,278,0,,,,,,,,,,,,,,,,,,,,,,,,,,,,,,,,,,9431.110470300002,9432.130437800006,9429.446014000001,9429.446014000001,9429.446014000001,9429.446014000001,,old_fruit_46.png,279,3.0,1.6674399000039557,,,058,11,2025-03-07_15h58.00.720,Surprise recog test,2023.1.3,60.05392843113156,
279,0,279,0,,,,,,,,,,,,,,,,,,,,,,,,,,,,,,,,,,9434.164153500009,9435.1776503,9432.130437800006,9432.130437800006,9432.130437800006,9432.130437800006,,old_sceneIn_30.png,280,3.0,2.0324315000034403,,,058,11,2025-03-07_15h58.00.720,Surprise recog test,2023.1.3,60.05392843113156,
280,0,280,0,,,,,,,,,,,,,,,,,,,,,,,,,,,,,,,,,,9436.855893300002,9437.884176800013,9435.1776503,9435.1776503,9435.1776503,9435.1776503,,old_fruit_45.png,281,2.0,1.6779717000026722,,,058,11,2025-03-07_15h58.00.720,Surprise recog test,2023.1.3,60.05392843113156,
281,0,281,0,,,,,,,,,,,,,,,,,,,,,,,,,,,,,,,,,,9439.562391700005,9440.589298200008,9437.884176800013,9437.884176800013,9437.884176800013,9437.884176800013,,new_fruit_8.png,282,3.0,1.6802318999980344,,,058,11,2025-03-07_15h58.00.720,Surprise recog test,2023.1.3,60.05392843113156,
282,0,282,0,,,,,,,,,,,,,,,,,,,,,,,,,,,,,,,,,,9444.364707400004,9445.391553700014,9440.589298200008,9440.589298200008,9440.589298200008,9440.589298200008,,new_sceneOut_34.png,283,4.0,3.7787469000031706,,,058,11,2025-03-07_15h58.00.720,Surprise recog test,2023.1.3,60.05392843113156,
283,0,283,0,,,,,,,,,,,,,,,,,,,,,,,,,,,,,,,,,,9447.223638100011,9448.231979600008,9445.391553700014,9445.391553700014,9445.391553700014,9445.391553700014,,new_stationery_20.png,284,4.0,1.8286932999908458,,,058,11,2025-03-07_15h58.00.720,Surprise recog test,2023.1.3,60.05392843113156,
284,0,284,0,,,,,,,,,,,,,,,,,,,,,,,,,,,,,,,,,,9449.696247300002,,9448.231979600008,9448.231979600008,9448.231979600008,9448.231979600008,,old_sceneIn_1.png,285,4.0,1.4581116000044858,,,058,11,2025-03-07_15h58.00.720,Surprise recog test,2023.1.3,60.05392843113156,
285,0,285,0,,,,,,,,,,,,,,,,,,,,,,,,,,,,,,,,,,9451.631655500008,,9450.725603800005,9450.725603800005,9450.725603800005,9450.725603800005,,new_sceneIn_31.png,286,4.0,0.907683099998394,,,058,11,2025-03-07_15h58.00.720,Surprise recog test,2023.1.3,60.05392843113156,
286,0,286,0,,,,,,,,,,,,,,,,,,,,,,,,,,,,,,,,,,9454.104571300006,9455.117374700014,9452.651778200001,9452.651778200001,9452.651778200001,9452.651778200001,,old_sceneIn_28.png,287,3.0,1.4458213000034448,,,058,11,2025-03-07_15h58.00.720,Surprise recog test,2023.1.3,60.05392843113156,
287,0,287,0,,,,,,,,,,,,,,,,,,,,,,,,,,,,,,,,,,9456.40024470001,,9455.117374700014,9455.117374700014,9455.117374700014,9455.117374700014,,new_fruit_44.png,288,3.0,1.2771037000056822,,,058,11,2025-03-07_15h58.00.720,Surprise recog test,2023.1.3,60.05392843113156,
288,0,288,0,,,,,,,,,,,,,,,,,,,,,,,,,,,,,,,,,,9460.537566600004,,9457.435167100004,9457.435167100004,9457.435167100004,9457.435167100004,,old_sceneIn_6.png,289,5.0,3.104055399991921,,,058,11,2025-03-07_15h58.00.720,Surprise recog test,2023.1.3,60.05392843113156,
289,0,289,0,,,,,,,,,,,,,,,,,,,,,,,,,,,,,,,,,,9463.693675200004,9464.718964300002,9461.570318500002,9461.570318500002,9461.570318500002,9461.570318500002,,old_stationery_34.png,290,3.0,2.124727000002167,,,058,11,2025-03-07_15h58.00.720,Surprise recog test,2023.1.3,60.05392843113156,
290,0,290,0,,,,,,,,,,,,,,,,,,,,,,,,,,,,,,,,,,9466.356316900012,9467.378011500012,9464.718964300002,9464.718964300002,9464.718964300002,9464.718964300002,,new_stationery_11.png,291,4.0,1.6346329000080004,,,058,11,2025-03-07_15h58.00.720,Surprise recog test,2023.1.3,60.05392843113156,
291,0,291,0,,,,,,,,,,,,,,,,,,,,,,,,,,,,,,,,,,9468.682580700013,9469.707411900003,9467.378011500012,9467.378011500012,9467.378011500012,9467.378011500012,,new_stationery_6.png,292,4.0,1.3052939000044717,,,058,11,2025-03-07_15h58.00.720,Surprise recog test,2023.1.3,60.05392843113156,
292,0,292,0,,,,,,,,,,,,,,,,,,,,,,,,,,,,,,,,,,9470.816491000005,9471.839270200013,9469.707411900003,9469.707411900003,9469.707411900003,9469.707411900003,,old_fruit_27.png,293,3.0,1.110857899999246,,,058,11,2025-03-07_15h58.00.720,Surprise recog test,2023.1.3,60.05392843113156,
293,0,293,0,,,,,,,,,,,,,,,,,,,,,,,,,,,,,,,,,,9473.513606000008,9474.534645800013,9471.839270200013,9471.839270200013,9471.839270200013,9471.839270200013,,new_stationery_4.png,294,4.0,1.672814700010349,,,058,11,2025-03-07_15h58.00.720,Surprise recog test,2023.1.3,60.05392843113156,
294,0,294,0,,,,,,,,,,,,,,,,,,,,,,,,,,,,,,,,,,9477.434020600005,,9474.534645800013,9474.534645800013,9474.534645800013,9474.534645800013,,old_sceneOut_13.png,295,4.0,2.901652300002752,,,058,11,2025-03-07_15h58.00.720,Surprise recog test,2023.1.3,60.05392843113156,
295,0,295,0,,,,,,,,,,,,,,,,,,,,,,,,,,,,,,,,,,9479.793507200011,9480.819652100006,9478.469985400006,9478.469985400006,9478.469985400006,9478.469985400006,,old_sceneIn_10.png,296,3.0,1.3244221999921137,,,058,11,2025-03-07_15h58.00.720,Surprise recog test,2023.1.3,60.05392843113156,
296,0,296,0,,,,,,,,,,,,,,,,,,,,,,,,,,,,,,,,,,9481.992749900004,9483.01143540001,9480.819652100006,9480.819652100006,9480.819652100006,9480.819652100006,,new_stationery_35.png,297,1.0,1.1728206999978283,,,058,11,2025-03-07_15h58.00.720,Surprise recog test,2023.1.3,60.05392843113156,
297,0,297,0,,,,,,,,,,,,,,,,,,,,,,,,,,,,,,,,,,9485.00803540001,,9483.01143540001,9483.01143540001,9483.01143540001,9483.01143540001,,new_sceneOut_27.png,298,4.0,1.991605300005176,,,058,11,2025-03-07_15h58.00.720,Surprise recog test,2023.1.3,60.05392843113156,
298,0,298,0,,,,,,,,,,,,,,,,,,,,,,,,,,,,,,,,,,9487.991559600006,9489.011566700006,9486.044503600002,9486.044503600002,9486.044503600002,9486.044503600002,,new_fruit_49.png,299,3.0,1.9498046999942744,,,058,11,2025-03-07_15h58.00.720,Surprise recog test,2023.1.3,60.05392843113156,
299,0,299,0,,,,,,,,,,,,,,,,,,,,,,,,,,,,,,,,,,9490.153046900014,9491.178659900004,9489.011566700006,9489.011566700006,9489.011566700006,9489.011566700006,,new_fruit_22.png,300,3.0,1.1437550999980886,,,058,11,2025-03-07_15h58.00.720,Surprise recog test,2023.1.3,60.05392843113156,
300,0,300,0,,,,,,,,,,,,,,,,,,,,,,,,,,,,,,,,,,9493.5106065,9494.532237300009,9491.178659900004,9491.178659900004,9491.178659900004,9491.178659900004,,new_stationery_31.png,301,4.0,2.3338261999888346,,,058,11,2025-03-07_15h58.00.720,Surprise recog test,2023.1.3,60.05392843113156,
301,0,301,0,,,,,,,,,,,,,,,,,,,,,,,,,,,,,,,,,,9496.135171300004,,9494.532237300009,9494.532237300009,9494.532237300009,9494.532237300009,,old_sceneIn_50.png,302,3.0,1.6015885999950115,,,058,11,2025-03-07_15h58.00.720,Surprise recog test,2023.1.3,60.05392843113156,
302,0,302,0,,,,,,,,,,,,,,,,,,,,,,,,,,,,,,,,,,9498.116009800011,9499.1396408,9497.162508700014,9497.162508700014,9497.162508700014,9497.162508700014,,new_fruit_23.png,303,3.0,0.9503393000049982,,,058,11,2025-03-07_15h58.00.720,Surprise recog test,2023.1.3,60.05392843113156,
303,0,303,0,,,,,,,,,,,,,,,,,,,,,,,,,,,,,,,,,,9500.207811700006,9501.244775000014,9499.1396408,9499.1396408,9499.1396408,9499.1396408,,old_fruit_35.png,304,3.0,1.0685748999967473,,,058,11,2025-03-07_15h58.00.720,Surprise recog test,2023.1.3,60.05392843113156,
304,0,304,0,,,,,,,,,,,,,,,,,,,,,,,,,,,,,,,,,,9503.734629900006,9504.7573443,9501.244775000014,9501.244775000014,9501.244775000014,9501.244775000014,,new_fruit_10.png,305,3.0,2.495862700001453,,,058,11,2025-03-07_15h58.00.720,Surprise recog test,2023.1.3,60.05392843113156,
305,0,305,0,,,,,,,,,,,,,,,,,,,,,,,,,,,,,,,,,,9507.933939500013,9508.960465700002,9504.7573443,9504.7573443,9504.7573443,9504.7573443,,new_fruit_42.png,306,4.0,3.1774503999913577,,,058,11,2025-03-07_15h58.00.720,Surprise recog test,2023.1.3,60.05392843113156,
306,0,306,0,,,,,,,,,,,,,,,,,,,,,,,,,,,,,,,,,,9510.909834300008,9511.918377600014,9508.960465700002,9508.960465700002,9508.960465700002,9508.960465700002,,new_stationery_46.png,307,4.0,1.9513408999919193,,,058,11,2025-03-07_15h58.00.720,Surprise recog test,2023.1.3,60.05392843113156,
307,0,307,0,,,,,,,,,,,,,,,,,,,,,,,,,,,,,,,,,,9513.178800300011,9514.193196200009,9511.918377600014,9511.918377600014,9511.918377600014,9511.918377600014,,old_sceneIn_12.png,308,4.0,1.2525471999979345,,,058,11,2025-03-07_15h58.00.720,Surprise recog test,2023.1.3,60.05392843113156,
308,0,308,0,,,,,,,,,,,,,,,,,,,,,,,,,,,,,,,,,,9516.198936900008,9517.2192374,9514.193196200009,9514.193196200009,9514.193196200009,9514.193196200009,,new_fruit_1.png,309,4.0,2.0022062999923946,,,058,11,2025-03-07_15h58.00.720,Surprise recog test,2023.1.3,60.05392843113156,
309,0,309,0,,,,,,,,,,,,,,,,,,,,,,,,,,,,,,,,,,9519.72784800001,9520.7547758,9517.2192374,9517.2192374,9517.2192374,9517.2192374,,old_stationery_17.png,310,3.0,2.5117411999963224,,,058,11,2025-03-07_15h58.00.720,Surprise recog test,2023.1.3,60.05392843113156,
310,0,310,0,,,,,,,,,,,,,,,,,,,,,,,,,,,,,,,,,,9522.128598500014,9523.155537000013,9520.7547758,9520.7547758,9520.7547758,9520.7547758,,old_sceneOut_21.png,311,4.0,1.375710499996785,,,058,11,2025-03-07_15h58.00.720,Surprise recog test,2023.1.3,60.05392843113156,
311,0,311,0,,,,,,,,,,,,,,,,,,,,,,,,,,,,,,,,,,9525.934827400008,9526.959201100006,9523.155537000013,9523.155537000013,9523.155537000013,9523.155537000013,,old_fruit_30.png,312,2.0,2.7811672999960138,,,058,11,2025-03-07_15h58.00.720,Surprise recog test,2023.1.3,60.05392843113156,
312,0,312,0,,,,,,,,,,,,,,,,,,,,,,,,,,,,,,,,,,9528.8535845,9529.8774482,9526.959201100006,9526.959201100006,9526.959201100006,9526.959201100006,,old_sceneOut_37.png,313,4.0,1.8959044000075664,,,058,11,2025-03-07_15h58.00.720,Surprise recog test,2023.1.3,60.05392843113156,
313,0,313,0,,,,,,,,,,,,,,,,,,,,,,,,,,,,,,,,,,9531.484098300003,9532.513187500008,9529.8774482,9529.8774482,9529.8774482,9529.8774482,,new_sceneIn_28.png,314,3.0,1.6061972999887075,,,058,11,2025-03-07_15h58.00.720,Surprise recog test,2023.1.3,60.05392843113156,
314,0,314,0,,,,,,,,,,,,,,,,,,,,,,,,,,,,,,,,,,9533.894851400008,9534.915531200008,9532.513187500008,9532.513187500008,9532.513187500008,9532.513187500008,,new_fruit_34.png,315,3.0,1.3788579999963986,,,058,11,2025-03-07_15h58.00.720,Surprise recog test,2023.1.3,60.05392843113156,
315,0,315,0,,,,,,,,,,,,,,,,,,,,,,,,,,,,,,,,,,9536.6274787,9537.650702700004,9534.915531200008,9534.915531200008,9534.915531200008,9534.915531200008,,old_stationery_11.png,316,1.0,1.712980800002697,,,058,11,2025-03-07_15h58.00.720,Surprise recog test,2023.1.3,60.05392843113156,
316,0,316,0,,,,,,,,,,,,,,,,,,,,,,,,,,,,,,,,,,9539.103680900007,,9537.650702700004,9537.650702700004,9537.650702700004,9537.650702700004,,old_sceneIn_18.png,317,4.0,1.4551274000114063,,,058,11,2025-03-07_15h58.00.720,Surprise recog test,2023.1.3,60.05392843113156,
317,0,317,0,,,,,,,,,,,,,,,,,,,,,,,,,,,,,,,,,,9541.568079900011,9542.593017900013,9540.13674880001,9540.13674880001,9540.13674880001,9540.13674880001,,old_stationery_39.png,318,1.0,1.4337290999974357,,,058,11,2025-03-07_15h58.00.720,Surprise recog test,2023.1.3,60.05392843113156,
318,0,318,0,,,,,,,,,,,,,,,,,,,,,,,,,,,,,,,,,,9543.688812800014,9544.707830700005,9542.593017900013,9542.593017900013,9542.593017900013,9542.593017900013,,new_stationery_17.png,319,1.0,1.0979962999990676,,,058,11,2025-03-07_15h58.00.720,Surprise recog test,2023.1.3,60.05392843113156,
319,0,319,0,,,,,,,,,,,,,,,,,,,,,,,,,,,,,,,,,,9546.61358830001,9547.634839400009,9544.707830700005,9544.707830700005,9544.707830700005,9544.707830700005,,old_sceneIn_31.png,320,3.0,1.9066065999941202,,,058,11,2025-03-07_15h58.00.720,Surprise recog test,2023.1.3,60.05392843113156,
320,0,320,0,,,,,,,,,,,,,,,,,,,,,,,,,,,,,,,,,,9550.226049600009,9551.235694400006,9547.634839400009,9547.634839400009,9547.634839400009,9547.634839400009,,new_stationery_2.png,321,3.0,2.5862022999936016,,,058,11,2025-03-07_15h58.00.720,Surprise recog test,2023.1.3,60.05392843113156,
321,0,321,0,,,,,,,,,,,,,,,,,,,,,,,,,,,,,,,,,,9553.014039000002,,9551.235694400006,9551.235694400006,9551.235694400006,9551.235694400006,,new_sceneIn_37.png,322,2.0,1.7731498000066495,,,058,11,2025-03-07_15h58.00.720,Surprise recog test,2023.1.3,60.05392843113156,
322,0,322,0,,,,,,,,,,,,,,,,,,,,,,,,,,,,,,,,,,9556.564054700008,9557.590117900007,9554.047496700005,9554.047496700005,9554.047496700005,9554.047496700005,,new_sceneIn_30.png,323,4.0,2.5182637000107206,,,058,11,2025-03-07_15h58.00.720,Surprise recog test,2023.1.3,60.05392843113156,
323,0,323,0,,,,,,,,,,,,,,,,,,,,,,,,,,,,,,,,,,9558.900675700002,9559.91610870001,9557.590117900007,9557.590117900007,9557.590117900007,9557.590117900007,,new_fruit_4.png,324,3.0,1.3106544000038411,,,058,11,2025-03-07_15h58.00.720,Surprise recog test,2023.1.3,60.05392843113156,
324,0,324,0,,,,,,,,,,,,,,,,,,,,,,,,,,,,,,,,,,9561.846680500006,9562.861375600012,9559.91610870001,9559.91610870001,9559.91610870001,9559.91610870001,,new_sceneOut_49.png,325,4.0,1.9333730000071228,,,058,11,2025-03-07_15h58.00.720,Surprise recog test,2023.1.3,60.05392843113156,
325,0,325,0,,,,,,,,,,,,,,,,,,,,,,,,,,,,,,,,,,9565.131368700007,9566.15557870001,9562.861375600012,9562.861375600012,9562.861375600012,9562.861375600012,,old_sceneOut_9.png,326,3.0,2.2661502999981167,,,058,11,2025-03-07_15h58.00.720,Surprise recog test,2023.1.3,60.05392843113156,
326,0,326,0,,,,,,,,,,,,,,,,,,,,,,,,,,,,,,,,,,9567.407065100007,9568.431014800008,9566.15557870001,9566.15557870001,9566.15557870001,9566.15557870001,,new_sceneIn_16.png,327,4.0,1.2523109999892768,,,058,11,2025-03-07_15h58.00.720,Surprise recog test,2023.1.3,60.05392843113156,
327,0,327,0,,,,,,,,,,,,,,,,,,,,,,,,,,,,,,,,,,9571.768795100012,9572.799383800011,9568.431014800008,9568.431014800008,9568.431014800008,9568.431014800008,,new_fruit_35.png,328,3.0,3.3382592999987537,,,058,11,2025-03-07_15h58.00.720,Surprise recog test,2023.1.3,60.05392843113156,
328,0,328,0,,,,,,,,,,,,,,,,,,,,,,,,,,,,,,,,,,9573.967755100006,9574.987452500005,9572.799383800011,9572.799383800011,9572.799383800011,9572.799383800011,,new_sceneOut_9.png,329,4.0,1.1696870000014314,,,058,11,2025-03-07_15h58.00.720,Surprise recog test,2023.1.3,60.05392843113156,
329,0,329,0,,,,,,,,,,,,,,,,,,,,,,,,,,,,,,,,,,9576.047456300003,9577.068209300007,9574.987452500005,9574.987452500005,9574.987452500005,9574.987452500005,,new_fruit_33.png,330,3.0,1.0553967000014381,,,058,11,2025-03-07_15h58.00.720,Surprise recog test,2023.1.3,60.05392843113156,
330,0,330,0,,,,,,,,,,,,,,,,,,,,,,,,,,,,,,,,,,9578.449668000001,9579.473406100005,9577.068209300007,9577.068209300007,9577.068209300007,9577.068209300007,,old_stationery_33.png,331,1.0,1.3786528000055114,,,058,11,2025-03-07_15h58.00.720,Surprise recog test,2023.1.3,60.05392843113156,
331,0,331,0,,,,,,,,,,,,,,,,,,,,,,,,,,,,,,,,,,9581.627734500013,9582.653727800003,9579.473406100005,9579.473406100005,9579.473406100005,9579.473406100005,,new_sceneIn_22.png,332,4.0,2.156367000003229,,,058,11,2025-03-07_15h58.00.720,Surprise recog test,2023.1.3,60.05392843113156,
332,0,332,0,,,,,,,,,,,,,,,,,,,,,,,,,,,,,,,,,,9584.289882700003,,9582.653727800003,9582.653727800003,9582.653727800003,9582.653727800003,,new_sceneIn_33.png,333,4.0,1.636632500012638,,,058,11,2025-03-07_15h58.00.720,Surprise recog test,2023.1.3,60.05392843113156,
333,0,333,0,,,,,,,,,,,,,,,,,,,,,,,,,,,,,,,,,,9586.3558969,9587.375999200012,9585.323386300006,9585.323386300006,9585.323386300006,9585.323386300006,,old_fruit_21.png,334,3.0,1.0319432000105735,,,058,11,2025-03-07_15h58.00.720,Surprise recog test,2023.1.3,60.05392843113156,
334,0,334,0,,,,,,,,,,,,,,,,,,,,,,,,,,,,,,,,,,9589.420778900007,9590.433318800002,9587.375999200012,9587.375999200012,9587.375999200012,9587.375999200012,,old_stationery_22.png,335,2.0,2.0471593999973265,,,058,11,2025-03-07_15h58.00.720,Surprise recog test,2023.1.3,60.05392843113156,
335,0,335,0,,,,,,,,,,,,,,,,,,,,,,,,,,,,,,,,,,9592.866294100008,9593.891099400003,9590.433318800002,9590.433318800002,9590.433318800002,9590.433318800002,,new_sceneIn_11.png,336,3.0,2.428937600008794,,,058,11,2025-03-07_15h58.00.720,Surprise recog test,2023.1.3,60.05392843113156,
336,0,336,0,,,,,,,,,,,,,,,,,,,,,,,,,,,,,,,,,,9595.581627000007,9596.5874587,9593.891099400003,9593.891099400003,9593.891099400003,9593.891099400003,,new_fruit_14.png,337,2.0,1.6914415000064764,,,058,11,2025-03-07_15h58.00.720,Surprise recog test,2023.1.3,60.05392843113156,
337,0,337,0,,,,,,,,,,,,,,,,,,,,,,,,,,,,,,,,,,9597.841814000014,9598.857633000007,9596.5874587,9596.5874587,9596.5874587,9596.5874587,,new_sceneOut_18.png,338,4.0,1.2494771999918157,,,058,11,2025-03-07_15h58.00.720,Surprise recog test,2023.1.3,60.05392843113156,
338,0,338,0,,,,,,,,,,,,,,,,,,,,,,,,,,,,,,,,,,9600.257250500013,9601.288848200013,9598.857633000007,9598.857633000007,9598.857633000007,9598.857633000007,,new_fruit_43.png,339,3.0,1.395794099997147,,,058,11,2025-03-07_15h58.00.720,Surprise recog test,2023.1.3,60.05392843113156,
339,0,339,0,,,,,,,,,,,,,,,,,,,,,,,,,,,,,,,,,,9602.868865200013,9603.889470900001,9601.288848200013,9601.288848200013,9601.288848200013,9601.288848200013,,old_stationery_20.png,340,1.0,1.5820893999916734,,,058,11,2025-03-07_15h58.00.720,Surprise recog test,2023.1.3,60.05392843113156,
340,0,340,0,,,,,,,,,,,,,,,,,,,,,,,,,,,,,,,,,,9605.206597100012,9606.216616200007,9603.889470900001,9603.889470900001,9603.889470900001,9603.889470900001,,new_fruit_7.png,341,3.0,1.3200535000069067,,,058,11,2025-03-07_15h58.00.720,Surprise recog test,2023.1.3,60.05392843113156,
341,0,341,0,,,,,,,,,,,,,,,,,,,,,,,,,,,,,,,,,,9608.888386900013,9609.911087900007,9606.216616200007,9606.216616200007,9606.216616200007,9606.216616200007,,new_sceneIn_23.png,342,3.0,2.6714781999908155,,,058,11,2025-03-07_15h58.00.720,Surprise recog test,2023.1.3,60.05392843113156,
342,0,342,0,,,,,,,,,,,,,,,,,,,,,,,,,,,,,,,,,,9611.026670300009,9612.047055800009,9609.911087900007,9609.911087900007,9609.911087900007,9609.911087900007,,new_stationery_18.png,343,1.0,1.1104637999960687,,,058,11,2025-03-07_15h58.00.720,Surprise recog test,2023.1.3,60.05392843113156,
343,0,343,0,,,,,,,,,,,,,,,,,,,,,,,,,,,,,,,,,,9613.51909870001,9614.54774390001,9612.047055800009,9612.047055800009,9612.047055800009,9612.047055800009,,old_sceneOut_33.png,344,4.0,1.4743200999946566,,,058,11,2025-03-07_15h58.00.720,Surprise recog test,2023.1.3,60.05392843113156,
344,0,344,0,,,,,,,,,,,,,,,,,,,,,,,,,,,,,,,,,,9616.223406300007,9617.250244800001,9614.54774390001,9614.54774390001,9614.54774390001,9614.54774390001,,old_stationery_6.png,345,3.0,1.6767912000068463,,,058,11,2025-03-07_15h58.00.720,Surprise recog test,2023.1.3,60.05392843113156,
345,0,345,0,,,,,,,,,,,,,,,,,,,,,,,,,,,,,,,,,,9618.337612600008,9619.367514700003,9617.250244800001,9617.250244800001,9617.250244800001,9617.250244800001,,old_sceneOut_25.png,346,4.0,1.088015200002701,,,058,11,2025-03-07_15h58.00.720,Surprise recog test,2023.1.3,60.05392843113156,
346,0,346,0,,,,,,,,,,,,,,,,,,,,,,,,,,,,,,,,,,9620.521215,,9619.367514700003,9619.367514700003,9619.367514700003,9619.367514700003,,old_sceneOut_43.png,347,4.0,1.1557070999988355,,,058,11,2025-03-07_15h58.00.720,Surprise recog test,2023.1.3,60.05392843113156,
347,0,347,0,,,,,,,,,,,,,,,,,,,,,,,,,,,,,,,,,,9622.692754500007,9623.719784700006,9621.539027200008,9621.539027200008,9621.539027200008,9621.539027200008,,old_stationery_16.png,348,1.0,1.1496827999944799,,,058,11,2025-03-07_15h58.00.720,Surprise recog test,2023.1.3,60.05392843113156,
348,0,348,0,,,,,,,,,,,,,,,,,,,,,,,,,,,,,,,,,,9625.168652500011,9626.192748200003,9623.719784700006,9623.719784700006,9623.719784700006,9623.719784700006,,new_sceneIn_4.png,349,3.0,1.4481349999987287,,,058,11,2025-03-07_15h58.00.720,Surprise recog test,2023.1.3,60.05392843113156,
349,0,349,0,,,,,,,,,,,,,,,,,,,,,,,,,,,,,,,,,,9627.248393000002,9628.265360300007,9626.192748200003,9626.192748200003,9626.192748200003,9626.192748200003,,new_fruit_5.png,350,3.0,1.0565137999947183,,,058,11,2025-03-07_15h58.00.720,Surprise recog test,2023.1.3,60.05392843113156,
350,0,350,0,,,,,,,,,,,,,,,,,,,,,,,,,,,,,,,,,,9629.322678600001,9630.333599200007,9628.265360300007,9628.265360300007,9628.265360300007,9628.265360300007,,new_sceneIn_50.png,351,3.0,1.0530644000100438,,,058,11,2025-03-07_15h58.00.720,Surprise recog test,2023.1.3,60.05392843113156,
351,0,351,0,,,,,,,,,,,,,,,,,,,,,,,,,,,,,,,,,,9631.593886600007,9632.599976200014,9630.333599200007,9630.333599200007,9630.333599200007,9630.333599200007,,old_sceneOut_23.png,352,3.0,1.2550405000074534,,,058,11,2025-03-07_15h58.00.720,Surprise recog test,2023.1.3,60.05392843113156,
352,0,352,0,,,,,,,,,,,,,,,,,,,,,,,,,,,,,,,,,,9633.7391528,9634.7644765,9632.599976200014,9632.599976200014,9632.599976200014,9632.599976200014,,new_fruit_2.png,353,3.0,1.1373920000041835,,,058,11,2025-03-07_15h58.00.720,Surprise recog test,2023.1.3,60.05392843113156,
353,0,353,0,,,,,,,,,,,,,,,,,,,,,,,,,,,,,,,,,,9636.384713800013,,9634.7644765,9634.7644765,9634.7644765,9634.7644765,,old_stationery_42.png,354,1.0,1.625059499987401,,,058,11,2025-03-07_15h58.00.720,Surprise recog test,2023.1.3,60.05392843113156,
354,0,354,0,,,,,,,,,,,,,,,,,,,,,,,,,,,,,,,,,,9639.87187850001,9640.905340900004,9637.405445700002,9637.405445700002,9637.405445700002,9637.405445700002,,old_fruit_49.png,355,2.0,2.4623335000069346,,,058,11,2025-03-07_15h58.00.720,Surprise recog test,2023.1.3,60.05392843113156,
355,0,355,0,,,,,,,,,,,,,,,,,,,,,,,,,,,,,,,,,,9642.453884400005,9643.479003400003,9640.905340900004,9640.905340900004,9640.905340900004,9640.905340900004,,new_sceneIn_27.png,356,3.0,1.5489240000024438,,,058,11,2025-03-07_15h58.00.720,Surprise recog test,2023.1.3,60.05392843113156,
356,0,356,0,,,,,,,,,,,,,,,,,,,,,,,,,,,,,,,,,,9644.537926300007,9645.560257900011,9643.479003400003,9643.479003400003,9643.479003400003,9643.479003400003,,old_fruit_19.png,357,3.0,1.0553041999955894,,,058,11,2025-03-07_15h58.00.720,Surprise recog test,2023.1.3,60.05392843113156,
