trial_loop.thisRepN,trial_loop.thisTrialN,trial_loop.thisN,trial_loop.thisIndex,VAS_slider.started,VAS_text.started,VAS_notstressed_text.started,VAS_stressed_text.started,continue_input.started,continue_text.started,label0.started,label10.started,label20.started,label30.started,label40.started,label50.started,label60.started,label70.started,label80.started,label90.started,label100.started,VAS_slider.response,VAS_slider.rt,VAS_slider.history,Answer_VAS,continue_input.keys,instruction_text.started,continue_text_2.started,continue_input_2.started,continue_input_2.keys,continue_input_2.rt,continue_input_2.duration,example_text.started,example_slider_2.started,example_image.started,example_slider_2.response,example_slider_2.rt,fixcross.started,fixcross.stopped,front_square.started,stim_images.started,trial_inst_images.started,slider_images.started,thisImg,trial_count,slider_images.response,slider_images.rt,slider_images.stopped,front_square.stopped,stim_images.stopped,trial_inst_images.stopped,outro.started,participant,condition,date,expName,psychopyVersion,frameRate,
,,,,20.895212800009176,20.895212800009176,20.895212800009176,20.895212800009176,20.895212800009176,20.895212800009176,20.895212800009176,20.895212800009176,20.895212800009176,20.895212800009176,20.895212800009176,20.895212800009176,20.895212800009176,20.895212800009176,20.895212800009176,20.895212800009176,20.895212800009176,1.8388888888888888,15.944223100086674,"[(1.8388888888888888, 15.944223100086674)]",1.8388888888888888,None,,,,,,,,,,,,,,,,,,,,,,,,,,,059,11,2025-03-20_16h36.59.544,Surprise recog test,2023.1.3,59.92153879538237,
,,,,,,,,,,,,,,,,,,,,,,,,,,36.87543320003897,36.87543320003897,36.87543320003897,space,20.789487400092185,None,,,,,,,,,,,,,,,,,,,,,059,11,2025-03-20_16h36.59.544,Surprise recog test,2023.1.3,59.92153879538237,
0,0,0,0,,,,,,,,,,,,,,,,,,,,,,,,,,,,,57.813671599840745,57.813671599840745,57.813671599840745,1.0,22.244099400006235,84.32203199993819,85.33174419985153,80.98967309994623,80.98967309994623,80.98967309994623,80.98967309994623,old_sceneOut_18.png,1,1.0,3.336890900041908,,,,,,059,11,2025-03-20_16h36.59.544,Surprise recog test,2023.1.3,59.92153879538237,
1,0,1,0,,,,,,,,,,,,,,,,,,,,,,,,,,,,,,,,,,87.47487449995242,88.4924065999221,85.33174419985153,85.33174419985153,85.33174419985153,85.33174419985153,new_stationery_24.png,2,5.0,2.138736200053245,,,,,,059,11,2025-03-20_16h36.59.544,Surprise recog test,2023.1.3,59.92153879538237,
2,0,2,0,,,,,,,,,,,,,,,,,,,,,,,,,,,,,,,,,,90.72091279993765,91.7360633998178,88.4924065999221,88.4924065999221,88.4924065999221,88.4924065999221,new_stationery_14.png,3,3.0,2.229299500118941,,,,,,059,11,2025-03-20_16h36.59.544,Surprise recog test,2023.1.3,59.92153879538237,
3,0,3,0,,,,,,,,,,,,,,,,,,,,,,,,,,,,,,,,,,94.48735099984333,95.51703819981776,91.7360633998178,91.7360633998178,91.7360633998178,91.7360633998178,new_sceneOut_23.png,4,4.0,2.747930300189182,,,,,,059,11,2025-03-20_16h36.59.544,Surprise recog test,2023.1.3,59.92153879538237,
4,0,4,0,,,,,,,,,,,,,,,,,,,,,,,,,,,,,,,,,,97.13976869988255,98.15617169998586,95.51703819981776,95.51703819981776,95.51703819981776,95.51703819981776,new_sceneIn_49.png,5,1.0,1.624232100090012,,,,,,059,11,2025-03-20_16h36.59.544,Surprise recog test,2023.1.3,59.92153879538237,
5,0,5,0,,,,,,,,,,,,,,,,,,,,,,,,,,,,,,,,,,100.35775379999541,101.3819164999295,98.15617169998586,98.15617169998586,98.15617169998586,98.15617169998586,old_sceneOut_37.png,6,4.0,2.1980333998799324,,,,,,059,11,2025-03-20_16h36.59.544,Surprise recog test,2023.1.3,59.92153879538237,
6,0,6,0,,,,,,,,,,,,,,,,,,,,,,,,,,,,,,,,,,102.75156469992362,103.76599169988185,101.3819164999295,101.3819164999295,101.3819164999295,101.3819164999295,old_sceneIn_25.png,7,1.0,1.365349399857223,,,,,,059,11,2025-03-20_16h36.59.544,Surprise recog test,2023.1.3,59.92153879538237,
7,0,7,0,,,,,,,,,,,,,,,,,,,,,,,,,,,,,,,,,,106.0477169000078,107.06610369984992,103.76599169988185,103.76599169988185,103.76599169988185,103.76599169988185,new_sceneIn_29.png,8,4.0,2.279309800127521,,,,,,059,11,2025-03-20_16h36.59.544,Surprise recog test,2023.1.3,59.92153879538237,
8,0,8,0,,,,,,,,,,,,,,,,,,,,,,,,,,,,,,,,,,109.18982089986093,110.20714890002273,107.06610369984992,107.06610369984992,107.06610369984992,107.06610369984992,new_stationery_27.png,9,4.0,2.1206311001442373,,,,,,059,11,2025-03-20_16h36.59.544,Surprise recog test,2023.1.3,59.92153879538237,
9,0,9,0,,,,,,,,,,,,,,,,,,,,,,,,,,,,,,,,,,111.94330689986236,112.95383949996904,110.20714890002273,110.20714890002273,110.20714890002273,110.20714890002273,old_stationery_39.png,10,2.0,1.7344791998621076,,,,,,059,11,2025-03-20_16h36.59.544,Surprise recog test,2023.1.3,59.92153879538237,
10,0,10,0,,,,,,,,,,,,,,,,,,,,,,,,,,,,,,,,,,114.88892879988998,115.90297409985214,112.95383949996904,112.95383949996904,112.95383949996904,112.95383949996904,old_sceneIn_7.png,11,5.0,1.9307021999265999,,,,,,059,11,2025-03-20_16h36.59.544,Surprise recog test,2023.1.3,59.92153879538237,
11,0,11,0,,,,,,,,,,,,,,,,,,,,,,,,,,,,,,,,,,117.80208359984681,118.80952159990557,115.90297409985214,115.90297409985214,115.90297409985214,115.90297409985214,new_sceneIn_1.png,12,4.0,1.8935738999862224,,,,,,059,11,2025-03-20_16h36.59.544,Surprise recog test,2023.1.3,59.92153879538237,
12,0,12,0,,,,,,,,,,,,,,,,,,,,,,,,,,,,,,,,,,119.99834389984608,121.01779820001684,118.80952159990557,118.80952159990557,118.80952159990557,118.80952159990557,old_fruit_28.png,13,1.0,1.1819549000356346,,,,,,059,11,2025-03-20_16h36.59.544,Surprise recog test,2023.1.3,59.92153879538237,
13,0,13,0,,,,,,,,,,,,,,,,,,,,,,,,,,,,,,,,,,122.35189549997449,123.37777259992436,121.01779820001684,121.01779820001684,121.01779820001684,121.01779820001684,new_sceneIn_45.png,14,1.0,1.33586460002698,,,,,,059,11,2025-03-20_16h36.59.544,Surprise recog test,2023.1.3,59.92153879538237,
14,0,14,0,,,,,,,,,,,,,,,,,,,,,,,,,,,,,,,,,,125.10124919982627,126.1153046998661,123.37777259992436,123.37777259992436,123.37777259992436,123.37777259992436,old_stationery_20.png,15,2.0,1.726941900094971,,,,,,059,11,2025-03-20_16h36.59.544,Surprise recog test,2023.1.3,59.92153879538237,
15,0,15,0,,,,,,,,,,,,,,,,,,,,,,,,,,,,,,,,,,128.2815347998403,129.301187899895,126.1153046998661,126.1153046998661,126.1153046998661,126.1153046998661,new_fruit_40.png,16,4.0,2.161046199966222,,,,,,059,11,2025-03-20_16h36.59.544,Surprise recog test,2023.1.3,59.92153879538237,
16,0,16,0,,,,,,,,,,,,,,,,,,,,,,,,,,,,,,,,,,130.66563829989173,,129.301187899895,129.301187899895,129.301187899895,129.301187899895,old_stationery_50.png,17,3.0,1.360298299929127,,,,,,059,11,2025-03-20_16h36.59.544,Surprise recog test,2023.1.3,59.92153879538237,
17,0,17,0,,,,,,,,,,,,,,,,,,,,,,,,,,,,,,,,,,134.5740212998353,135.59075780003332,131.69256310001947,131.69256310001947,131.69256310001947,131.69256310001947,old_fruit_40.png,18,1.0,2.88260590005666,,,,,,059,11,2025-03-20_16h36.59.544,Surprise recog test,2023.1.3,59.92153879538237,
18,0,18,0,,,,,,,,,,,,,,,,,,,,,,,,,,,,,,,,,,137.18701209989376,,135.59075780003332,135.59075780003332,135.59075780003332,135.59075780003332,old_sceneIn_22.png,19,1.0,1.5937353998888284,,,,,,059,11,2025-03-20_16h36.59.544,Surprise recog test,2023.1.3,59.92153879538237,
19,0,19,0,,,,,,,,,,,,,,,,,,,,,,,,,,,,,,,,,,140.08060059999116,141.10652989987284,138.20826959982514,138.20826959982514,138.20826959982514,138.20826959982514,old_sceneOut_19.png,20,1.0,1.8669114999938756,,,,,,059,11,2025-03-20_16h36.59.544,Surprise recog test,2023.1.3,59.92153879538237,
20,0,20,0,,,,,,,,,,,,,,,,,,,,,,,,,,,,,,,,,,143.14743339992128,144.1773991000373,141.10652989987284,141.10652989987284,141.10652989987284,141.10652989987284,new_sceneIn_26.png,21,4.0,2.040628100046888,,,,,,059,11,2025-03-20_16h36.59.544,Surprise recog test,2023.1.3,59.92153879538237,
21,0,21,0,,,,,,,,,,,,,,,,,,,,,,,,,,,,,,,,,,148.32625399995595,149.35684449994005,144.1773991000373,144.1773991000373,144.1773991000373,144.1773991000373,new_sceneOut_2.png,22,5.0,4.147561400197446,,,,,,059,11,2025-03-20_16h36.59.544,Surprise recog test,2023.1.3,59.92153879538237,
22,0,22,0,,,,,,,,,,,,,,,,,,,,,,,,,,,,,,,,,,151.0517956998665,152.08144639991224,149.35684449994005,149.35684449994005,149.35684449994005,149.35684449994005,new_sceneIn_43.png,23,5.0,1.6985899000428617,,,,,,059,11,2025-03-20_16h36.59.544,Surprise recog test,2023.1.3,59.92153879538237,
23,0,23,0,,,,,,,,,,,,,,,,,,,,,,,,,,,,,,,,,,154.38122049998492,155.38988649984822,152.08144639991224,152.08144639991224,152.08144639991224,152.08144639991224,old_fruit_33.png,24,3.0,2.296016699867323,,,,,,059,11,2025-03-20_16h36.59.544,Surprise recog test,2023.1.3,59.92153879538237,
24,0,24,0,,,,,,,,,,,,,,,,,,,,,,,,,,,,,,,,,,160.38920459989458,,155.38988649984822,155.38988649984822,155.38988649984822,155.38988649984822,old_sceneOut_3.png,25,None,None,160.37556209997274,,,,,059,11,2025-03-20_16h36.59.544,Surprise recog test,2023.1.3,59.92153879538237,
25,0,25,0,,,,,,,,,,,,,,,,,,,,,,,,,,,,,,,,,,163.392997500021,,161.42370989988558,161.42370989988558,161.42370989988558,161.42370989988558,old_sceneIn_48.png,26,4.0,1.9702602999750525,,,,,,059,11,2025-03-20_16h36.59.544,Surprise recog test,2023.1.3,59.92153879538237,
26,0,26,0,,,,,,,,,,,,,,,,,,,,,,,,,,,,,,,,,,165.9404684000183,166.94827950000763,164.42358980001882,164.42358980001882,164.42358980001882,164.42358980001882,new_stationery_29.png,27,4.0,1.5174538001883775,,,,,,059,11,2025-03-20_16h36.59.544,Surprise recog test,2023.1.3,59.92153879538237,
27,0,27,0,,,,,,,,,,,,,,,,,,,,,,,,,,,,,,,,,,168.49449860001914,169.50935820001177,166.94827950000763,166.94827950000763,166.94827950000763,166.94827950000763,new_stationery_23.png,28,2.0,1.541339399991557,,,,,,059,11,2025-03-20_16h36.59.544,Surprise recog test,2023.1.3,59.92153879538237,
28,0,28,0,,,,,,,,,,,,,,,,,,,,,,,,,,,,,,,,,,170.66361059993505,,169.50935820001177,169.50935820001177,169.50935820001177,169.50935820001177,new_sceneOut_25.png,29,2.0,1.1521805000957102,,,,,,059,11,2025-03-20_16h36.59.544,Surprise recog test,2023.1.3,59.92153879538237,
29,0,29,0,,,,,,,,,,,,,,,,,,,,,,,,,,,,,,,,,,173.89071389986202,174.91642859997228,171.68759999983013,171.68759999983013,171.68759999983013,171.68759999983013,new_fruit_26.png,30,1.0,2.2007317999377847,,,,,,059,11,2025-03-20_16h36.59.544,Surprise recog test,2023.1.3,59.92153879538237,
30,0,30,0,,,,,,,,,,,,,,,,,,,,,,,,,,,,,,,,,,177.2346618999727,178.2543277000077,174.91642859997228,174.91642859997228,174.91642859997228,174.91642859997228,old_fruit_13.png,31,4.0,2.320025200024247,,,,,,059,11,2025-03-20_16h36.59.544,Surprise recog test,2023.1.3,59.92153879538237,
31,0,31,0,,,,,,,,,,,,,,,,,,,,,,,,,,,,,,,,,,180.65864819986746,181.6870639999397,178.2543277000077,178.2543277000077,178.2543277000077,178.2543277000077,new_sceneOut_45.png,32,5.0,2.4059054001700133,,,,,,059,11,2025-03-20_16h36.59.544,Surprise recog test,2023.1.3,59.92153879538237,
32,0,32,0,,,,,,,,,,,,,,,,,,,,,,,,,,,,,,,,,,183.45619589998387,184.46350830001757,181.6870639999397,181.6870639999397,181.6870639999397,181.6870639999397,old_fruit_23.png,33,5.0,1.7705910000950098,,,,,,059,11,2025-03-20_16h36.59.544,Surprise recog test,2023.1.3,59.92153879538237,
33,0,33,0,,,,,,,,,,,,,,,,,,,,,,,,,,,,,,,,,,186.1458258999046,187.1785289000254,184.46350830001757,184.46350830001757,184.46350830001757,184.46350830001757,new_fruit_13.png,34,1.0,1.6773136998526752,,,,,,059,11,2025-03-20_16h36.59.544,Surprise recog test,2023.1.3,59.92153879538237,
34,0,34,0,,,,,,,,,,,,,,,,,,,,,,,,,,,,,,,,,,188.85463660000823,189.86803679983132,187.1785289000254,187.1785289000254,187.1785289000254,187.1785289000254,new_fruit_7.png,35,1.0,1.6789104000199586,,,,,,059,11,2025-03-20_16h36.59.544,Surprise recog test,2023.1.3,59.92153879538237,
35,0,35,0,,,,,,,,,,,,,,,,,,,,,,,,,,,,,,,,,,191.6725631998852,192.69961489993148,189.86803679983132,189.86803679983132,189.86803679983132,189.86803679983132,new_sceneIn_37.png,36,5.0,1.7996841000858694,,,,,,059,11,2025-03-20_16h36.59.544,Surprise recog test,2023.1.3,59.92153879538237,
36,0,36,0,,,,,,,,,,,,,,,,,,,,,,,,,,,,,,,,,,194.4023025999777,,192.69961489993148,192.69961489993148,192.69961489993148,192.69961489993148,new_stationery_8.png,37,5.0,1.702561599900946,,,,,,059,11,2025-03-20_16h36.59.544,Surprise recog test,2023.1.3,59.92153879538237,
37,0,37,0,,,,,,,,,,,,,,,,,,,,,,,,,,,,,,,,,,198.54207449988462,199.57201959984377,195.42599759995937,195.42599759995937,195.42599759995937,195.42599759995937,old_stationery_27.png,38,4.0,3.116085800109431,,,,,,059,11,2025-03-20_16h36.59.544,Surprise recog test,2023.1.3,59.92153879538237,
38,0,38,0,,,,,,,,,,,,,,,,,,,,,,,,,,,,,,,,,,200.96844269987196,201.98387959995307,199.57201959984377,199.57201959984377,199.57201959984377,199.57201959984377,new_sceneIn_20.png,39,1.0,1.3965129998978227,,,,,,059,11,2025-03-20_16h36.59.544,Surprise recog test,2023.1.3,59.92153879538237,
39,0,39,0,,,,,,,,,,,,,,,,,,,,,,,,,,,,,,,,,,202.9717604999896,203.99082419998012,201.98387959995307,201.98387959995307,201.98387959995307,201.98387959995307,old_stationery_1.png,40,1.0,0.9847460000310093,,,,,,059,11,2025-03-20_16h36.59.544,Surprise recog test,2023.1.3,59.92153879538237,
40,0,40,0,,,,,,,,,,,,,,,,,,,,,,,,,,,,,,,,,,207.55354360002093,208.57718229992315,203.99082419998012,203.99082419998012,203.99082419998012,203.99082419998012,new_fruit_43.png,41,4.0,3.563683500047773,,,,,,059,11,2025-03-20_16h36.59.544,Surprise recog test,2023.1.3,59.92153879538237,
41,0,41,0,,,,,,,,,,,,,,,,,,,,,,,,,,,,,,,,,,209.74414049996994,210.76936799986288,208.57718229992315,208.57718229992315,208.57718229992315,208.57718229992315,old_sceneIn_21.png,42,4.0,1.163636100012809,,,,,,059,11,2025-03-20_16h36.59.544,Surprise recog test,2023.1.3,59.92153879538237,
42,0,42,0,,,,,,,,,,,,,,,,,,,,,,,,,,,,,,,,,,211.85324819991365,212.87139689992182,210.76936799986288,210.76936799986288,210.76936799986288,210.76936799986288,new_fruit_16.png,43,4.0,1.0891726999543607,,,,,,059,11,2025-03-20_16h36.59.544,Surprise recog test,2023.1.3,59.92153879538237,
43,0,43,0,,,,,,,,,,,,,,,,,,,,,,,,,,,,,,,,,,214.90906500001438,215.92857720004395,212.87139689992182,212.87139689992182,212.87139689992182,212.87139689992182,old_sceneIn_36.png,44,3.0,2.0324717999901623,,,,,,059,11,2025-03-20_16h36.59.544,Surprise recog test,2023.1.3,59.92153879538237,
44,0,44,0,,,,,,,,,,,,,,,,,,,,,,,,,,,,,,,,,,217.57343539991416,218.60647540003993,215.92857720004395,215.92857720004395,215.92857720004395,215.92857720004395,new_fruit_17.png,45,4.0,1.6454203999601305,,,,,,059,11,2025-03-20_16h36.59.544,Surprise recog test,2023.1.3,59.92153879538237,
45,0,45,0,,,,,,,,,,,,,,,,,,,,,,,,,,,,,,,,,,220.115949699888,221.12732449988835,218.60647540003993,218.60647540003993,218.60647540003993,218.60647540003993,old_sceneIn_14.png,46,1.0,1.5121442000381649,,,,,,059,11,2025-03-20_16h36.59.544,Surprise recog test,2023.1.3,59.92153879538237,
46,0,46,0,,,,,,,,,,,,,,,,,,,,,,,,,,,,,,,,,,222.28795499983244,223.3040853999555,221.12732449988835,221.12732449988835,221.12732449988835,221.12732449988835,new_sceneOut_49.png,47,2.0,1.155902500031516,,,,,,059,11,2025-03-20_16h36.59.544,Surprise recog test,2023.1.3,59.92153879538237,
47,0,47,0,,,,,,,,,,,,,,,,,,,,,,,,,,,,,,,,,,224.48271279991604,225.49808029993437,223.3040853999555,223.3040853999555,223.3040853999555,223.3040853999555,old_sceneOut_21.png,48,4.0,1.1799749999772757,,,,,,059,11,2025-03-20_16h36.59.544,Surprise recog test,2023.1.3,59.92153879538237,
48,0,48,0,,,,,,,,,,,,,,,,,,,,,,,,,,,,,,,,,,227.49932800000533,228.52885139989667,225.49808029993437,225.49808029993437,225.49808029993437,225.49808029993437,old_fruit_44.png,49,4.0,1.996557299979031,,,,,,059,11,2025-03-20_16h36.59.544,Surprise recog test,2023.1.3,59.92153879538237,
49,0,49,0,,,,,,,,,,,,,,,,,,,,,,,,,,,,,,,,,,230.8187939999625,231.83736349991523,228.52885139989667,228.52885139989667,228.52885139989667,228.52885139989667,old_sceneIn_39.png,50,4.0,2.292804699856788,,,,,,059,11,2025-03-20_16h36.59.544,Surprise recog test,2023.1.3,59.92153879538237,
50,0,50,0,,,,,,,,,,,,,,,,,,,,,,,,,,,,,,,,,,233.6837527998723,,231.83736349991523,231.83736349991523,231.83736349991523,231.83736349991523,old_stationery_48.png,51,2.0,1.8414918999187648,,,,,,059,11,2025-03-20_16h36.59.544,Surprise recog test,2023.1.3,59.92153879538237,
51,0,51,0,,,,,,,,,,,,,,,,,,,,,,,,,,,,,,,,,,238.46582179982215,239.47616750001907,234.70487839984708,234.70487839984708,234.70487839984708,234.70487839984708,new_fruit_20.png,52,3.0,3.7558825998567045,,,,,,059,11,2025-03-20_16h36.59.544,Surprise recog test,2023.1.3,59.92153879538237,
52,0,52,0,,,,,,,,,,,,,,,,,,,,,,,,,,,,,,,,,,240.78646699991077,241.81246359995566,239.47616750001907,239.47616750001907,239.47616750001907,239.47616750001907,new_stationery_31.png,53,4.0,1.3045060001313686,,,,,,059,11,2025-03-20_16h36.59.544,Surprise recog test,2023.1.3,59.92153879538237,
53,0,53,0,,,,,,,,,,,,,,,,,,,,,,,,,,,,,,,,,,244.49805729999207,245.5290471999906,241.81246359995566,241.81246359995566,241.81246359995566,241.81246359995566,new_stationery_4.png,54,3.0,2.6872868998907506,,,,,,059,11,2025-03-20_16h36.59.544,Surprise recog test,2023.1.3,59.92153879538237,
54,0,54,0,,,,,,,,,,,,,,,,,,,,,,,,,,,,,,,,,,246.66481309989467,247.68009249982424,245.5290471999906,245.5290471999906,245.5290471999906,245.5290471999906,old_sceneOut_12.png,55,2.0,1.138887699926272,,,,,,059,11,2025-03-20_16h36.59.544,Surprise recog test,2023.1.3,59.92153879538237,
55,0,55,0,,,,,,,,,,,,,,,,,,,,,,,,,,,,,,,,,,248.54290129989386,249.5682565998286,247.68009249982424,247.68009249982424,247.68009249982424,247.68009249982424,new_sceneOut_27.png,56,2.0,0.8567250999622047,,,,,,059,11,2025-03-20_16h36.59.544,Surprise recog test,2023.1.3,59.92153879538237,
56,0,56,0,,,,,,,,,,,,,,,,,,,,,,,,,,,,,,,,,,251.33702500001527,252.36302679986693,249.5682565998286,249.5682565998286,249.5682565998286,249.5682565998286,new_stationery_46.png,57,5.0,1.7719455999322236,,,,,,059,11,2025-03-20_16h36.59.544,Surprise recog test,2023.1.3,59.92153879538237,
57,0,57,0,,,,,,,,,,,,,,,,,,,,,,,,,,,,,,,,,,253.79747039987706,254.81487679993734,252.36302679986693,252.36302679986693,252.36302679986693,252.36302679986693,new_stationery_20.png,58,3.0,1.4285514000803232,,,,,,059,11,2025-03-20_16h36.59.544,Surprise recog test,2023.1.3,59.92153879538237,
58,0,58,0,,,,,,,,,,,,,,,,,,,,,,,,,,,,,,,,,,255.98572839982808,,254.81487679993734,254.81487679993734,254.81487679993734,254.81487679993734,new_fruit_44.png,59,3.0,1.1729480000212789,,,,,,059,11,2025-03-20_16h36.59.544,Surprise recog test,2023.1.3,59.92153879538237,
59,0,59,0,,,,,,,,,,,,,,,,,,,,,,,,,,,,,,,,,,258.33449859987013,259.3578794999048,257.01809339993633,257.01809339993633,257.01809339993633,257.01809339993633,old_fruit_50.png,60,2.0,1.3117593999486417,,,,,,059,11,2025-03-20_16h36.59.544,Surprise recog test,2023.1.3,59.92153879538237,
60,0,60,0,,,,,,,,,,,,,,,,,,,,,,,,,,,,,,,,,,260.95772369997576,,259.3578794999048,259.3578794999048,259.3578794999048,259.3578794999048,new_sceneOut_38.png,61,3.0,1.6036340999417007,,,,,,059,11,2025-03-20_16h36.59.544,Surprise recog test,2023.1.3,59.92153879538237,
61,0,61,0,,,,,,,,,,,,,,,,,,,,,,,,,,,,,,,,,,263.0120012999978,264.04456539987586,261.99028549995273,261.99028549995273,261.99028549995273,261.99028549995273,new_sceneOut_18.png,62,3.0,1.0246733000967652,,,,,,059,11,2025-03-20_16h36.59.544,Surprise recog test,2023.1.3,59.92153879538237,
62,0,62,0,,,,,,,,,,,,,,,,,,,,,,,,,,,,,,,,,,265.48746299999766,266.5006627999246,264.04456539987586,264.04456539987586,264.04456539987586,264.04456539987586,old_fruit_6.png,63,2.0,1.446296899812296,,,,,,059,11,2025-03-20_16h36.59.544,Surprise recog test,2023.1.3,59.92153879538237,
63,0,63,0,,,,,,,,,,,,,,,,,,,,,,,,,,,,,,,,,,267.8587197000161,268.88040050002746,266.5006627999246,266.5006627999246,266.5006627999246,266.5006627999246,new_sceneIn_24.png,64,4.0,1.3535714000463486,,,,,,059,11,2025-03-20_16h36.59.544,Surprise recog test,2023.1.3,59.92153879538237,
64,0,64,0,,,,,,,,,,,,,,,,,,,,,,,,,,,,,,,,,,270.42434689984657,271.4491633998696,268.88040050002746,268.88040050002746,268.88040050002746,268.88040050002746,new_sceneIn_22.png,65,3.0,1.5466951001435518,,,,,,059,11,2025-03-20_16h36.59.544,Surprise recog test,2023.1.3,59.92153879538237,
65,0,65,0,,,,,,,,,,,,,,,,,,,,,,,,,,,,,,,,,,272.92426320002414,273.9488714998588,271.4491633998696,271.4491633998696,271.4491633998696,271.4491633998696,old_fruit_29.png,66,4.0,1.4769973999354988,,,,,,059,11,2025-03-20_16h36.59.544,Surprise recog test,2023.1.3,59.92153879538237,
66,0,66,0,,,,,,,,,,,,,,,,,,,,,,,,,,,,,,,,,,274.80831500003114,275.8374173999764,273.9488714998588,273.9488714998588,273.9488714998588,273.9488714998588,new_fruit_47.png,67,4.0,0.8590844001155347,,,,,,059,11,2025-03-20_16h36.59.544,Surprise recog test,2023.1.3,59.92153879538237,
67,0,67,0,,,,,,,,,,,,,,,,,,,,,,,,,,,,,,,,,,277.10012249997817,278.1204486999195,275.8374173999764,275.8374173999764,275.8374173999764,275.8374173999764,new_sceneIn_25.png,68,2.0,1.258755600079894,,,,,,059,11,2025-03-20_16h36.59.544,Surprise recog test,2023.1.3,59.92153879538237,
68,0,68,0,,,,,,,,,,,,,,,,,,,,,,,,,,,,,,,,,,279.79243619996123,280.8225467999,278.1204486999195,278.1204486999195,278.1204486999195,278.1204486999195,new_sceneIn_35.png,69,1.0,1.671676600119099,,,,,,059,11,2025-03-20_16h36.59.544,Surprise recog test,2023.1.3,59.92153879538237,
69,0,69,0,,,,,,,,,,,,,,,,,,,,,,,,,,,,,,,,,,282.5716207998339,283.57945519988425,280.8225467999,280.8225467999,280.8225467999,280.8225467999,old_sceneOut_40.png,70,4.0,1.7497491999529302,,,,,,059,11,2025-03-20_16h36.59.544,Surprise recog test,2023.1.3,59.92153879538237,
70,0,70,0,,,,,,,,,,,,,,,,,,,,,,,,,,,,,,,,,,285.28251429996453,286.3080545000266,283.57945519988425,283.57945519988425,283.57945519988425,283.57945519988425,new_fruit_9.png,71,2.0,1.6982313999906182,,,,,,059,11,2025-03-20_16h36.59.544,Surprise recog test,2023.1.3,59.92153879538237,
71,0,71,0,,,,,,,,,,,,,,,,,,,,,,,,,,,,,,,,,,288.00750779989175,289.0177787998691,286.3080545000266,286.3080545000266,286.3080545000266,286.3080545000266,old_fruit_39.png,72,2.0,1.700769399991259,,,,,,059,11,2025-03-20_16h36.59.544,Surprise recog test,2023.1.3,59.92153879538237,
72,0,72,0,,,,,,,,,,,,,,,,,,,,,,,,,,,,,,,,,,291.5617946998682,292.569675500039,289.0177787998691,289.0177787998691,289.0177787998691,289.0177787998691,new_sceneOut_16.png,73,2.0,2.5379073000513017,,,,,,059,11,2025-03-20_16h36.59.544,Surprise recog test,2023.1.3,59.92153879538237,
73,0,73,0,,,,,,,,,,,,,,,,,,,,,,,,,,,,,,,,,,294.32148879999295,295.3461743998341,292.569675500039,292.569675500039,292.569675500039,292.569675500039,old_stationery_23.png,74,2.0,1.7469337999355048,,,,,,059,11,2025-03-20_16h36.59.544,Surprise recog test,2023.1.3,59.92153879538237,
74,0,74,0,,,,,,,,,,,,,,,,,,,,,,,,,,,,,,,,,,296.6950836000033,297.7082552998327,295.3461743998341,295.3461743998341,295.3461743998341,295.3461743998341,new_sceneOut_39.png,75,5.0,1.3446609999518842,,,,,,059,11,2025-03-20_16h36.59.544,Surprise recog test,2023.1.3,59.92153879538237,
75,0,75,0,,,,,,,,,,,,,,,,,,,,,,,,,,,,,,,,,,299.24208899983205,300.2609613998793,297.7082552998327,297.7082552998327,297.7082552998327,297.7082552998327,new_sceneOut_8.png,76,1.0,1.529706500004977,,,,,,059,11,2025-03-20_16h36.59.544,Surprise recog test,2023.1.3,59.92153879538237,
76,0,76,0,,,,,,,,,,,,,,,,,,,,,,,,,,,,,,,,,,301.06462429999374,302.0783036998473,300.2609613998793,300.2609613998793,300.2609613998793,300.2609613998793,old_sceneOut_24.png,77,1.0,0.8018363998271525,,,,,,059,11,2025-03-20_16h36.59.544,Surprise recog test,2023.1.3,59.92153879538237,
77,0,77,0,,,,,,,,,,,,,,,,,,,,,,,,,,,,,,,,,,303.5154599000234,304.5442105999682,302.0783036998473,302.0783036998473,302.0783036998473,302.0783036998473,old_fruit_14.png,78,1.0,1.4306738001760095,,,,,,059,11,2025-03-20_16h36.59.544,Surprise recog test,2023.1.3,59.92153879538237,
78,0,78,0,,,,,,,,,,,,,,,,,,,,,,,,,,,,,,,,,,305.69048399990425,306.71146210003644,304.5442105999682,304.5442105999682,304.5442105999682,304.5442105999682,old_sceneIn_17.png,79,1.0,1.1483148999977857,,,,,,059,11,2025-03-20_16h36.59.544,Surprise recog test,2023.1.3,59.92153879538237,
79,0,79,0,,,,,,,,,,,,,,,,,,,,,,,,,,,,,,,,,,308.2425480999518,309.25774999987334,306.71146210003644,306.71146210003644,306.71146210003644,306.71146210003644,old_sceneIn_10.png,80,3.0,1.5268989000469446,,,,,,059,11,2025-03-20_16h36.59.544,Surprise recog test,2023.1.3,59.92153879538237,
80,0,80,0,,,,,,,,,,,,,,,,,,,,,,,,,,,,,,,,,,310.43663589982316,311.4658917998895,309.25774999987334,309.25774999987334,309.25774999987334,309.25774999987334,old_fruit_30.png,81,2.0,1.1786063998006284,,,,,,059,11,2025-03-20_16h36.59.544,Surprise recog test,2023.1.3,59.92153879538237,
81,0,81,0,,,,,,,,,,,,,,,,,,,,,,,,,,,,,,,,,,312.75349699985236,313.7887095999904,311.4658917998895,311.4658917998895,311.4658917998895,311.4658917998895,old_sceneIn_28.png,82,4.0,1.289472899865359,,,,,,059,11,2025-03-20_16h36.59.544,Surprise recog test,2023.1.3,59.92153879538237,
82,0,82,0,,,,,,,,,,,,,,,,,,,,,,,,,,,,,,,,,,314.5895406999625,315.61836279998533,313.7887095999904,313.7887095999904,313.7887095999904,313.7887095999904,old_sceneOut_34.png,83,4.0,0.8060800000093877,,,,,,059,11,2025-03-20_16h36.59.544,Surprise recog test,2023.1.3,59.92153879538237,
83,0,83,0,,,,,,,,,,,,,,,,,,,,,,,,,,,,,,,,,,317.7558088998776,318.78931429982185,315.61836279998533,315.61836279998533,315.61836279998533,315.61836279998533,new_fruit_19.png,84,4.0,2.1377655998803675,,,,,,059,11,2025-03-20_16h36.59.544,Surprise recog test,2023.1.3,59.92153879538237,
84,0,84,0,,,,,,,,,,,,,,,,,,,,,,,,,,,,,,,,,,321.18036829982884,322.19507639994845,318.78931429982185,318.78931429982185,318.78931429982185,318.78931429982185,new_fruit_50.png,85,2.0,2.394295600010082,,,,,,059,11,2025-03-20_16h36.59.544,Surprise recog test,2023.1.3,59.92153879538237,
85,0,85,0,,,,,,,,,,,,,,,,,,,,,,,,,,,,,,,,,,324.6588705999311,,322.19507639994845,322.19507639994845,322.19507639994845,322.19507639994845,old_stationery_41.png,86,2.0,2.4594396001193672,,,,,,059,11,2025-03-20_16h36.59.544,Surprise recog test,2023.1.3,59.92153879538237,
86,0,86,0,,,,,,,,,,,,,,,,,,,,,,,,,,,,,,,,,,327.2584785998333,328.2663517999463,325.69743419997394,325.69743419997394,325.69743419997394,325.69743419997394,new_stationery_42.png,87,5.0,1.559806799981743,,,,,,059,11,2025-03-20_16h36.59.544,Surprise recog test,2023.1.3,59.92153879538237,
87,0,87,0,,,,,,,,,,,,,,,,,,,,,,,,,,,,,,,,,,329.6771984999068,330.6969651998952,328.2663517999463,328.2663517999463,328.2663517999463,328.2663517999463,new_stationery_35.png,88,5.0,1.4025187999941409,,,,,,059,11,2025-03-20_16h36.59.544,Surprise recog test,2023.1.3,59.92153879538237,
88,0,88,0,,,,,,,,,,,,,,,,,,,,,,,,,,,,,,,,,,332.70454519987106,333.73270870000124,330.6969651998952,330.6969651998952,330.6969651998952,330.6969651998952,old_fruit_19.png,89,4.0,2.0072480000089854,,,,,,059,11,2025-03-20_16h36.59.544,Surprise recog test,2023.1.3,59.92153879538237,
89,0,89,0,,,,,,,,,,,,,,,,,,,,,,,,,,,,,,,,,,335.48560849996284,,333.73270870000124,333.73270870000124,333.73270870000124,333.73270870000124,old_stationery_29.png,90,2.0,1.753317000111565,,,,,,059,11,2025-03-20_16h36.59.544,Surprise recog test,2023.1.3,59.92153879538237,
90,0,90,0,,,,,,,,,,,,,,,,,,,,,,,,,,,,,,,,,,337.79027320002206,338.8055640999228,336.50655959988944,336.50655959988944,336.50655959988944,336.50655959988944,old_sceneOut_32.png,91,4.0,1.279928700067103,,,,,,059,11,2025-03-20_16h36.59.544,Surprise recog test,2023.1.3,59.92153879538237,
91,0,91,0,,,,,,,,,,,,,,,,,,,,,,,,,,,,,,,,,,341.65953019983135,342.6923587999772,338.8055640999228,338.8055640999228,338.8055640999228,338.8055640999228,new_sceneIn_16.png,92,3.0,2.847644899971783,,,,,,059,11,2025-03-20_16h36.59.544,Surprise recog test,2023.1.3,59.92153879538237,
92,0,92,0,,,,,,,,,,,,,,,,,,,,,,,,,,,,,,,,,,345.3657863000408,346.3821223999839,342.6923587999772,342.6923587999772,342.6923587999772,342.6923587999772,new_sceneOut_37.png,93,2.0,2.674458600115031,,,,,,059,11,2025-03-20_16h36.59.544,Surprise recog test,2023.1.3,59.92153879538237,
93,0,93,0,,,,,,,,,,,,,,,,,,,,,,,,,,,,,,,,,,351.37952339998446,,346.3821223999839,346.3821223999839,346.3821223999839,346.3821223999839,new_sceneIn_14.png,94,None,None,351.36639119987376,,,,,059,11,2025-03-20_16h36.59.544,Surprise recog test,2023.1.3,59.92153879538237,
94,0,94,0,,,,,,,,,,,,,,,,,,,,,,,,,,,,,,,,,,354.46449359995313,355.4860085998662,352.3966434998438,352.3966434998438,352.3966434998438,352.3966434998438,new_stationery_7.png,95,3.0,2.0625446001067758,,,,,,059,11,2025-03-20_16h36.59.544,Surprise recog test,2023.1.3,59.92153879538237,
95,0,95,0,,,,,,,,,,,,,,,,,,,,,,,,,,,,,,,,,,357.7352274998557,358.7559467998799,355.4860085998662,355.4860085998662,355.4860085998662,355.4860085998662,new_sceneOut_33.png,96,4.0,2.2495460000354797,,,,,,059,11,2025-03-20_16h36.59.544,Surprise recog test,2023.1.3,59.92153879538237,
96,0,96,0,,,,,,,,,,,,,,,,,,,,,,,,,,,,,,,,,,360.098502199864,361.1105436999351,358.7559467998799,358.7559467998799,358.7559467998799,358.7559467998799,old_fruit_49.png,97,2.0,1.345504199853167,,,,,,059,11,2025-03-20_16h36.59.544,Surprise recog test,2023.1.3,59.92153879538237,
97,0,97,0,,,,,,,,,,,,,,,,,,,,,,,,,,,,,,,,,,364.1533853998408,365.17382619995624,361.1105436999351,361.1105436999351,361.1105436999351,361.1105436999351,old_sceneIn_50.png,98,4.0,3.0387822999618948,,,,,,059,11,2025-03-20_16h36.59.544,Surprise recog test,2023.1.3,59.92153879538237,
98,0,98,0,,,,,,,,,,,,,,,,,,,,,,,,,,,,,,,,,,366.67232629982755,367.68902759999037,365.17382619995624,365.17382619995624,365.17382619995624,365.17382619995624,new_stationery_41.png,99,4.0,1.4978964000474662,,,,,,059,11,2025-03-20_16h36.59.544,Surprise recog test,2023.1.3,59.92153879538237,
99,0,99,0,,,,,,,,,,,,,,,,,,,,,,,,,,,,,,,,,,369.1266226998996,370.14250870002434,367.68902759999037,367.68902759999037,367.68902759999037,367.68902759999037,old_stationery_43.png,100,4.0,1.438059200067073,,,,,,059,11,2025-03-20_16h36.59.544,Surprise recog test,2023.1.3,59.92153879538237,
100,0,100,0,,,,,,,,,,,,,,,,,,,,,,,,,,,,,,,,,,371.1675531999208,372.20514600002207,370.14250870002434,370.14250870002434,370.14250870002434,370.14250870002434,old_sceneOut_23.png,101,4.0,1.0258690000046045,,,,,,059,11,2025-03-20_16h36.59.544,Surprise recog test,2023.1.3,59.92153879538237,
101,0,101,0,,,,,,,,,,,,,,,,,,,,,,,,,,,,,,,,,,373.6280864998698,374.6500152000226,372.20514600002207,372.20514600002207,372.20514600002207,372.20514600002207,old_sceneIn_41.png,102,4.0,1.4269774002023041,,,,,,059,11,2025-03-20_16h36.59.544,Surprise recog test,2023.1.3,59.92153879538237,
102,0,102,0,,,,,,,,,,,,,,,,,,,,,,,,,,,,,,,,,,375.5023312999401,,374.6500152000226,374.6500152000226,374.6500152000226,374.6500152000226,old_stationery_47.png,103,4.0,0.855107800103724,,,,,,059,11,2025-03-20_16h36.59.544,Surprise recog test,2023.1.3,59.92153879538237,
103,0,103,0,,,,,,,,,,,,,,,,,,,,,,,,,,,,,,,,,,377.5389596000314,378.5715703999158,376.53296029986814,376.53296029986814,376.53296029986814,376.53296029986814,new_stationery_6.png,104,4.0,1.0075676999986172,,,,,,059,11,2025-03-20_16h36.59.544,Surprise recog test,2023.1.3,59.92153879538237,
104,0,104,0,,,,,,,,,,,,,,,,,,,,,,,,,,,,,,,,,,380.470121699851,381.4878000000026,378.5715703999158,378.5715703999158,378.5715703999158,378.5715703999158,old_fruit_32.png,105,4.0,1.9007238999474794,,,,,,059,11,2025-03-20_16h36.59.544,Surprise recog test,2023.1.3,59.92153879538237,
105,0,105,0,,,,,,,,,,,,,,,,,,,,,,,,,,,,,,,,,,382.8623565000016,383.88004449987784,381.4878000000026,381.4878000000026,381.4878000000026,381.4878000000026,new_fruit_34.png,106,3.0,1.3764210001099855,,,,,,059,11,2025-03-20_16h36.59.544,Surprise recog test,2023.1.3,59.92153879538237,
106,0,106,0,,,,,,,,,,,,,,,,,,,,,,,,,,,,,,,,,,384.818725500023,385.8291484999936,383.88004449987784,383.88004449987784,383.88004449987784,383.88004449987784,old_fruit_42.png,107,3.0,0.9347005998715758,,,,,,059,11,2025-03-20_16h36.59.544,Surprise recog test,2023.1.3,59.92153879538237,
107,0,107,0,,,,,,,,,,,,,,,,,,,,,,,,,,,,,,,,,,387.41396299982443,388.4487954999786,385.8291484999936,385.8291484999936,385.8291484999936,385.8291484999936,new_sceneOut_47.png,108,4.0,1.5818880000151694,,,,,,059,11,2025-03-20_16h36.59.544,Surprise recog test,2023.1.3,59.92153879538237,
108,0,108,0,,,,,,,,,,,,,,,,,,,,,,,,,,,,,,,,,,389.4825946998317,390.5137167000212,388.4487954999786,388.4487954999786,388.4487954999786,388.4487954999786,old_sceneOut_6.png,109,4.0,1.0365615000482649,,,,,,059,11,2025-03-20_16h36.59.544,Surprise recog test,2023.1.3,59.92153879538237,
109,0,109,0,,,,,,,,,,,,,,,,,,,,,,,,,,,,,,,,,,392.1489706998691,,390.5137167000212,390.5137167000212,390.5137167000212,390.5137167000212,old_sceneOut_8.png,110,4.0,1.6361386000644416,,,,,,059,11,2025-03-20_16h36.59.544,Surprise recog test,2023.1.3,59.92153879538237,
110,0,110,0,,,,,,,,,,,,,,,,,,,,,,,,,,,,,,,,,,393.9702536999248,395.0006631000433,393.1818222999573,393.1818222999573,393.1818222999573,393.1818222999573,new_sceneOut_43.png,111,4.0,0.79052359983325,,,,,,059,11,2025-03-20_16h36.59.544,Surprise recog test,2023.1.3,59.92153879538237,
111,0,111,0,,,,,,,,,,,,,,,,,,,,,,,,,,,,,,,,,,396.0656874999404,397.08650989993475,395.0006631000433,395.0006631000433,395.0006631000433,395.0006631000433,old_stationery_26.png,112,2.0,1.060439599910751,,,,,,059,11,2025-03-20_16h36.59.544,Surprise recog test,2023.1.3,59.92153879538237,
112,0,112,0,,,,,,,,,,,,,,,,,,,,,,,,,,,,,,,,,,398.239105500048,399.2721722999122,397.08650989993475,397.08650989993475,397.08650989993475,397.08650989993475,old_sceneIn_43.png,113,4.0,1.1549757001921535,,,,,,059,11,2025-03-20_16h36.59.544,Surprise recog test,2023.1.3,59.92153879538237,
113,0,113,0,,,,,,,,,,,,,,,,,,,,,,,,,,,,,,,,,,400.12002069992013,401.1389572999906,399.2721722999122,399.2721722999122,399.2721722999122,399.2721722999122,old_sceneOut_2.png,114,3.0,0.8501262997742742,,,,,,059,11,2025-03-20_16h36.59.544,Surprise recog test,2023.1.3,59.92153879538237,
114,0,114,0,,,,,,,,,,,,,,,,,,,,,,,,,,,,,,,,,,402.6966208999511,403.72478329995647,401.1389572999906,401.1389572999906,401.1389572999906,401.1389572999906,old_fruit_10.png,115,4.0,1.5591311000753194,,,,,,059,11,2025-03-20_16h36.59.544,Surprise recog test,2023.1.3,59.92153879538237,
115,0,115,0,,,,,,,,,,,,,,,,,,,,,,,,,,,,,,,,,,405.6658862000331,406.6952472999692,403.72478329995647,403.72478329995647,403.72478329995647,403.72478329995647,old_sceneOut_9.png,116,3.0,1.9405610000248998,,,,,,059,11,2025-03-20_16h36.59.544,Surprise recog test,2023.1.3,59.92153879538237,
116,0,116,0,,,,,,,,,,,,,,,,,,,,,,,,,,,,,,,,,,409.6095081998501,410.6282097999938,406.6952472999692,406.6952472999692,406.6952472999692,406.6952472999692,old_sceneOut_16.png,117,4.0,2.9166115999687463,,,,,,059,11,2025-03-20_16h36.59.544,Surprise recog test,2023.1.3,59.92153879538237,
117,0,117,0,,,,,,,,,,,,,,,,,,,,,,,,,,,,,,,,,,412.1364064998925,413.15391969983466,410.6282097999938,410.6282097999938,410.6282097999938,410.6282097999938,new_sceneOut_40.png,118,4.0,1.510132399853319,,,,,,059,11,2025-03-20_16h36.59.544,Surprise recog test,2023.1.3,59.92153879538237,
118,0,118,0,,,,,,,,,,,,,,,,,,,,,,,,,,,,,,,,,,418.146905799862,,413.15391969983466,413.15391969983466,413.15391969983466,413.15391969983466,new_sceneIn_6.png,119,None,None,,,,,,059,11,2025-03-20_16h36.59.544,Surprise recog test,2023.1.3,59.92153879538237,
119,0,119,0,,,,,,,,,,,,,,,,,,,,,,,,,,,,,,,,,,421.9857921998482,423.0081046000123,419.1677542999387,419.1677542999387,419.1677542999387,419.1677542999387,new_fruit_14.png,120,2.0,2.8187359001021832,,,,,,059,11,2025-03-20_16h36.59.544,Surprise recog test,2023.1.3,59.92153879538237,
120,0,120,0,,,,,,,,,,,,,,,,,,,,,,,,,,,,,,,,,,424.8569235999603,425.87256289995275,423.0081046000123,423.0081046000123,423.0081046000123,423.0081046000123,old_stationery_10.png,121,4.0,1.8513819999061525,,,,,,059,11,2025-03-20_16h36.59.544,Surprise recog test,2023.1.3,59.92153879538237,
121,0,121,0,,,,,,,,,,,,,,,,,,,,,,,,,,,,,,,,,,427.83286209986545,428.8625437000301,425.87256289995275,425.87256289995275,425.87256289995275,425.87256289995275,new_sceneIn_39.png,122,4.0,1.9597289999946952,,,,,,059,11,2025-03-20_16h36.59.544,Surprise recog test,2023.1.3,59.92153879538237,
122,0,122,0,,,,,,,,,,,,,,,,,,,,,,,,,,,,,,,,,,429.8845208999701,430.90790409990586,428.8625437000301,428.8625437000301,428.8625437000301,428.8625437000301,new_sceneOut_21.png,123,4.0,1.0226679998449981,,,,,,059,11,2025-03-20_16h36.59.544,Surprise recog test,2023.1.3,59.92153879538237,
123,0,123,0,,,,,,,,,,,,,,,,,,,,,,,,,,,,,,,,,,433.29101129993796,434.31301929987967,430.90790409990586,430.90790409990586,430.90790409990586,430.90790409990586,new_sceneOut_50.png,124,4.0,2.383180599892512,,,,,,059,11,2025-03-20_16h36.59.544,Surprise recog test,2023.1.3,59.92153879538237,
124,0,124,0,,,,,,,,,,,,,,,,,,,,,,,,,,,,,,,,,,437.3706737998873,,434.31301929987967,434.31301929987967,434.31301929987967,434.31301929987967,new_sceneIn_15.png,125,4.0,3.055410400032997,,,,,,059,11,2025-03-20_16h36.59.544,Surprise recog test,2023.1.3,59.92153879538237,
125,0,125,0,,,,,,,,,,,,,,,,,,,,,,,,,,,,,,,,,,439.8873717999086,440.9047552999109,438.40322360000573,438.40322360000573,438.40322360000573,438.40322360000573,old_fruit_26.png,126,2.0,1.4859739998355508,,,,,,059,11,2025-03-20_16h36.59.544,Surprise recog test,2023.1.3,59.92153879538237,
126,0,126,0,,,,,,,,,,,,,,,,,,,,,,,,,,,,,,,,,,445.05165739986114,446.0613966998644,440.9047552999109,440.9047552999109,440.9047552999109,440.9047552999109,new_sceneOut_34.png,127,4.0,4.144901700085029,,,,,,059,11,2025-03-20_16h36.59.544,Surprise recog test,2023.1.3,59.92153879538237,
127,0,127,0,,,,,,,,,,,,,,,,,,,,,,,,,,,,,,,,,,447.62907220004126,,446.0613966998644,446.0613966998644,446.0613966998644,446.0613966998644,new_fruit_2.png,128,2.0,1.5645655000116676,,,,,,059,11,2025-03-20_16h36.59.544,Surprise recog test,2023.1.3,59.92153879538237,
128,0,128,0,,,,,,,,,,,,,,,,,,,,,,,,,,,,,,,,,,450.2609541998245,451.2776917000301,448.6487302999012,448.6487302999012,448.6487302999012,448.6487302999012,new_stationery_1.png,129,3.0,1.6048916999716312,,,,,,059,11,2025-03-20_16h36.59.544,Surprise recog test,2023.1.3,59.92153879538237,
129,0,129,0,,,,,,,,,,,,,,,,,,,,,,,,,,,,,,,,,,452.28774259984493,453.3157034998294,451.2776917000301,451.2776917000301,451.2776917000301,451.2776917000301,new_sceneIn_50.png,130,3.0,1.011349700158462,,,,,,059,11,2025-03-20_16h36.59.544,Surprise recog test,2023.1.3,59.92153879538237,
130,0,130,0,,,,,,,,,,,,,,,,,,,,,,,,,,,,,,,,,,455.59324479987845,456.61488749994896,453.3157034998294,453.3157034998294,453.3157034998294,453.3157034998294,old_sceneIn_2.png,131,2.0,2.2793636999558657,,,,,,059,11,2025-03-20_16h36.59.544,Surprise recog test,2023.1.3,59.92153879538237,
131,0,131,0,,,,,,,,,,,,,,,,,,,,,,,,,,,,,,,,,,458.5294039999135,459.5601685999427,456.61488749994896,456.61488749994896,456.61488749994896,456.61488749994896,old_sceneOut_50.png,132,4.0,1.9163612998090684,,,,,,059,11,2025-03-20_16h36.59.544,Surprise recog test,2023.1.3,59.92153879538237,
132,0,132,0,,,,,,,,,,,,,,,,,,,,,,,,,,,,,,,,,,460.68733790004626,461.6943315998651,459.5601685999427,459.5601685999427,459.5601685999427,459.5601685999427,new_sceneOut_30.png,133,3.0,1.1303631998598576,,,,,,059,11,2025-03-20_16h36.59.544,Surprise recog test,2023.1.3,59.92153879538237,
133,0,133,0,,,,,,,,,,,,,,,,,,,,,,,,,,,,,,,,,,464.0865664999001,465.10434990003705,461.6943315998651,461.6943315998651,461.6943315998651,461.6943315998651,old_sceneIn_31.png,134,3.0,2.388175800209865,,,,,,059,11,2025-03-20_16h36.59.544,Surprise recog test,2023.1.3,59.92153879538237,
134,0,134,0,,,,,,,,,,,,,,,,,,,,,,,,,,,,,,,,,,466.5186595998239,467.54221750004217,465.10434990003705,465.10434990003705,465.10434990003705,465.10434990003705,new_fruit_10.png,135,4.0,1.4130224999971688,,,,,,059,11,2025-03-20_16h36.59.544,Surprise recog test,2023.1.3,59.92153879538237,
135,0,135,0,,,,,,,,,,,,,,,,,,,,,,,,,,,,,,,,,,470.1597892998252,471.17492319992743,467.54221750004217,467.54221750004217,467.54221750004217,467.54221750004217,new_fruit_15.png,136,2.0,2.6187646000180393,,,,,,059,11,2025-03-20_16h36.59.544,Surprise recog test,2023.1.3,59.92153879538237,
136,0,136,0,,,,,,,,,,,,,,,,,,,,,,,,,,,,,,,,,,474.5977791999467,475.6171277000103,471.17492319992743,471.17492319992743,471.17492319992743,471.17492319992743,old_stationery_19.png,137,3.0,3.4168071998283267,,,,,,059,11,2025-03-20_16h36.59.544,Surprise recog test,2023.1.3,59.92153879538237,
137,0,137,0,,,,,,,,,,,,,,,,,,,,,,,,,,,,,,,,,,476.9214078998193,477.94138509989716,475.6171277000103,475.6171277000103,475.6171277000103,475.6171277000103,old_sceneIn_20.png,138,3.0,1.3043976000044495,,,,,,059,11,2025-03-20_16h36.59.544,Surprise recog test,2023.1.3,59.92153879538237,
138,0,138,0,,,,,,,,,,,,,,,,,,,,,,,,,,,,,,,,,,479.481611300027,480.50324120000005,477.94138509989716,477.94138509989716,477.94138509989716,477.94138509989716,old_stationery_40.png,139,4.0,1.5363436001352966,,,,,,059,11,2025-03-20_16h36.59.544,Surprise recog test,2023.1.3,59.92153879538237,
139,0,139,0,,,,,,,,,,,,,,,,,,,,,,,,,,,,,,,,,,485.4899781998247,486.49832509993576,480.50324120000005,480.50324120000005,480.50324120000005,480.50324120000005,old_stationery_17.png,140,None,None,485.4834513999522,,,,,059,11,2025-03-20_16h36.59.544,Surprise recog test,2023.1.3,59.92153879538237,
140,0,140,0,,,,,,,,,,,,,,,,,,,,,,,,,,,,,,,,,,488.94232269981876,489.9509701000061,486.49832509993576,486.49832509993576,486.49832509993576,486.49832509993576,old_sceneIn_44.png,141,4.0,2.4397824998013675,,,,,,059,11,2025-03-20_16h36.59.544,Surprise recog test,2023.1.3,59.92153879538237,
141,0,141,0,,,,,,,,,,,,,,,,,,,,,,,,,,,,,,,,,,491.65884849987924,492.67050649994053,489.9509701000061,489.9509701000061,489.9509701000061,489.9509701000061,new_sceneOut_24.png,142,4.0,1.7029660001862794,,,,,,059,11,2025-03-20_16h36.59.544,Surprise recog test,2023.1.3,59.92153879538237,
142,0,142,0,,,,,,,,,,,,,,,,,,,,,,,,,,,,,,,,,,494.4244060998317,495.43650059984066,492.67050649994053,492.67050649994053,492.67050649994053,492.67050649994053,old_sceneIn_27.png,143,3.0,1.749307599849999,,,,,,059,11,2025-03-20_16h36.59.544,Surprise recog test,2023.1.3,59.92153879538237,
143,0,143,0,,,,,,,,,,,,,,,,,,,,,,,,,,,,,,,,,,497.17543899989687,498.19166280003265,495.43650059984066,495.43650059984066,495.43650059984066,495.43650059984066,new_fruit_48.png,144,4.0,1.7337372999172658,,,,,,059,11,2025-03-20_16h36.59.544,Surprise recog test,2023.1.3,59.92153879538237,
144,0,144,0,,,,,,,,,,,,,,,,,,,,,,,,,,,,,,,,,,499.8634364998434,500.8899892999325,498.19166280003265,498.19166280003265,498.19166280003265,498.19166280003265,old_sceneOut_10.png,145,3.0,1.6673673000186682,,,,,,059,11,2025-03-20_16h36.59.544,Surprise recog test,2023.1.3,59.92153879538237,
145,0,145,0,,,,,,,,,,,,,,,,,,,,,,,,,,,,,,,,,,501.97019349993207,502.97454919992015,500.8899892999325,500.8899892999325,500.8899892999325,500.8899892999325,new_stationery_2.png,146,4.0,1.0825966999400407,,,,,,059,11,2025-03-20_16h36.59.544,Surprise recog test,2023.1.3,59.92153879538237,
146,0,146,0,,,,,,,,,,,,,,,,,,,,,,,,,,,,,,,,,,503.931315299822,504.94337759981863,502.97454919992015,502.97454919992015,502.97454919992015,502.97454919992015,new_fruit_39.png,147,4.0,0.9528798998799175,,,,,,059,11,2025-03-20_16h36.59.544,Surprise recog test,2023.1.3,59.92153879538237,
147,0,147,0,,,,,,,,,,,,,,,,,,,,,,,,,,,,,,,,,,506.2480287000071,507.279578599846,504.94337759981863,504.94337759981863,504.94337759981863,504.94337759981863,new_stationery_25.png,148,4.0,1.2984866998158395,,,,,,059,11,2025-03-20_16h36.59.544,Surprise recog test,2023.1.3,59.92153879538237,
148,0,148,0,,,,,,,,,,,,,,,,,,,,,,,,,,,,,,,,,,509.005533099873,510.02733640000224,507.279578599846,507.279578599846,507.279578599846,507.279578599846,new_stationery_48.png,149,4.0,1.7279437999241054,,,,,,059,11,2025-03-20_16h36.59.544,Surprise recog test,2023.1.3,59.92153879538237,
149,0,149,0,,,,,,,,,,,,,,,,,,,,,,,,,,,,,,,,,,511.91281059989706,512.9337680998724,510.02733640000224,510.02733640000224,510.02733640000224,510.02733640000224,new_fruit_22.png,150,4.0,1.8885025000199676,,,,,,059,11,2025-03-20_16h36.59.544,Surprise recog test,2023.1.3,59.92153879538237,
150,0,150,0,,,,,,,,,,,,,,,,,,,,,,,,,,,,,,,,,,514.093643500004,515.1057011999656,512.9337680998724,512.9337680998724,512.9337680998724,512.9337680998724,new_stationery_21.png,151,4.0,1.1622729999944568,,,,,,059,11,2025-03-20_16h36.59.544,Surprise recog test,2023.1.3,59.92153879538237,
151,0,151,0,,,,,,,,,,,,,,,,,,,,,,,,,,,,,,,,,,516.3853296998423,,515.1057011999656,515.1057011999656,515.1057011999656,515.1057011999656,new_fruit_21.png,152,4.0,1.2760856999084353,,,,,,059,11,2025-03-20_16h36.59.544,Surprise recog test,2023.1.3,59.92153879538237,
152,0,152,0,,,,,,,,,,,,,,,,,,,,,,,,,,,,,,,,,,518.7595048998483,519.7875760998577,517.4082013999578,517.4082013999578,517.4082013999578,517.4082013999578,old_sceneIn_37.png,153,4.0,1.3476507000159472,,,,,,059,11,2025-03-20_16h36.59.544,Surprise recog test,2023.1.3,59.92153879538237,
153,0,153,0,,,,,,,,,,,,,,,,,,,,,,,,,,,,,,,,,,521.1392971000168,,519.7875760998577,519.7875760998577,519.7875760998577,519.7875760998577,new_fruit_4.png,154,4.0,1.35390970017761,,,,,,059,11,2025-03-20_16h36.59.544,Surprise recog test,2023.1.3,59.92153879538237,
154,0,154,0,,,,,,,,,,,,,,,,,,,,,,,,,,,,,,,,,,523.1646353998221,524.188643099973,522.1595574999228,522.1595574999228,522.1595574999228,522.1595574999228,new_sceneOut_3.png,155,4.0,0.9994856999255717,,,,,,059,11,2025-03-20_16h36.59.544,Surprise recog test,2023.1.3,59.92153879538237,
155,0,155,0,,,,,,,,,,,,,,,,,,,,,,,,,,,,,,,,,,525.3258322998881,,524.188643099973,524.188643099973,524.188643099973,524.188643099973,old_sceneIn_23.png,156,4.0,1.1372116999700665,,,,,,059,11,2025-03-20_16h36.59.544,Surprise recog test,2023.1.3,59.92153879538237,
156,0,156,0,,,,,,,,,,,,,,,,,,,,,,,,,,,,,,,,,,527.8555303998291,528.8801164999604,526.3451107998844,526.3451107998844,526.3451107998844,526.3451107998844,new_fruit_36.png,157,3.0,1.5045772001612931,,,,,,059,11,2025-03-20_16h36.59.544,Surprise recog test,2023.1.3,59.92153879538237,
157,0,157,0,,,,,,,,,,,,,,,,,,,,,,,,,,,,,,,,,,530.168425800046,531.1948611999396,528.8801164999604,528.8801164999604,528.8801164999604,528.8801164999604,new_sceneIn_33.png,158,4.0,1.2902483998332173,,,,,,059,11,2025-03-20_16h36.59.544,Surprise recog test,2023.1.3,59.92153879538237,
158,0,158,0,,,,,,,,,,,,,,,,,,,,,,,,,,,,,,,,,,532.0809163998347,,531.1948611999396,531.1948611999396,531.1948611999396,531.1948611999396,old_fruit_11.png,159,3.0,0.8892603998538107,,,,,,059,11,2025-03-20_16h36.59.544,Surprise recog test,2023.1.3,59.92153879538237,
159,0,159,0,,,,,,,,,,,,,,,,,,,,,,,,,,,,,,,,,,534.280832399847,535.2976251998916,533.1020357999951,533.1020357999951,533.1020357999951,533.1020357999951,old_fruit_20.png,160,4.0,1.1741347999777645,,,,,,059,11,2025-03-20_16h36.59.544,Surprise recog test,2023.1.3,59.92153879538237,
160,0,160,0,,,,,,,,,,,,,,,,,,,,,,,,,,,,,,,,,,536.6500237998553,537.6690044999123,535.2976251998916,535.2976251998916,535.2976251998916,535.2976251998916,old_fruit_7.png,161,4.0,1.3545776000246406,,,,,,059,11,2025-03-20_16h36.59.544,Surprise recog test,2023.1.3,59.92153879538237,
161,0,161,0,,,,,,,,,,,,,,,,,,,,,,,,,,,,,,,,,,538.4359989999793,539.4576520000119,537.6690044999123,537.6690044999123,537.6690044999123,537.6690044999123,new_fruit_30.png,162,3.0,0.7672191997990012,,,,,,059,11,2025-03-20_16h36.59.544,Surprise recog test,2023.1.3,59.92153879538237,
162,0,162,0,,,,,,,,,,,,,,,,,,,,,,,,,,,,,,,,,,540.6814514000434,541.7051063999534,539.4576520000119,539.4576520000119,539.4576520000119,539.4576520000119,old_stationery_7.png,163,5.0,1.2267680999357253,,,,,,059,11,2025-03-20_16h36.59.544,Surprise recog test,2023.1.3,59.92153879538237,
163,0,163,0,,,,,,,,,,,,,,,,,,,,,,,,,,,,,,,,,,543.9960833999794,545.0208762998227,541.7051063999534,541.7051063999534,541.7051063999534,541.7051063999534,new_stationery_15.png,164,3.0,2.2907986000645906,,,,,,059,11,2025-03-20_16h36.59.544,Surprise recog test,2023.1.3,59.92153879538237,
164,0,164,0,,,,,,,,,,,,,,,,,,,,,,,,,,,,,,,,,,546.0333234998398,547.04910009983,545.0208762998227,545.0208762998227,545.0208762998227,545.0208762998227,old_stationery_15.png,165,4.0,1.0135592999868095,,,,,,059,11,2025-03-20_16h36.59.544,Surprise recog test,2023.1.3,59.92153879538237,
165,0,165,0,,,,,,,,,,,,,,,,,,,,,,,,,,,,,,,,,,548.2092801998369,549.2296648998745,547.04910009983,547.04910009983,547.04910009983,547.04910009983,old_sceneOut_11.png,166,4.0,1.1552127997856587,,,,,,059,11,2025-03-20_16h36.59.544,Surprise recog test,2023.1.3,59.92153879538237,
166,0,166,0,,,,,,,,,,,,,,,,,,,,,,,,,,,,,,,,,,551.1715410000179,552.1882809998933,549.2296648998745,549.2296648998745,549.2296648998745,549.2296648998745,old_fruit_37.png,167,3.0,1.9437315000686795,,,,,,059,11,2025-03-20_16h36.59.544,Surprise recog test,2023.1.3,59.92153879538237,
167,0,167,0,,,,,,,,,,,,,,,,,,,,,,,,,,,,,,,,,,553.363433699822,554.3841711999848,552.1882809998933,552.1882809998933,552.1882809998933,552.1882809998933,new_sceneIn_38.png,168,5.0,1.1695567001588643,,,,,,059,11,2025-03-20_16h36.59.544,Surprise recog test,2023.1.3,59.92153879538237,
168,0,168,0,,,,,,,,,,,,,,,,,,,,,,,,,,,,,,,,,,555.715187799884,556.7305335998535,554.3841711999848,554.3841711999848,554.3841711999848,554.3841711999848,old_stationery_2.png,169,2.0,1.3296896000392735,,,,,,059,11,2025-03-20_16h36.59.544,Surprise recog test,2023.1.3,59.92153879538237,
169,0,169,0,,,,,,,,,,,,,,,,,,,,,,,,,,,,,,,,,,557.7002738998272,558.7187093000393,556.7305335998535,556.7305335998535,556.7305335998535,556.7305335998535,new_sceneIn_32.png,170,2.0,0.9704259999562055,,,,,,059,11,2025-03-20_16h36.59.544,Surprise recog test,2023.1.3,59.92153879538237,
170,0,170,0,,,,,,,,,,,,,,,,,,,,,,,,,,,,,,,,,,559.8241601998452,560.856900600018,558.7187093000393,558.7187093000393,558.7187093000393,558.7187093000393,old_stationery_8.png,171,2.0,1.107855100184679,,,,,,059,11,2025-03-20_16h36.59.544,Surprise recog test,2023.1.3,59.92153879538237,
171,0,171,0,,,,,,,,,,,,,,,,,,,,,,,,,,,,,,,,,,562.6210248998832,563.6427362000104,560.856900600018,560.856900600018,560.856900600018,560.856900600018,new_stationery_32.png,172,4.0,1.7643078998662531,,,,,,059,11,2025-03-20_16h36.59.544,Surprise recog test,2023.1.3,59.92153879538237,
172,0,172,0,,,,,,,,,,,,,,,,,,,,,,,,,,,,,,,,,,565.1105126999319,,563.6427362000104,563.6427362000104,563.6427362000104,563.6427362000104,new_sceneOut_10.png,173,5.0,1.4721854999661446,,,,,,059,11,2025-03-20_16h36.59.544,Surprise recog test,2023.1.3,59.92153879538237,
173,0,173,0,,,,,,,,,,,,,,,,,,,,,,,,,,,,,,,,,,567.9447849998251,,566.1447068999987,566.1447068999987,566.1447068999987,566.1447068999987,old_sceneIn_13.png,174,3.0,1.8027096998412162,,,,,,059,11,2025-03-20_16h36.59.544,Surprise recog test,2023.1.3,59.92153879538237,
174,0,174,0,,,,,,,,,,,,,,,,,,,,,,,,,,,,,,,,,,570.0468685999513,,568.9798264999408,568.9798264999408,568.9798264999408,568.9798264999408,old_sceneIn_35.png,175,4.0,1.067820900119841,,,,,,059,11,2025-03-20_16h36.59.544,Surprise recog test,2023.1.3,59.92153879538237,
175,0,175,0,,,,,,,,,,,,,,,,,,,,,,,,,,,,,,,,,,572.258689600043,573.2821914998349,571.0811119000427,571.0811119000427,571.0811119000427,571.0811119000427,old_stationery_18.png,176,3.0,1.1797193998936564,,,,,,059,11,2025-03-20_16h36.59.544,Surprise recog test,2023.1.3,59.92153879538237,
176,0,176,0,,,,,,,,,,,,,,,,,,,,,,,,,,,,,,,,,,575.0035226999316,576.0363041998353,573.2821914998349,573.2821914998349,573.2821914998349,573.2821914998349,old_sceneIn_49.png,177,4.0,1.7216293001547456,,,,,,059,11,2025-03-20_16h36.59.544,Surprise recog test,2023.1.3,59.92153879538237,
177,0,177,0,,,,,,,,,,,,,,,,,,,,,,,,,,,,,,,,,,576.9213809999637,577.9458428998478,576.0363041998353,576.0363041998353,576.0363041998353,576.0363041998353,old_sceneIn_30.png,178,3.0,0.8870093000587076,,,,,,059,11,2025-03-20_16h36.59.544,Surprise recog test,2023.1.3,59.92153879538237,
178,0,178,0,,,,,,,,,,,,,,,,,,,,,,,,,,,,,,,,,,578.909468999831,579.9331556998659,577.9458428998478,577.9458428998478,577.9458428998478,577.9458428998478,old_stationery_36.png,179,4.0,0.9616543999873102,,,,,,059,11,2025-03-20_16h36.59.544,Surprise recog test,2023.1.3,59.92153879538237,
179,0,179,0,,,,,,,,,,,,,,,,,,,,,,,,,,,,,,,,,,581.1800545998849,582.205992099829,579.9331556998659,579.9331556998659,579.9331556998659,579.9331556998659,new_sceneIn_30.png,180,4.0,1.2481435001827776,,,,,,059,11,2025-03-20_16h36.59.544,Surprise recog test,2023.1.3,59.92153879538237,
180,0,180,0,,,,,,,,,,,,,,,,,,,,,,,,,,,,,,,,,,584.1810675000306,585.2078713998199,582.205992099829,582.205992099829,582.205992099829,582.205992099829,old_sceneOut_30.png,181,4.0,1.9743892000988126,,,,,,059,11,2025-03-20_16h36.59.544,Surprise recog test,2023.1.3,59.92153879538237,
181,0,181,0,,,,,,,,,,,,,,,,,,,,,,,,,,,,,,,,,,586.6593061999884,587.6776737000328,585.2078713998199,585.2078713998199,585.2078713998199,585.2078713998199,new_sceneOut_46.png,182,4.0,1.4508573999628425,,,,,,059,11,2025-03-20_16h36.59.544,Surprise recog test,2023.1.3,59.92153879538237,
182,0,182,0,,,,,,,,,,,,,,,,,,,,,,,,,,,,,,,,,,588.8263476998545,589.8473352999426,587.6776737000328,587.6776737000328,587.6776737000328,587.6776737000328,old_sceneOut_5.png,183,4.0,1.1439997998531908,,,,,,059,11,2025-03-20_16h36.59.544,Surprise recog test,2023.1.3,59.92153879538237,
183,0,183,0,,,,,,,,,,,,,,,,,,,,,,,,,,,,,,,,,,590.5857267000247,591.6134299999103,589.8473352999426,589.8473352999426,589.8473352999426,589.8473352999426,new_sceneOut_9.png,184,4.0,0.7387985000386834,,,,,,059,11,2025-03-20_16h36.59.544,Surprise recog test,2023.1.3,59.92153879538237,
184,0,184,0,,,,,,,,,,,,,,,,,,,,,,,,,,,,,,,,,,592.7349698999897,593.7535232999362,591.6134299999103,591.6134299999103,591.6134299999103,591.6134299999103,old_sceneOut_48.png,185,3.0,1.1242037999909371,,,,,,059,11,2025-03-20_16h36.59.544,Surprise recog test,2023.1.3,59.92153879538237,
185,0,185,0,,,,,,,,,,,,,,,,,,,,,,,,,,,,,,,,,,596.8416458000429,597.8646217999049,593.7535232999362,593.7535232999362,593.7535232999362,593.7535232999362,old_fruit_45.png,186,4.0,3.08498019981198,,,,,,059,11,2025-03-20_16h36.59.544,Surprise recog test,2023.1.3,59.92153879538237,
186,0,186,0,,,,,,,,,,,,,,,,,,,,,,,,,,,,,,,,,,599.93264429993,600.9549789999146,597.8646217999049,597.8646217999049,597.8646217999049,597.8646217999049,old_sceneOut_15.png,187,4.0,2.0699312000069767,,,,,,059,11,2025-03-20_16h36.59.544,Surprise recog test,2023.1.3,59.92153879538237,
187,0,187,0,,,,,,,,,,,,,,,,,,,,,,,,,,,,,,,,,,602.1950421999209,603.212774500018,600.9549789999146,600.9549789999146,600.9549789999146,600.9549789999146,old_fruit_15.png,188,3.0,1.2419414001051337,,,,,,059,11,2025-03-20_16h36.59.544,Surprise recog test,2023.1.3,59.92153879538237,
188,0,188,0,,,,,,,,,,,,,,,,,,,,,,,,,,,,,,,,,,604.4772711000405,605.5053423999343,603.212774500018,603.212774500018,603.212774500018,603.212774500018,new_fruit_31.png,189,4.0,1.2578109002206475,,,,,,059,11,2025-03-20_16h36.59.544,Surprise recog test,2023.1.3,59.92153879538237,
189,0,189,0,,,,,,,,,,,,,,,,,,,,,,,,,,,,,,,,,,607.0479657000396,608.0770640999544,605.5053423999343,605.5053423999343,605.5053423999343,605.5053423999343,new_stationery_40.png,190,5.0,1.5398601000197232,,,,,,059,11,2025-03-20_16h36.59.544,Surprise recog test,2023.1.3,59.92153879538237,
190,0,190,0,,,,,,,,,,,,,,,,,,,,,,,,,,,,,,,,,,609.1564543999266,610.1809061998501,608.0770640999544,608.0770640999544,608.0770640999544,608.0770640999544,old_stationery_25.png,191,4.0,1.0810247999615967,,,,,,059,11,2025-03-20_16h36.59.544,Surprise recog test,2023.1.3,59.92153879538237,
191,0,191,0,,,,,,,,,,,,,,,,,,,,,,,,,,,,,,,,,,615.1633299000096,616.1838430999778,610.1809061998501,610.1809061998501,610.1809061998501,610.1809061998501,old_sceneIn_11.png,192,None,None,,,,,,059,11,2025-03-20_16h36.59.544,Surprise recog test,2023.1.3,59.92153879538237,
192,0,192,0,,,,,,,,,,,,,,,,,,,,,,,,,,,,,,,,,,619.9414709999692,620.9597552998457,616.1838430999778,616.1838430999778,616.1838430999778,616.1838430999778,old_sceneOut_13.png,193,3.0,3.7572051000315696,,,,,,059,11,2025-03-20_16h36.59.544,Surprise recog test,2023.1.3,59.92153879538237,
193,0,193,0,,,,,,,,,,,,,,,,,,,,,,,,,,,,,,,,,,622.3224261000287,623.3420673999935,620.9597552998457,620.9597552998457,620.9597552998457,620.9597552998457,new_sceneOut_4.png,194,4.0,1.3562356000766158,,,,,,059,11,2025-03-20_16h36.59.544,Surprise recog test,2023.1.3,59.92153879538237,
194,0,194,0,,,,,,,,,,,,,,,,,,,,,,,,,,,,,,,,,,624.7920372998342,,623.3420673999935,623.3420673999935,623.3420673999935,623.3420673999935,old_fruit_3.png,195,4.0,1.4509638999588788,,,,,,059,11,2025-03-20_16h36.59.544,Surprise recog test,2023.1.3,59.92153879538237,
195,0,195,0,,,,,,,,,,,,,,,,,,,,,,,,,,,,,,,,,,628.0366768999957,629.0516558999661,625.8259729000274,625.8259729000274,625.8259729000274,625.8259729000274,new_stationery_49.png,196,3.0,2.2130923999939114,,,,,,059,11,2025-03-20_16h36.59.544,Surprise recog test,2023.1.3,59.92153879538237,
196,0,196,0,,,,,,,,,,,,,,,,,,,,,,,,,,,,,,,,,,631.7015149998479,632.7296625999734,629.0516558999661,629.0516558999661,629.0516558999661,629.0516558999661,new_sceneIn_42.png,197,3.0,2.646260099951178,,,,,,059,11,2025-03-20_16h36.59.544,Surprise recog test,2023.1.3,59.92153879538237,
197,0,197,0,,,,,,,,,,,,,,,,,,,,,,,,,,,,,,,,,,633.7045857999474,634.7292384998873,632.7296625999734,632.7296625999734,632.7296625999734,632.7296625999734,old_stationery_38.png,198,4.0,0.9747758000157773,,,,,,059,11,2025-03-20_16h36.59.544,Surprise recog test,2023.1.3,59.92153879538237,
198,0,198,0,,,,,,,,,,,,,,,,,,,,,,,,,,,,,,,,,,635.7076929998584,636.7356632000301,634.7292384998873,634.7292384998873,634.7292384998873,634.7292384998873,old_fruit_34.png,199,4.0,0.979617599863559,,,,,,059,11,2025-03-20_16h36.59.544,Surprise recog test,2023.1.3,59.92153879538237,
199,0,199,0,,,,,,,,,,,,,,,,,,,,,,,,,,,,,,,,,,638.1097422000021,639.1315226999577,636.7356632000301,636.7356632000301,636.7356632000301,636.7356632000301,old_sceneIn_45.png,200,4.0,1.3758937998209149,,,,,,059,11,2025-03-20_16h36.59.544,Surprise recog test,2023.1.3,59.92153879538237,
200,0,200,0,,,,,,,,,,,,,,,,,,,,,,,,,,,,,,,,,,640.6809354999568,641.6940800000448,639.1315226999577,639.1315226999577,639.1315226999577,639.1315226999577,old_fruit_27.png,201,4.0,1.5506406999193132,,,,,,059,11,2025-03-20_16h36.59.544,Surprise recog test,2023.1.3,59.92153879538237,
201,0,201,0,,,,,,,,,,,,,,,,,,,,,,,,,,,,,,,,,,643.0380469998345,644.0596962999552,641.6940800000448,641.6940800000448,641.6940800000448,641.6940800000448,old_stationery_37.png,202,5.0,1.3377570000011474,,,,,,059,11,2025-03-20_16h36.59.544,Surprise recog test,2023.1.3,59.92153879538237,
202,0,202,0,,,,,,,,,,,,,,,,,,,,,,,,,,,,,,,,,,645.7002071999013,646.7277740999125,644.0596962999552,644.0596962999552,644.0596962999552,644.0596962999552,new_fruit_5.png,203,3.0,1.644851400051266,,,,,,059,11,2025-03-20_16h36.59.544,Surprise recog test,2023.1.3,59.92153879538237,
203,0,203,0,,,,,,,,,,,,,,,,,,,,,,,,,,,,,,,,,,647.9133568999823,648.9307101999875,646.7277740999125,646.7277740999125,646.7277740999125,646.7277740999125,new_sceneOut_5.png,204,4.0,1.18702910002321,,,,,,059,11,2025-03-20_16h36.59.544,Surprise recog test,2023.1.3,59.92153879538237,
204,0,204,0,,,,,,,,,,,,,,,,,,,,,,,,,,,,,,,,,,651.1487863999791,,648.9307101999875,648.9307101999875,648.9307101999875,648.9307101999875,old_fruit_47.png,205,1.0,2.2154824999161065,,,,,,059,11,2025-03-20_16h36.59.544,Surprise recog test,2023.1.3,59.92153879538237,
205,0,205,0,,,,,,,,,,,,,,,,,,,,,,,,,,,,,,,,,,653.5529251999687,654.5869219000451,652.1808301999699,652.1808301999699,652.1808301999699,652.1808301999699,new_sceneIn_12.png,206,2.0,1.3738159998320043,,,,,,059,11,2025-03-20_16h36.59.544,Surprise recog test,2023.1.3,59.92153879538237,
206,0,206,0,,,,,,,,,,,,,,,,,,,,,,,,,,,,,,,,,,655.7658934998326,656.7802730000112,654.5869219000451,654.5869219000451,654.5869219000451,654.5869219000451,old_fruit_12.png,207,2.0,1.182123700156808,,,,,,059,11,2025-03-20_16h36.59.544,Surprise recog test,2023.1.3,59.92153879538237,
207,0,207,0,,,,,,,,,,,,,,,,,,,,,,,,,,,,,,,,,,658.6456885000225,659.6596802000422,656.7802730000112,656.7802730000112,656.7802730000112,656.7802730000112,old_sceneIn_8.png,208,3.0,1.8671581000089645,,,,,,059,11,2025-03-20_16h36.59.544,Surprise recog test,2023.1.3,59.92153879538237,
208,0,208,0,,,,,,,,,,,,,,,,,,,,,,,,,,,,,,,,,,661.0138183999807,662.0285712999757,659.6596802000422,659.6596802000422,659.6596802000422,659.6596802000422,old_fruit_31.png,209,4.0,1.3498113001696765,,,,,,059,11,2025-03-20_16h36.59.544,Surprise recog test,2023.1.3,59.92153879538237,
209,0,209,0,,,,,,,,,,,,,,,,,,,,,,,,,,,,,,,,,,664.5391752000432,665.5603495999239,662.0285712999757,662.0285712999757,662.0285712999757,662.0285712999757,new_sceneIn_4.png,210,4.0,2.5049227999988943,,,,,,059,11,2025-03-20_16h36.59.544,Surprise recog test,2023.1.3,59.92153879538237,
210,0,210,0,,,,,,,,,,,,,,,,,,,,,,,,,,,,,,,,,,667.0438538999297,,665.5603495999239,665.5603495999239,665.5603495999239,665.5603495999239,old_sceneIn_34.png,211,3.0,1.4856332000344992,,,,,,059,11,2025-03-20_16h36.59.544,Surprise recog test,2023.1.3,59.92153879538237,
211,0,211,0,,,,,,,,,,,,,,,,,,,,,,,,,,,,,,,,,,669.5179983999114,670.5542146998923,668.078030299861,668.078030299861,668.078030299861,668.078030299861,new_sceneIn_13.png,212,5.0,1.4432773001026362,,,,,,059,11,2025-03-20_16h36.59.544,Surprise recog test,2023.1.3,59.92153879538237,
212,0,212,0,,,,,,,,,,,,,,,,,,,,,,,,,,,,,,,,,,671.9471211999189,672.9670347999781,670.5542146998923,670.5542146998923,670.5542146998923,670.5542146998923,old_sceneOut_41.png,213,3.0,1.3944697000551969,,,,,,059,11,2025-03-20_16h36.59.544,Surprise recog test,2023.1.3,59.92153879538237,
213,0,213,0,,,,,,,,,,,,,,,,,,,,,,,,,,,,,,,,,,673.7197646999266,674.7482300000265,672.9670347999781,672.9670347999781,672.9670347999781,672.9670347999781,old_sceneOut_45.png,214,3.0,0.7532149001490325,,,,,,059,11,2025-03-20_16h36.59.544,Surprise recog test,2023.1.3,59.92153879538237,
214,0,214,0,,,,,,,,,,,,,,,,,,,,,,,,,,,,,,,,,,675.2489387998357,676.263737199828,674.7482300000265,674.7482300000265,674.7482300000265,674.7482300000265,new_sceneOut_14.png,215,3.0,0.5003120999317616,,,,,,059,11,2025-03-20_16h36.59.544,Surprise recog test,2023.1.3,59.92153879538237,
215,0,215,0,,,,,,,,,,,,,,,,,,,,,,,,,,,,,,,,,,678.7342713999096,679.754542700015,676.263737199828,676.263737199828,676.263737199828,676.263737199828,new_stationery_43.png,216,4.0,2.461794100003317,,,,,,059,11,2025-03-20_16h36.59.544,Surprise recog test,2023.1.3,59.92153879538237,
216,0,216,0,,,,,,,,,,,,,,,,,,,,,,,,,,,,,,,,,,681.5583993999753,682.5759839999955,679.754542700015,679.754542700015,679.754542700015,679.754542700015,new_sceneIn_44.png,217,5.0,1.805481200106442,,,,,,059,11,2025-03-20_16h36.59.544,Surprise recog test,2023.1.3,59.92153879538237,
217,0,217,0,,,,,,,,,,,,,,,,,,,,,,,,,,,,,,,,,,686.1157233000267,687.1445911999326,682.5759839999955,682.5759839999955,682.5759839999955,682.5759839999955,new_sceneOut_15.png,218,4.0,3.53252620017156,,,,,,059,11,2025-03-20_16h36.59.544,Surprise recog test,2023.1.3,59.92153879538237,
218,0,218,0,,,,,,,,,,,,,,,,,,,,,,,,,,,,,,,,,,688.3995216998737,689.4310113999527,687.1445911999326,687.1445911999326,687.1445911999326,687.1445911999326,old_stationery_4.png,219,4.0,1.2531365999020636,,,,,,059,11,2025-03-20_16h36.59.544,Surprise recog test,2023.1.3,59.92153879538237,
219,0,219,0,,,,,,,,,,,,,,,,,,,,,,,,,,,,,,,,,,690.6340534000192,691.6606864999048,689.4310113999527,689.4310113999527,689.4310113999527,689.4310113999527,old_sceneIn_19.png,220,4.0,1.2047274000942707,,,,,,059,11,2025-03-20_16h36.59.544,Surprise recog test,2023.1.3,59.92153879538237,
220,0,220,0,,,,,,,,,,,,,,,,,,,,,,,,,,,,,,,,,,692.9977956998628,694.0170869999565,691.6606864999048,691.6606864999048,691.6606864999048,691.6606864999048,old_fruit_48.png,221,1.0,1.335868899943307,,,,,,059,11,2025-03-20_16h36.59.544,Surprise recog test,2023.1.3,59.92153879538237,
221,0,221,0,,,,,,,,,,,,,,,,,,,,,,,,,,,,,,,,,,695.0006713999901,,694.0170869999565,694.0170869999565,694.0170869999565,694.0170869999565,old_stationery_32.png,222,1.0,0.9854176000226289,,,,,,059,11,2025-03-20_16h36.59.544,Surprise recog test,2023.1.3,59.92153879538237,
222,0,222,0,,,,,,,,,,,,,,,,,,,,,,,,,,,,,,,,,,697.1635354999453,698.1755309000146,696.0405741999857,696.0405741999857,696.0405741999857,696.0405741999857,new_stationery_33.png,223,2.0,1.1264776000753045,,,,,,059,11,2025-03-20_16h36.59.544,Surprise recog test,2023.1.3,59.92153879538237,
223,0,223,0,,,,,,,,,,,,,,,,,,,,,,,,,,,,,,,,,,699.4849407998845,700.5066376999021,698.1755309000146,698.1755309000146,698.1755309000146,698.1755309000146,old_sceneOut_39.png,224,4.0,1.3002534999977797,,,,,,059,11,2025-03-20_16h36.59.544,Surprise recog test,2023.1.3,59.92153879538237,
224,0,224,0,,,,,,,,,,,,,,,,,,,,,,,,,,,,,,,,,,701.3673707998823,702.3900186999235,700.5066376999021,700.5066376999021,700.5066376999021,700.5066376999021,old_stationery_42.png,225,3.0,0.8633018000982702,,,,,,059,11,2025-03-20_16h36.59.544,Surprise recog test,2023.1.3,59.92153879538237,
225,0,225,0,,,,,,,,,,,,,,,,,,,,,,,,,,,,,,,,,,703.0572986998595,,702.3900186999235,702.3900186999235,702.3900186999235,702.3900186999235,new_fruit_25.png,226,3.0,0.669210399966687,,,,,,059,11,2025-03-20_16h36.59.544,Surprise recog test,2023.1.3,59.92153879538237,
226,0,226,0,,,,,,,,,,,,,,,,,,,,,,,,,,,,,,,,,,704.657930499874,,704.0905944998376,704.0905944998376,704.0905944998376,704.0905944998376,old_sceneOut_20.png,227,3.0,0.567227799911052,,,,,,059,11,2025-03-20_16h36.59.544,Surprise recog test,2023.1.3,59.92153879538237,
227,0,227,0,,,,,,,,,,,,,,,,,,,,,,,,,,,,,,,,,,706.5074543999508,707.5305707999505,705.6906061999034,705.6906061999034,705.6906061999034,705.6906061999034,old_sceneOut_28.png,228,2.0,0.8116537998430431,,,,,,059,11,2025-03-20_16h36.59.544,Surprise recog test,2023.1.3,59.92153879538237,
228,0,228,0,,,,,,,,,,,,,,,,,,,,,,,,,,,,,,,,,,708.8926603998989,709.8983594998717,707.5305707999505,707.5305707999505,707.5305707999505,707.5305707999505,old_stationery_45.png,229,1.0,1.357918000081554,,,,,,059,11,2025-03-20_16h36.59.544,Surprise recog test,2023.1.3,59.92153879538237,
229,0,229,0,,,,,,,,,,,,,,,,,,,,,,,,,,,,,,,,,,710.7109364999924,711.7161238000263,709.8983594998717,709.8983594998717,709.8983594998717,709.8983594998717,old_sceneIn_47.png,230,1.0,0.8051022000145167,,,,,,059,11,2025-03-20_16h36.59.544,Surprise recog test,2023.1.3,59.92153879538237,
230,0,230,0,,,,,,,,,,,,,,,,,,,,,,,,,,,,,,,,,,713.3296129999217,714.3349276999943,711.7161238000263,711.7161238000263,711.7161238000263,711.7161238000263,old_fruit_17.png,231,4.0,1.6036763000302017,,,,,,059,11,2025-03-20_16h36.59.544,Surprise recog test,2023.1.3,59.92153879538237,
231,0,231,0,,,,,,,,,,,,,,,,,,,,,,,,,,,,,,,,,,717.1329729999416,718.1390068000183,714.3349276999943,714.3349276999943,714.3349276999943,714.3349276999943,new_stationery_18.png,232,3.0,2.793947600061074,,,,,,059,11,2025-03-20_16h36.59.544,Surprise recog test,2023.1.3,59.92153879538237,
232,0,232,0,,,,,,,,,,,,,,,,,,,,,,,,,,,,,,,,,,719.5015267999843,720.5214584998321,718.1390068000183,718.1390068000183,718.1390068000183,718.1390068000183,old_sceneIn_12.png,233,2.0,1.3541145999915898,,,,,,059,11,2025-03-20_16h36.59.544,Surprise recog test,2023.1.3,59.92153879538237,
233,0,233,0,,,,,,,,,,,,,,,,,,,,,,,,,,,,,,,,,,722.8966322999913,723.9297519999091,720.5214584998321,720.5214584998321,720.5214584998321,720.5214584998321,new_sceneIn_28.png,234,1.0,2.3770820000208914,,,,,,059,11,2025-03-20_16h36.59.544,Surprise recog test,2023.1.3,59.92153879538237,
234,0,234,0,,,,,,,,,,,,,,,,,,,,,,,,,,,,,,,,,,725.2748658000492,726.29757649987,723.9297519999091,723.9297519999091,723.9297519999091,723.9297519999091,old_sceneOut_43.png,235,4.0,1.3477348999585956,,,,,,059,11,2025-03-20_16h36.59.544,Surprise recog test,2023.1.3,59.92153879538237,
235,0,235,0,,,,,,,,,,,,,,,,,,,,,,,,,,,,,,,,,,728.220649600029,729.2485026000068,726.29757649987,726.29757649987,726.29757649987,726.29757649987,old_sceneOut_33.png,236,5.0,1.925681000109762,,,,,,059,11,2025-03-20_16h36.59.544,Surprise recog test,2023.1.3,59.92153879538237,
236,0,236,0,,,,,,,,,,,,,,,,,,,,,,,,,,,,,,,,,,731.3566588000394,732.387795599876,729.2485026000068,729.2485026000068,729.2485026000068,729.2485026000068,old_fruit_9.png,237,2.0,2.1122264000587165,,,,,,059,11,2025-03-20_16h36.59.544,Surprise recog test,2023.1.3,59.92153879538237,
237,0,237,0,,,,,,,,,,,,,,,,,,,,,,,,,,,,,,,,,,734.2885696999729,735.3178348999936,732.387795599876,732.387795599876,732.387795599876,732.387795599876,new_stationery_17.png,238,4.0,1.9039700001012534,,,,,,059,11,2025-03-20_16h36.59.544,Surprise recog test,2023.1.3,59.92153879538237,
238,0,238,0,,,,,,,,,,,,,,,,,,,,,,,,,,,,,,,,,,740.3020587998908,,735.3178348999936,735.3178348999936,735.3178348999936,735.3178348999936,new_sceneIn_10.png,239,None,None,740.2869716999121,,,,,059,11,2025-03-20_16h36.59.544,Surprise recog test,2023.1.3,59.92153879538237,
239,0,239,0,,,,,,,,,,,,,,,,,,,,,,,,,,,,,,,,,,743.7153987998608,744.7306343000382,741.3238772000186,741.3238772000186,741.3238772000186,741.3238772000186,old_sceneOut_36.png,240,5.0,2.3952403999865055,,,,,,059,11,2025-03-20_16h36.59.544,Surprise recog test,2023.1.3,59.92153879538237,
240,0,240,0,,,,,,,,,,,,,,,,,,,,,,,,,,,,,,,,,,747.491604299983,748.5000207999256,744.7306343000382,744.7306343000382,744.7306343000382,744.7306343000382,new_sceneOut_35.png,241,3.0,2.757177900057286,,,,,,059,11,2025-03-20_16h36.59.544,Surprise recog test,2023.1.3,59.92153879538237,
241,0,241,0,,,,,,,,,,,,,,,,,,,,,,,,,,,,,,,,,,752.6185733999591,753.6508440000471,748.5000207999256,748.5000207999256,748.5000207999256,748.5000207999256,new_sceneOut_1.png,242,2.0,4.1150433998554945,,,,,,059,11,2025-03-20_16h36.59.544,Surprise recog test,2023.1.3,59.92153879538237,
242,0,242,0,,,,,,,,,,,,,,,,,,,,,,,,,,,,,,,,,,755.1665049998555,756.184669099981,753.6508440000471,753.6508440000471,753.6508440000471,753.6508440000471,new_stationery_30.png,243,5.0,1.5179657998960465,,,,,,059,11,2025-03-20_16h36.59.544,Surprise recog test,2023.1.3,59.92153879538237,
243,0,243,0,,,,,,,,,,,,,,,,,,,,,,,,,,,,,,,,,,758.1989612998441,759.2208769000135,756.184669099981,756.184669099981,756.184669099981,756.184669099981,old_sceneOut_26.png,244,5.0,2.0103489998728037,,,,,,059,11,2025-03-20_16h36.59.544,Surprise recog test,2023.1.3,59.92153879538237,
244,0,244,0,,,,,,,,,,,,,,,,,,,,,,,,,,,,,,,,,,761.1916626000311,762.2241835999303,759.2208769000135,759.2208769000135,759.2208769000135,759.2208769000135,new_fruit_32.png,245,5.0,1.973431000020355,,,,,,059,11,2025-03-20_16h36.59.544,Surprise recog test,2023.1.3,59.92153879538237,
245,0,245,0,,,,,,,,,,,,,,,,,,,,,,,,,,,,,,,,,,763.4645193000324,764.4949987998698,762.2241835999303,762.2241835999303,762.2241835999303,762.2241835999303,new_sceneOut_17.png,246,5.0,1.2422855999320745,,,,,,059,11,2025-03-20_16h36.59.544,Surprise recog test,2023.1.3,59.92153879538237,
246,0,246,0,,,,,,,,,,,,,,,,,,,,,,,,,,,,,,,,,,767.0151158999652,768.0449645000044,764.4949987998698,764.4949987998698,764.4949987998698,764.4949987998698,new_sceneOut_13.png,247,5.0,2.5243143001571298,,,,,,059,11,2025-03-20_16h36.59.544,Surprise recog test,2023.1.3,59.92153879538237,
247,0,247,0,,,,,,,,,,,,,,,,,,,,,,,,,,,,,,,,,,773.0295343999751,,768.0449645000044,768.0449645000044,768.0449645000044,768.0449645000044,old_sceneIn_4.png,248,None,None,773.0143621999305,,,,,059,11,2025-03-20_16h36.59.544,Surprise recog test,2023.1.3,59.92153879538237,
248,0,248,0,,,,,,,,,,,,,,,,,,,,,,,,,,,,,,,,,,777.505268199835,778.5370213999413,774.0368059000466,774.0368059000466,774.0368059000466,774.0368059000466,new_sceneIn_46.png,249,5.0,3.463926099939272,,,,,,059,11,2025-03-20_16h36.59.544,Surprise recog test,2023.1.3,59.92153879538237,
249,0,249,0,,,,,,,,,,,,,,,,,,,,,,,,,,,,,,,,,,782.9622514999937,783.9961983000394,778.5370213999413,778.5370213999413,778.5370213999413,778.5370213999413,new_sceneOut_29.png,250,5.0,4.428012100048363,,,,,,059,11,2025-03-20_16h36.59.544,Surprise recog test,2023.1.3,59.92153879538237,
250,0,250,0,,,,,,,,,,,,,,,,,,,,,,,,,,,,,,,,,,786.2423081998713,787.2487085999455,783.9961983000394,783.9961983000394,783.9961983000394,783.9961983000394,new_stationery_26.png,251,5.0,2.2474388999398798,,,,,,059,11,2025-03-20_16h36.59.544,Surprise recog test,2023.1.3,59.92153879538237,
251,0,251,0,,,,,,,,,,,,,,,,,,,,,,,,,,,,,,,,,,792.2600803000387,,787.2487085999455,787.2487085999455,787.2487085999455,787.2487085999455,old_sceneOut_27.png,252,None,None,792.2600803000387,792.2600803000387,792.2600803000387,792.2600803000387,,059,11,2025-03-20_16h36.59.544,Surprise recog test,2023.1.3,59.92153879538237,
252,0,252,0,,,,,,,,,,,,,,,,,,,,,,,,,,,,,,,,,,796.5580304998439,797.5799650999252,793.2804431000259,793.2804431000259,793.2804431000259,793.2804431000259,old_stationery_6.png,253,1.0,3.279906600015238,,,,,,059,11,2025-03-20_16h36.59.544,Surprise recog test,2023.1.3,59.92153879538237,
253,0,253,0,,,,,,,,,,,,,,,,,,,,,,,,,,,,,,,,,,800.9168801999185,801.9439409000333,797.5799650999252,797.5799650999252,797.5799650999252,797.5799650999252,old_sceneIn_26.png,254,1.0,3.331771500175819,,,,,,059,11,2025-03-20_16h36.59.544,Surprise recog test,2023.1.3,59.92153879538237,
254,0,254,0,,,,,,,,,,,,,,,,,,,,,,,,,,,,,,,,,,806.9244263998698,807.935494299978,801.9439409000333,801.9439409000333,801.9439409000333,801.9439409000333,old_sceneOut_25.png,255,None,None,,,,,,059,11,2025-03-20_16h36.59.544,Surprise recog test,2023.1.3,59.92153879538237,
255,0,255,0,,,,,,,,,,,,,,,,,,,,,,,,,,,,,,,,,,809.8341625998728,810.8512015000451,807.935494299978,807.935494299978,807.935494299978,807.935494299978,old_sceneIn_1.png,256,3.0,1.8982303000520915,,,,,,059,11,2025-03-20_16h36.59.544,Surprise recog test,2023.1.3,59.92153879538237,
256,0,256,0,,,,,,,,,,,,,,,,,,,,,,,,,,,,,,,,,,813.5929678999819,814.6161239999346,810.8512015000451,810.8512015000451,810.8512015000451,810.8512015000451,new_sceneOut_11.png,257,5.0,2.7370508001185954,,,,,,059,11,2025-03-20_16h36.59.544,Surprise recog test,2023.1.3,59.92153879538237,
257,0,257,0,,,,,,,,,,,,,,,,,,,,,,,,,,,,,,,,,,818.5439681999851,819.57885049982,814.6161239999346,814.6161239999346,814.6161239999346,814.6161239999346,new_sceneIn_11.png,258,1.0,3.930295400088653,,,,,,059,11,2025-03-20_16h36.59.544,Surprise recog test,2023.1.3,59.92153879538237,
258,0,258,0,,,,,,,,,,,,,,,,,,,,,,,,,,,,,,,,,,821.418279199861,822.425786799984,819.57885049982,819.57885049982,819.57885049982,819.57885049982,new_stationery_34.png,259,5.0,1.843271099962294,,,,,,059,11,2025-03-20_16h36.59.544,Surprise recog test,2023.1.3,59.92153879538237,
259,0,259,0,,,,,,,,,,,,,,,,,,,,,,,,,,,,,,,,,,825.66476399987,826.6824165999424,822.425786799984,822.425786799984,822.425786799984,822.425786799984,new_fruit_23.png,260,5.0,3.2351311000529677,,,,,,059,11,2025-03-20_16h36.59.544,Surprise recog test,2023.1.3,59.92153879538237,
260,0,260,0,,,,,,,,,,,,,,,,,,,,,,,,,,,,,,,,,,828.9209359998349,829.9448966998607,826.6824165999424,826.6824165999424,826.6824165999424,826.6824165999424,old_fruit_38.png,261,5.0,2.234530400019139,,,,,,059,11,2025-03-20_16h36.59.544,Surprise recog test,2023.1.3,59.92153879538237,
261,0,261,0,,,,,,,,,,,,,,,,,,,,,,,,,,,,,,,,,,832.368540499825,833.383676599944,829.9448966998607,829.9448966998607,829.9448966998607,829.9448966998607,new_stationery_44.png,262,1.0,2.424455199856311,,,,,,059,11,2025-03-20_16h36.59.544,Surprise recog test,2023.1.3,59.92153879538237,
262,0,262,0,,,,,,,,,,,,,,,,,,,,,,,,,,,,,,,,,,835.6820290000178,836.6910834999289,833.383676599944,833.383676599944,833.383676599944,833.383676599944,new_sceneIn_17.png,263,5.0,2.294569000136107,,,,,,059,11,2025-03-20_16h36.59.544,Surprise recog test,2023.1.3,59.92153879538237,
263,0,263,0,,,,,,,,,,,,,,,,,,,,,,,,,,,,,,,,,,839.4771459999029,840.5042904999573,836.6910834999289,836.6910834999289,836.6910834999289,836.6910834999289,new_sceneIn_47.png,264,1.0,2.7795655999798328,,,,,,059,11,2025-03-20_16h36.59.544,Surprise recog test,2023.1.3,59.92153879538237,
264,0,264,0,,,,,,,,,,,,,,,,,,,,,,,,,,,,,,,,,,845.4895832999609,,840.5042904999573,840.5042904999573,840.5042904999573,840.5042904999573,old_stationery_49.png,265,None,None,845.4760218998417,,,,,059,11,2025-03-20_16h36.59.544,Surprise recog test,2023.1.3,59.92153879538237,
265,0,265,0,,,,,,,,,,,,,,,,,,,,,,,,,,,,,,,,,,849.1262721999083,850.1346142999828,846.5099481998477,846.5099481998477,846.5099481998477,846.5099481998477,old_sceneIn_38.png,266,5.0,2.6194915999658406,,,,,,059,11,2025-03-20_16h36.59.544,Surprise recog test,2023.1.3,59.92153879538237,
266,0,266,0,,,,,,,,,,,,,,,,,,,,,,,,,,,,,,,,,,852.4295820000116,853.4505570998881,850.1346142999828,850.1346142999828,850.1346142999828,850.1346142999828,new_stationery_12.png,267,2.0,2.291294499998912,,,,,,059,11,2025-03-20_16h36.59.544,Surprise recog test,2023.1.3,59.92153879538237,
267,0,267,0,,,,,,,,,,,,,,,,,,,,,,,,,,,,,,,,,,855.9700413998216,856.9865651999135,853.4505570998881,853.4505570998881,853.4505570998881,853.4505570998881,old_stationery_13.png,268,2.0,2.5207233000546694,,,,,,059,11,2025-03-20_16h36.59.544,Surprise recog test,2023.1.3,59.92153879538237,
268,0,268,0,,,,,,,,,,,,,,,,,,,,,,,,,,,,,,,,,,858.4767262998503,859.5047416999005,856.9865651999135,856.9865651999135,856.9865651999135,856.9865651999135,old_sceneOut_46.png,269,3.0,1.4862470999360085,,,,,,059,11,2025-03-20_16h36.59.544,Surprise recog test,2023.1.3,59.92153879538237,
269,0,269,0,,,,,,,,,,,,,,,,,,,,,,,,,,,,,,,,,,860.5626970999874,861.5929156998172,859.5047416999005,859.5047416999005,859.5047416999005,859.5047416999005,old_sceneIn_18.png,270,2.0,1.057594999903813,,,,,,059,11,2025-03-20_16h36.59.544,Surprise recog test,2023.1.3,59.92153879538237,
270,0,270,0,,,,,,,,,,,,,,,,,,,,,,,,,,,,,,,,,,862.8928155000322,863.9257779000327,861.5929156998172,861.5929156998172,861.5929156998172,861.5929156998172,new_sceneIn_8.png,271,2.0,1.304052900057286,,,,,,059,11,2025-03-20_16h36.59.544,Surprise recog test,2023.1.3,59.92153879538237,
271,0,271,0,,,,,,,,,,,,,,,,,,,,,,,,,,,,,,,,,,865.6701638998929,866.6905741000082,863.9257779000327,863.9257779000327,863.9257779000327,863.9257779000327,new_stationery_36.png,272,3.0,1.7471274000126868,,,,,,059,11,2025-03-20_16h36.59.544,Surprise recog test,2023.1.3,59.92153879538237,
272,0,272,0,,,,,,,,,,,,,,,,,,,,,,,,,,,,,,,,,,870.4663706000429,871.4962565000169,866.6905741000082,866.6905741000082,866.6905741000082,866.6905741000082,old_sceneOut_14.png,273,4.0,3.7779198999051005,,,,,,059,11,2025-03-20_16h36.59.544,Surprise recog test,2023.1.3,59.92153879538237,
273,0,273,0,,,,,,,,,,,,,,,,,,,,,,,,,,,,,,,,,,873.0617904998362,874.0824923999608,871.4962565000169,871.4962565000169,871.4962565000169,871.4962565000169,old_sceneOut_4.png,274,4.0,1.56643300014548,,,,,,059,11,2025-03-20_16h36.59.544,Surprise recog test,2023.1.3,59.92153879538237,
274,0,274,0,,,,,,,,,,,,,,,,,,,,,,,,,,,,,,,,,,875.6167607998941,,874.0824923999608,874.0824923999608,874.0824923999608,874.0824923999608,old_stationery_12.png,275,1.0,1.5359659001696855,,,,,,059,11,2025-03-20_16h36.59.544,Surprise recog test,2023.1.3,59.92153879538237,
275,0,275,0,,,,,,,,,,,,,,,,,,,,,,,,,,,,,,,,,,878.411267099902,879.4324906000402,876.6524743998889,876.6524743998889,876.6524743998889,876.6524743998889,old_sceneOut_29.png,276,3.0,1.759529999922961,,,,,,059,11,2025-03-20_16h36.59.544,Surprise recog test,2023.1.3,59.92153879538237,
276,0,276,0,,,,,,,,,,,,,,,,,,,,,,,,,,,,,,,,,,880.5746536999941,881.605753300013,879.4324906000402,879.4324906000402,879.4324906000402,879.4324906000402,old_sceneOut_44.png,277,4.0,1.1441896001342684,,,,,,059,11,2025-03-20_16h36.59.544,Surprise recog test,2023.1.3,59.92153879538237,
277,0,277,0,,,,,,,,,,,,,,,,,,,,,,,,,,,,,,,,,,882.6774346998427,883.6971387998201,881.605753300013,881.605753300013,881.605753300013,881.605753300013,old_stationery_11.png,278,1.0,1.0738502999302,,,,,,059,11,2025-03-20_16h36.59.544,Surprise recog test,2023.1.3,59.92153879538237,
278,0,278,0,,,,,,,,,,,,,,,,,,,,,,,,,,,,,,,,,,885.6649034000002,886.6928766998462,883.6971387998201,883.6971387998201,883.6971387998201,883.6971387998201,new_sceneIn_40.png,279,5.0,1.964567600050941,,,,,,059,11,2025-03-20_16h36.59.544,Surprise recog test,2023.1.3,59.92153879538237,
279,0,279,0,,,,,,,,,,,,,,,,,,,,,,,,,,,,,,,,,,888.4422684998717,889.4562705999706,886.6928766998462,886.6928766998462,886.6928766998462,886.6928766998462,old_sceneOut_17.png,280,5.0,1.7512204002123326,,,,,,059,11,2025-03-20_16h36.59.544,Surprise recog test,2023.1.3,59.92153879538237,
280,0,280,0,,,,,,,,,,,,,,,,,,,,,,,,,,,,,,,,,,891.0501276999712,892.0701196000446,889.4562705999706,889.4562705999706,889.4562705999706,889.4562705999706,old_fruit_18.png,281,2.0,1.5946612998377532,,,,,,059,11,2025-03-20_16h36.59.544,Surprise recog test,2023.1.3,59.92153879538237,
281,0,281,0,,,,,,,,,,,,,,,,,,,,,,,,,,,,,,,,,,893.5297291998286,894.5445883998182,892.0701196000446,892.0701196000446,892.0701196000446,892.0701196000446,old_sceneIn_42.png,282,2.0,1.4493052000179887,,,,,,059,11,2025-03-20_16h36.59.544,Surprise recog test,2023.1.3,59.92153879538237,
282,0,282,0,,,,,,,,,,,,,,,,,,,,,,,,,,,,,,,,,,895.7401030999608,896.7620814000256,894.5445883998182,894.5445883998182,894.5445883998182,894.5445883998182,old_sceneOut_22.png,283,4.0,1.1958494998980314,,,,,,059,11,2025-03-20_16h36.59.544,Surprise recog test,2023.1.3,59.92153879538237,
283,0,283,0,,,,,,,,,,,,,,,,,,,,,,,,,,,,,,,,,,897.7075618000235,898.7394128998276,896.7620814000256,896.7620814000256,896.7620814000256,896.7620814000256,new_sceneOut_32.png,284,4.0,0.9453378999605775,,,,,,059,11,2025-03-20_16h36.59.544,Surprise recog test,2023.1.3,59.92153879538237,
284,0,284,0,,,,,,,,,,,,,,,,,,,,,,,,,,,,,,,,,,900.4017874000128,901.424819199834,898.7394128998276,898.7394128998276,898.7394128998276,898.7394128998276,new_sceneIn_21.png,285,1.0,1.6663060002028942,,,,,,059,11,2025-03-20_16h36.59.544,Surprise recog test,2023.1.3,59.92153879538237,
285,0,285,0,,,,,,,,,,,,,,,,,,,,,,,,,,,,,,,,,,902.3577196998522,,901.424819199834,901.424819199834,901.424819199834,901.424819199834,old_sceneIn_5.png,286,1.0,0.9344796999357641,,,,,,059,11,2025-03-20_16h36.59.544,Surprise recog test,2023.1.3,59.92153879538237,
286,0,286,0,,,,,,,,,,,,,,,,,,,,,,,,,,,,,,,,,,905.7233064000029,906.7437775998842,903.3908547000028,903.3908547000028,903.3908547000028,903.3908547000028,old_fruit_36.png,287,5.0,2.3287744000554085,,,,,,059,11,2025-03-20_16h36.59.544,Surprise recog test,2023.1.3,59.92153879538237,
287,0,287,0,,,,,,,,,,,,,,,,,,,,,,,,,,,,,,,,,,909.9526755998377,910.9833325999789,906.7437775998842,906.7437775998842,906.7437775998842,906.7437775998842,old_sceneOut_42.png,288,4.0,3.20904909982346,,,,,,059,11,2025-03-20_16h36.59.544,Surprise recog test,2023.1.3,59.92153879538237,
288,0,288,0,,,,,,,,,,,,,,,,,,,,,,,,,,,,,,,,,,912.468431700021,913.4981294998433,910.9833325999789,910.9833325999789,910.9833325999789,910.9833325999789,new_sceneIn_27.png,289,2.0,1.487710300134495,,,,,,059,11,2025-03-20_16h36.59.544,Surprise recog test,2023.1.3,59.92153879538237,
289,0,289,0,,,,,,,,,,,,,,,,,,,,,,,,,,,,,,,,,,916.4040090998169,917.4244627000298,913.4981294998433,913.4981294998433,913.4981294998433,913.4981294998433,new_sceneIn_48.png,290,3.0,2.908169100061059,,,,,,059,11,2025-03-20_16h36.59.544,Surprise recog test,2023.1.3,59.92153879538237,
290,0,290,0,,,,,,,,,,,,,,,,,,,,,,,,,,,,,,,,,,919.1713527999818,,917.4244627000298,917.4244627000298,917.4244627000298,917.4244627000298,new_sceneOut_22.png,291,5.0,1.7433456999715418,,,,,,059,11,2025-03-20_16h36.59.544,Surprise recog test,2023.1.3,59.92153879538237,
291,0,291,0,,,,,,,,,,,,,,,,,,,,,,,,,,,,,,,,,,922.0217491998337,923.038883100031,920.1917717999313,920.1917717999313,920.1917717999313,920.1917717999313,new_fruit_1.png,292,1.0,1.8236739002168179,,,,,,059,11,2025-03-20_16h36.59.544,Surprise recog test,2023.1.3,59.92153879538237,
292,0,292,0,,,,,,,,,,,,,,,,,,,,,,,,,,,,,,,,,,924.6632316999603,925.6826805998571,923.038883100031,923.038883100031,923.038883100031,923.038883100031,new_stationery_39.png,293,3.0,1.6282388002146035,,,,,,059,11,2025-03-20_16h36.59.544,Surprise recog test,2023.1.3,59.92153879538237,
293,0,293,0,,,,,,,,,,,,,,,,,,,,,,,,,,,,,,,,,,927.3450384000316,,925.6826805998571,925.6826805998571,925.6826805998571,925.6826805998571,new_fruit_38.png,294,4.0,1.6569032999686897,,,,,,059,11,2025-03-20_16h36.59.544,Surprise recog test,2023.1.3,59.92153879538237,
294,0,294,0,,,,,,,,,,,,,,,,,,,,,,,,,,,,,,,,,,931.338203900028,932.3658133000135,928.3660718000028,928.3660718000028,928.3660718000028,928.3660718000028,new_sceneIn_5.png,295,2.0,2.966430200031027,,,,,,059,11,2025-03-20_16h36.59.544,Surprise recog test,2023.1.3,59.92153879538237,
295,0,295,0,,,,,,,,,,,,,,,,,,,,,,,,,,,,,,,,,,934.9161409998778,935.9334690000396,932.3658133000135,932.3658133000135,932.3658133000135,932.3658133000135,new_sceneIn_36.png,296,5.0,2.553384599974379,,,,,,059,11,2025-03-20_16h36.59.544,Surprise recog test,2023.1.3,59.92153879538237,
296,0,296,0,,,,,,,,,,,,,,,,,,,,,,,,,,,,,,,,,,938.9508684000466,939.9749848998617,935.9334690000396,935.9334690000396,935.9334690000396,935.9334690000396,new_sceneOut_44.png,297,4.0,3.013254899997264,,,,,,059,11,2025-03-20_16h36.59.544,Surprise recog test,2023.1.3,59.92153879538237,
297,0,297,0,,,,,,,,,,,,,,,,,,,,,,,,,,,,,,,,,,941.3017045999877,942.3263816998806,939.9749848998617,939.9749848998617,939.9749848998617,939.9749848998617,new_sceneIn_41.png,298,4.0,1.330613899976015,,,,,,059,11,2025-03-20_16h36.59.544,Surprise recog test,2023.1.3,59.92153879538237,
298,0,298,0,,,,,,,,,,,,,,,,,,,,,,,,,,,,,,,,,,943.492322999984,,942.3263816998806,942.3263816998806,942.3263816998806,942.3263816998806,old_sceneIn_32.png,299,2.0,1.1690936000086367,,,,,,059,11,2025-03-20_16h36.59.544,Surprise recog test,2023.1.3,59.92153879538237,
299,0,299,0,,,,,,,,,,,,,,,,,,,,,,,,,,,,,,,,,,946.3266337998211,,944.5125282998197,944.5125282998197,944.5125282998197,944.5125282998197,old_fruit_41.png,300,4.0,1.8113808000925928,,,,,,059,11,2025-03-20_16h36.59.544,Surprise recog test,2023.1.3,59.92153879538237,
300,0,300,0,,,,,,,,,,,,,,,,,,,,,,,,,,,,,,,,,,948.8311069000047,949.8636502998415,947.3580690999515,947.3580690999515,947.3580690999515,947.3580690999515,old_fruit_16.png,301,2.0,1.475251100026071,,,,,,059,11,2025-03-20_16h36.59.544,Surprise recog test,2023.1.3,59.92153879538237,
301,0,301,0,,,,,,,,,,,,,,,,,,,,,,,,,,,,,,,,,,950.7691826999653,951.7914313999936,949.8636502998415,949.8636502998415,949.8636502998415,949.8636502998415,new_stationery_45.png,302,2.0,0.9072135000023991,,,,,,059,11,2025-03-20_16h36.59.544,Surprise recog test,2023.1.3,59.92153879538237,
302,0,302,0,,,,,,,,,,,,,,,,,,,,,,,,,,,,,,,,,,953.1884107999504,954.2146464998368,951.7914313999936,951.7914313999936,951.7914313999936,951.7914313999936,old_stationery_30.png,303,3.0,1.398204900091514,,,,,,059,11,2025-03-20_16h36.59.544,Surprise recog test,2023.1.3,59.92153879538237,
303,0,303,0,,,,,,,,,,,,,,,,,,,,,,,,,,,,,,,,,,955.4068660999183,956.4191349998582,954.2146464998368,954.2146464998368,954.2146464998368,954.2146464998368,old_stationery_31.png,304,2.0,1.192366800038144,,,,,,059,11,2025-03-20_16h36.59.544,Surprise recog test,2023.1.3,59.92153879538237,
304,0,304,0,,,,,,,,,,,,,,,,,,,,,,,,,,,,,,,,,,957.9262604999822,958.9559426999185,956.4191349998582,956.4191349998582,956.4191349998582,956.4191349998582,new_fruit_6.png,305,4.0,1.5008110001217574,,,,,,059,11,2025-03-20_16h36.59.544,Surprise recog test,2023.1.3,59.92153879538237,
305,0,305,0,,,,,,,,,,,,,,,,,,,,,,,,,,,,,,,,,,960.6660290998407,961.678932499839,958.9559426999185,958.9559426999185,958.9559426999185,958.9559426999185,old_fruit_4.png,306,5.0,1.7139270999468863,,,,,,059,11,2025-03-20_16h36.59.544,Surprise recog test,2023.1.3,59.92153879538237,
306,0,306,0,,,,,,,,,,,,,,,,,,,,,,,,,,,,,,,,,,964.0898653999902,965.1088344999589,961.678932499839,961.678932499839,961.678932499839,961.678932499839,old_stationery_3.png,307,3.0,2.407454099971801,,,,,,059,11,2025-03-20_16h36.59.544,Surprise recog test,2023.1.3,59.92153879538237,
307,0,307,0,,,,,,,,,,,,,,,,,,,,,,,,,,,,,,,,,,966.4321995999198,967.4498699000105,965.1088344999589,965.1088344999589,965.1088344999589,965.1088344999589,new_fruit_45.png,308,2.0,1.3242937000468373,,,,,,059,11,2025-03-20_16h36.59.544,Surprise recog test,2023.1.3,59.92153879538237,
308,0,308,0,,,,,,,,,,,,,,,,,,,,,,,,,,,,,,,,,,968.6343000000343,969.6598600000143,967.4498699000105,967.4498699000105,967.4498699000105,967.4498699000105,old_fruit_46.png,309,4.0,1.1796103999949992,,,,,,059,11,2025-03-20_16h36.59.544,Surprise recog test,2023.1.3,59.92153879538237,
309,0,309,0,,,,,,,,,,,,,,,,,,,,,,,,,,,,,,,,,,972.5261104998644,973.5470261999872,969.6598600000143,969.6598600000143,969.6598600000143,969.6598600000143,new_fruit_24.png,310,5.0,2.8678011000156403,,,,,,059,11,2025-03-20_16h36.59.544,Surprise recog test,2023.1.3,59.92153879538237,
310,0,310,0,,,,,,,,,,,,,,,,,,,,,,,,,,,,,,,,,,974.9253495999146,975.9387144998182,973.5470261999872,973.5470261999872,973.5470261999872,973.5470261999872,new_fruit_37.png,311,4.0,1.3803660001140088,,,,,,059,11,2025-03-20_16h36.59.544,Surprise recog test,2023.1.3,59.92153879538237,
311,0,311,0,,,,,,,,,,,,,,,,,,,,,,,,,,,,,,,,,,977.4312348999083,978.4373465999961,975.9387144998182,975.9387144998182,975.9387144998182,975.9387144998182,old_sceneIn_6.png,312,4.0,1.4883110001683235,,,,,,059,11,2025-03-20_16h36.59.544,Surprise recog test,2023.1.3,59.92153879538237,
312,0,312,0,,,,,,,,,,,,,,,,,,,,,,,,,,,,,,,,,,979.5790493998211,980.5975730000064,978.4373465999961,978.4373465999961,978.4373465999961,978.4373465999961,old_fruit_22.png,313,2.0,1.137269000057131,,,,,,059,11,2025-03-20_16h36.59.544,Surprise recog test,2023.1.3,59.92153879538237,
313,0,313,0,,,,,,,,,,,,,,,,,,,,,,,,,,,,,,,,,,982.0825465999078,983.0945072998293,980.5975730000064,980.5975730000064,980.5975730000064,980.5975730000064,old_sceneOut_47.png,314,1.0,1.484265899984166,,,,,,059,11,2025-03-20_16h36.59.544,Surprise recog test,2023.1.3,59.92153879538237,
314,0,314,0,,,,,,,,,,,,,,,,,,,,,,,,,,,,,,,,,,984.6968206998426,985.7238034999464,983.0945072998293,983.0945072998293,983.0945072998293,983.0945072998293,new_stationery_38.png,315,4.0,1.5988021998200566,,,,,,059,11,2025-03-20_16h36.59.544,Surprise recog test,2023.1.3,59.92153879538237,
315,0,315,0,,,,,,,,,,,,,,,,,,,,,,,,,,,,,,,,,,986.716348499991,987.7385706999339,985.7238034999464,985.7238034999464,985.7238034999464,985.7238034999464,new_stationery_11.png,316,2.0,0.9951794999651611,,,,,,059,11,2025-03-20_16h36.59.544,Surprise recog test,2023.1.3,59.92153879538237,
316,0,316,0,,,,,,,,,,,,,,,,,,,,,,,,,,,,,,,,,,988.5254460000433,989.5458285999484,987.7385706999339,987.7385706999339,987.7385706999339,987.7385706999339,new_stationery_9.png,317,2.0,0.7862517000176013,,,,,,059,11,2025-03-20_16h36.59.544,Surprise recog test,2023.1.3,59.92153879538237,
317,0,317,0,,,,,,,,,,,,,,,,,,,,,,,,,,,,,,,,,,991.3134137999732,,989.5458285999484,989.5458285999484,989.5458285999484,989.5458285999484,new_sceneIn_7.png,318,3.0,1.7700662000570446,,,,,,059,11,2025-03-20_16h36.59.544,Surprise recog test,2023.1.3,59.92153879538237,
318,0,318,0,,,,,,,,,,,,,,,,,,,,,,,,,,,,,,,,,,994.614742100006,995.6359235998243,992.341763400007,992.341763400007,992.341763400007,992.341763400007,new_sceneOut_26.png,319,4.0,2.2735681000631303,,,,,,059,11,2025-03-20_16h36.59.544,Surprise recog test,2023.1.3,59.92153879538237,
319,0,319,0,,,,,,,,,,,,,,,,,,,,,,,,,,,,,,,,,,1000.6179947999772,1001.6250848998316,995.6359235998243,995.6359235998243,995.6359235998243,995.6359235998243,new_sceneIn_3.png,320,None,None,1000.6115309000015,,,,,059,11,2025-03-20_16h36.59.544,Surprise recog test,2023.1.3,59.92153879538237,
320,0,320,0,,,,,,,,,,,,,,,,,,,,,,,,,,,,,,,,,,1003.8882181998342,1004.9082826999947,1001.6250848998316,1001.6250848998316,1001.6250848998316,1001.6250848998316,new_stationery_19.png,321,4.0,2.259661399992183,,,,,,059,11,2025-03-20_16h36.59.544,Surprise recog test,2023.1.3,59.92153879538237,
321,0,321,0,,,,,,,,,,,,,,,,,,,,,,,,,,,,,,,,,,1009.9051023998763,,1004.9082826999947,1004.9082826999947,1004.9082826999947,1004.9082826999947,new_sceneIn_2.png,322,None,None,1009.8967625999358,,,,,059,11,2025-03-20_16h36.59.544,Surprise recog test,2023.1.3,59.92153879538237,
322,0,322,0,,,,,,,,,,,,,,,,,,,,,,,,,,,,,,,,,,1013.4879182998557,1014.5009830999188,1010.9253773000091,1010.9253773000091,1010.9253773000091,1010.9253773000091,new_stationery_37.png,323,5.0,2.5618841000832617,,,,,,059,11,2025-03-20_16h36.59.544,Surprise recog test,2023.1.3,59.92153879538237,
323,0,323,0,,,,,,,,,,,,,,,,,,,,,,,,,,,,,,,,,,1015.7468165999744,1016.7559927999973,1014.5009830999188,1014.5009830999188,1014.5009830999188,1014.5009830999188,old_sceneOut_31.png,324,5.0,1.2422884998377413,,,,,,059,11,2025-03-20_16h36.59.544,Surprise recog test,2023.1.3,59.92153879538237,
324,0,324,0,,,,,,,,,,,,,,,,,,,,,,,,,,,,,,,,,,1017.924461199902,1018.9496693999972,1016.7559927999973,1016.7559927999973,1016.7559927999973,1016.7559927999973,old_stationery_14.png,325,2.0,1.1645219000056386,,,,,,059,11,2025-03-20_16h36.59.544,Surprise recog test,2023.1.3,59.92153879538237,
325,0,325,0,,,,,,,,,,,,,,,,,,,,,,,,,,,,,,,,,,1019.9454272999428,1020.9727304000407,1018.9496693999972,1018.9496693999972,1018.9496693999972,1018.9496693999972,old_fruit_43.png,326,2.0,0.9969925000332296,,,,,,059,11,2025-03-20_16h36.59.544,Surprise recog test,2023.1.3,59.92153879538237,
326,0,326,0,,,,,,,,,,,,,,,,,,,,,,,,,,,,,,,,,,1022.3300061000045,1023.3594331999775,1020.9727304000407,1020.9727304000407,1020.9727304000407,1020.9727304000407,old_sceneIn_24.png,327,2.0,1.3574716001749039,,,,,,059,11,2025-03-20_16h36.59.544,Surprise recog test,2023.1.3,59.92153879538237,
327,0,327,0,,,,,,,,,,,,,,,,,,,,,,,,,,,,,,,,,,1024.8726860999595,1025.8810663998593,1023.3594331999775,1023.3594331999775,1023.3594331999775,1023.3594331999775,new_fruit_29.png,328,4.0,1.5157556000631303,,,,,,059,11,2025-03-20_16h36.59.544,Surprise recog test,2023.1.3,59.92153879538237,
328,0,328,0,,,,,,,,,,,,,,,,,,,,,,,,,,,,,,,,,,1026.6719819998834,1027.681336299982,1025.8810663998593,1025.8810663998593,1025.8810663998593,1025.8810663998593,old_stationery_5.png,329,3.0,0.7880189002025872,,,,,,059,11,2025-03-20_16h36.59.544,Surprise recog test,2023.1.3,59.92153879538237,
329,0,329,0,,,,,,,,,,,,,,,,,,,,,,,,,,,,,,,,,,1028.8142847998533,1029.8461290998384,1027.681336299982,1027.681336299982,1027.681336299982,1027.681336299982,new_fruit_8.png,330,3.0,1.1311703999526799,,,,,,059,11,2025-03-20_16h36.59.544,Surprise recog test,2023.1.3,59.92153879538237,
330,0,330,0,,,,,,,,,,,,,,,,,,,,,,,,,,,,,,,,,,1031.4283551999833,1032.4468705998734,1029.8461290998384,1029.8461290998384,1029.8461290998384,1029.8461290998384,old_fruit_5.png,331,5.0,1.5832154001109302,,,,,,059,11,2025-03-20_16h36.59.544,Surprise recog test,2023.1.3,59.92153879538237,
331,0,331,0,,,,,,,,,,,,,,,,,,,,,,,,,,,,,,,,,,1033.6633736998774,1034.683285200037,1032.4468705998734,1032.4468705998734,1032.4468705998734,1032.4468705998734,new_stationery_13.png,332,5.0,1.2187786002177745,,,,,,059,11,2025-03-20_16h36.59.544,Surprise recog test,2023.1.3,59.92153879538237,
332,0,332,0,,,,,,,,,,,,,,,,,,,,,,,,,,,,,,,,,,1035.8525710999966,,1034.683285200037,1034.683285200037,1034.683285200037,1034.683285200037,old_stationery_28.png,333,2.0,1.171420200029388,,,,,,059,11,2025-03-20_16h36.59.544,Surprise recog test,2023.1.3,59.92153879538237,
333,0,333,0,,,,,,,,,,,,,,,,,,,,,,,,,,,,,,,,,,1038.7602144998964,1039.7904346999712,1036.873481699964,1036.873481699964,1036.873481699964,1036.873481699964,new_stationery_28.png,334,4.0,1.8817272000014782,,,,,,059,11,2025-03-20_16h36.59.544,Surprise recog test,2023.1.3,59.92153879538237,
334,0,334,0,,,,,,,,,,,,,,,,,,,,,,,,,,,,,,,,,,1041.3420906998217,1042.3667905000038,1039.7904346999712,1039.7904346999712,1039.7904346999712,1039.7904346999712,new_fruit_35.png,335,5.0,1.5543006998486817,,,,,,059,11,2025-03-20_16h36.59.544,Surprise recog test,2023.1.3,59.92153879538237,
335,0,335,0,,,,,,,,,,,,,,,,,,,,,,,,,,,,,,,,,,1044.4632879998535,1045.4921291999053,1042.3667905000038,1042.3667905000038,1042.3667905000038,1042.3667905000038,new_fruit_12.png,336,5.0,2.0967081000562757,,,,,,059,11,2025-03-20_16h36.59.544,Surprise recog test,2023.1.3,59.92153879538237,
336,0,336,0,,,,,,,,,,,,,,,,,,,,,,,,,,,,,,,,,,1048.4843617000151,1049.5130685998593,1045.4921291999053,1045.4921291999053,1045.4921291999053,1045.4921291999053,old_sceneIn_15.png,337,5.0,2.994359799893573,,,,,,059,11,2025-03-20_16h36.59.544,Surprise recog test,2023.1.3,59.92153879538237,
337,0,337,0,,,,,,,,,,,,,,,,,,,,,,,,,,,,,,,,,,1052.4355044998229,1053.463591199834,1049.5130685998593,1049.5130685998593,1049.5130685998593,1049.5130685998593,old_sceneOut_49.png,338,4.0,2.924327899934724,,,,,,059,11,2025-03-20_16h36.59.544,Surprise recog test,2023.1.3,59.92153879538237,
338,0,338,0,,,,,,,,,,,,,,,,,,,,,,,,,,,,,,,,,,1055.2537981998175,1056.2736384999007,1053.463591199834,1053.463591199834,1053.463591199834,1053.463591199834,new_fruit_41.png,339,5.0,1.7904725999105722,,,,,,059,11,2025-03-20_16h36.59.544,Surprise recog test,2023.1.3,59.92153879538237,
339,0,339,0,,,,,,,,,,,,,,,,,,,,,,,,,,,,,,,,,,1061.1862826999277,1062.1950926999561,1056.2736384999007,1056.2736384999007,1056.2736384999007,1056.2736384999007,new_stationery_47.png,340,4.0,4.9094873000867665,,,,,,059,11,2025-03-20_16h36.59.544,Surprise recog test,2023.1.3,59.92153879538237,
340,0,340,0,,,,,,,,,,,,,,,,,,,,,,,,,,,,,,,,,,1063.306193499826,,1062.1950926999561,1062.1950926999561,1062.1950926999561,1062.1950926999561,new_fruit_49.png,341,3.0,1.1063317998778075,,,,,,059,11,2025-03-20_16h36.59.544,Surprise recog test,2023.1.3,59.92153879538237,
341,0,341,0,,,,,,,,,,,,,,,,,,,,,,,,,,,,,,,,,,1065.7102414998226,,1064.3268287000246,1064.3268287000246,1064.3268287000246,1064.3268287000246,new_sceneOut_28.png,342,3.0,1.3784338000696152,,,,,,059,11,2025-03-20_16h36.59.544,Surprise recog test,2023.1.3,59.92153879538237,
342,0,342,0,,,,,,,,,,,,,,,,,,,,,,,,,,,,,,,,,,1068.1084018999245,1069.13156969985,1066.7434368999675,1066.7434368999675,1066.7434368999675,1066.7434368999675,old_sceneIn_16.png,343,5.0,1.3657213000115007,,,,,,059,11,2025-03-20_16h36.59.544,Surprise recog test,2023.1.3,59.92153879538237,
343,0,343,0,,,,,,,,,,,,,,,,,,,,,,,,,,,,,,,,,,1070.5066066998988,1071.5348813999444,1069.13156969985,1069.13156969985,1069.13156969985,1069.13156969985,new_fruit_18.png,344,2.0,1.3787745998706669,,,,,,059,11,2025-03-20_16h36.59.544,Surprise recog test,2023.1.3,59.92153879538237,
344,0,344,0,,,,,,,,,,,,,,,,,,,,,,,,,,,,,,,,,,1073.1243777999189,1074.1506165999454,1071.5348813999444,1071.5348813999444,1071.5348813999444,1071.5348813999444,old_sceneOut_7.png,345,2.0,1.5936442001257092,,,,,,059,11,2025-03-20_16h36.59.544,Surprise recog test,2023.1.3,59.92153879538237,
345,0,345,0,,,,,,,,,,,,,,,,,,,,,,,,,,,,,,,,,,1075.5685751999263,,1074.1506165999454,1074.1506165999454,1074.1506165999454,1074.1506165999454,old_fruit_24.png,346,4.0,1.420844699954614,,,,,,059,11,2025-03-20_16h36.59.544,Surprise recog test,2023.1.3,59.92153879538237,
346,0,346,0,,,,,,,,,,,,,,,,,,,,,,,,,,,,,,,,,,1078.3961982999463,1079.4220084999688,1076.587656199932,1076.587656199932,1076.587656199932,1076.587656199932,old_stationery_46.png,347,5.0,1.8056256999261677,,,,,,059,11,2025-03-20_16h36.59.544,Surprise recog test,2023.1.3,59.92153879538237,
347,0,347,0,,,,,,,,,,,,,,,,,,,,,,,,,,,,,,,,,,1080.831736400025,1081.85665709991,1079.4220084999688,1079.4220084999688,1079.4220084999688,1079.4220084999688,old_sceneIn_46.png,348,5.0,1.4114956001285464,,,,,,059,11,2025-03-20_16h36.59.544,Surprise recog test,2023.1.3,59.92153879538237,
