trial_loop.thisRepN,trial_loop.thisTrialN,trial_loop.thisN,trial_loop.thisIndex,VAS_slider.started,VAS_text.started,VAS_notstressed_text.started,VAS_stressed_text.started,continue_input.started,continue_text.started,label0.started,label10.started,label20.started,label30.started,label40.started,label50.started,label60.started,label70.started,label80.started,label90.started,label100.started,VAS_slider.response,VAS_slider.rt,VAS_slider.history,Answer_VAS,continue_input.keys,instruction_text.started,continue_text_2.started,continue_input_2.started,continue_input_2.keys,continue_input_2.rt,continue_input_2.duration,example_text.started,example_slider_2.started,example_image.started,example_slider_2.response,example_slider_2.rt,fixcross.started,fixcross.stopped,front_square.started,stim_images.started,trial_inst_images.started,slider_images.started,thisImg,trial_count,slider_images.response,slider_images.rt,outro.started,participant,condition,date,expName,psychopyVersion,frameRate,
,,,,208.11258229985833,208.11258229985833,208.11258229985833,208.11258229985833,208.11258229985833,208.11258229985833,208.11258229985833,208.11258229985833,208.11258229985833,208.11258229985833,208.11258229985833,208.11258229985833,208.11258229985833,208.11258229985833,208.11258229985833,208.11258229985833,208.11258229985833,0.33888888888888913,6.1739364000968635,"[(0.33888888888888913, 6.1739364000968635)]",0.33888888888888913,None,,,,,,,,,,,,,,,,,,,,,,,060,01,2025-04-29_16h35.47.729,Surprise recog test,2023.1.3,59.92814601044299,
,,,,,,,,,,,,,,,,,,,,,,,,,,214.3149252999574,214.3149252999574,214.3149252999574,space,32.778165800031275,None,,,,,,,,,,,,,,,,,060,01,2025-04-29_16h35.47.729,Surprise recog test,2023.1.3,59.92814601044299,
0,0,0,0,,,,,,,,,,,,,,,,,,,,,,,,,,,,,247.22174869989976,247.22174869989976,247.22174869989976,1.0,9.867316899821162,261.3309587999247,262.3540070997551,258.0518944999203,258.0518944999203,258.0518944999203,258.0518944999203,new_sceneOut_36.png,1,4.0,3.279730400070548,,060,01,2025-04-29_16h35.47.729,Surprise recog test,2023.1.3,59.92814601044299,
1,0,1,0,,,,,,,,,,,,,,,,,,,,,,,,,,,,,,,,,,265.555316099897,266.567889300175,262.3540070997551,262.3540070997551,262.3540070997551,262.3540070997551,new_stationery_26.png,2,5.0,3.202130999881774,,060,01,2025-04-29_16h35.47.729,Surprise recog test,2023.1.3,59.92814601044299,
2,0,2,0,,,,,,,,,,,,,,,,,,,,,,,,,,,,,,,,,,268.0662627997808,269.09100320003927,266.567889300175,266.567889300175,266.567889300175,266.567889300175,old_sceneIn_35.png,3,2.0,1.496181100141257,,060,01,2025-04-29_16h35.47.729,Surprise recog test,2023.1.3,59.92814601044299,
3,0,3,0,,,,,,,,,,,,,,,,,,,,,,,,,,,,,,,,,,270.94367069983855,,269.09100320003927,269.09100320003927,269.09100320003927,269.09100320003927,old_stationery_44.png,4,3.0,1.854178000241518,,060,01,2025-04-29_16h35.47.729,Surprise recog test,2023.1.3,59.92814601044299,
4,0,4,0,,,,,,,,,,,,,,,,,,,,,,,,,,,,,,,,,,273.454029600136,274.47457790002227,271.9623386999592,271.9623386999592,271.9623386999592,271.9623386999592,old_sceneIn_19.png,5,2.0,1.4862189996056259,,060,01,2025-04-29_16h35.47.729,Surprise recog test,2023.1.3,59.92814601044299,
5,0,5,0,,,,,,,,,,,,,,,,,,,,,,,,,,,,,,,,,,275.97583980020136,276.9999199998565,274.47457790002227,274.47457790002227,274.47457790002227,274.47457790002227,old_sceneIn_26.png,6,4.0,1.5024055996909738,,060,01,2025-04-29_16h35.47.729,Surprise recog test,2023.1.3,59.92814601044299,
6,0,6,0,,,,,,,,,,,,,,,,,,,,,,,,,,,,,,,,,,278.6921852999367,279.7071517999284,276.9999199998565,276.9999199998565,276.9999199998565,276.9999199998565,new_stationery_15.png,7,1.0,1.6944565000012517,,060,01,2025-04-29_16h35.47.729,Surprise recog test,2023.1.3,59.92814601044299,
7,0,7,0,,,,,,,,,,,,,,,,,,,,,,,,,,,,,,,,,,280.78599110012874,,279.7071517999284,279.7071517999284,279.7071517999284,279.7071517999284,old_sceneIn_37.png,8,2.0,1.0754145998507738,,060,01,2025-04-29_16h35.47.729,Surprise recog test,2023.1.3,59.92814601044299,
8,0,8,0,,,,,,,,,,,,,,,,,,,,,,,,,,,,,,,,,,283.6695698001422,284.676620000042,281.81959370011464,281.81959370011464,281.81959370011464,281.81959370011464,new_fruit_13.png,9,3.0,1.8540034997276962,,060,01,2025-04-29_16h35.47.729,Surprise recog test,2023.1.3,59.92814601044299,
9,0,9,0,,,,,,,,,,,,,,,,,,,,,,,,,,,,,,,,,,286.05221060011536,287.0751800998114,284.676620000042,284.676620000042,284.676620000042,284.676620000042,new_stationery_5.png,10,4.0,1.3720871000550687,,060,01,2025-04-29_16h35.47.729,Surprise recog test,2023.1.3,59.92814601044299,
10,0,10,0,,,,,,,,,,,,,,,,,,,,,,,,,,,,,,,,,,288.28304240014404,289.30901579977944,287.0751800998114,287.0751800998114,287.0751800998114,287.0751800998114,old_sceneOut_47.png,11,2.0,1.2061529997736216,,060,01,2025-04-29_16h35.47.729,Surprise recog test,2023.1.3,59.92814601044299,
11,0,11,0,,,,,,,,,,,,,,,,,,,,,,,,,,,,,,,,,,290.28820519987494,291.30449069989845,289.30901579977944,289.30901579977944,289.30901579977944,289.30901579977944,new_sceneOut_25.png,12,2.0,0.9813830000348389,,060,01,2025-04-29_16h35.47.729,Surprise recog test,2023.1.3,59.92814601044299,
12,0,12,0,,,,,,,,,,,,,,,,,,,,,,,,,,,,,,,,,,292.92949210014194,,291.30449069989845,291.30449069989845,291.30449069989845,291.30449069989845,new_fruit_43.png,13,5.0,1.625689100008458,,060,01,2025-04-29_16h35.47.729,Surprise recog test,2023.1.3,59.92814601044299,
13,0,13,0,,,,,,,,,,,,,,,,,,,,,,,,,,,,,,,,,,295.6016810000874,296.6286924998276,293.95099159982055,293.95099159982055,293.95099159982055,293.95099159982055,new_fruit_5.png,14,2.0,1.6462860996834934,,060,01,2025-04-29_16h35.47.729,Surprise recog test,2023.1.3,59.92814601044299,
14,0,14,0,,,,,,,,,,,,,,,,,,,,,,,,,,,,,,,,,,297.7203143001534,298.7459511999041,296.6286924998276,296.6286924998276,296.6286924998276,296.6286924998276,old_sceneOut_24.png,15,1.0,1.0934728998690844,,060,01,2025-04-29_16h35.47.729,Surprise recog test,2023.1.3,59.92814601044299,
15,0,15,0,,,,,,,,,,,,,,,,,,,,,,,,,,,,,,,,,,299.7159051997587,300.73780919983983,298.7459511999041,298.7459511999041,298.7459511999041,298.7459511999041,old_sceneOut_32.png,16,1.0,0.971560999751091,,060,01,2025-04-29_16h35.47.729,Surprise recog test,2023.1.3,59.92814601044299,
16,0,16,0,,,,,,,,,,,,,,,,,,,,,,,,,,,,,,,,,,301.9169927001931,302.93209169991314,300.73780919983983,300.73780919983983,300.73780919983983,300.73780919983983,old_stationery_50.png,17,2.0,1.1777805001474917,,060,01,2025-04-29_16h35.47.729,Surprise recog test,2023.1.3,59.92814601044299,
17,0,17,0,,,,,,,,,,,,,,,,,,,,,,,,,,,,,,,,,,303.6700756000355,304.68355599977076,302.93209169991314,302.93209169991314,302.93209169991314,302.93209169991314,old_sceneOut_19.png,18,4.0,0.7361667999066412,,060,01,2025-04-29_16h35.47.729,Surprise recog test,2023.1.3,59.92814601044299,
18,0,18,0,,,,,,,,,,,,,,,,,,,,,,,,,,,,,,,,,,305.27179619995877,,304.68355599977076,304.68355599977076,304.68355599977076,304.68355599977076,new_sceneIn_50.png,19,3.0,0.5863665002398193,,060,01,2025-04-29_16h35.47.729,Surprise recog test,2023.1.3,59.92814601044299,
19,0,19,0,,,,,,,,,,,,,,,,,,,,,,,,,,,,,,,,,,307.1716901999898,308.19143169978634,306.3057514000684,306.3057514000684,306.3057514000684,306.3057514000684,new_stationery_3.png,20,5.0,0.8678735997527838,,060,01,2025-04-29_16h35.47.729,Surprise recog test,2023.1.3,59.92814601044299,
20,0,20,0,,,,,,,,,,,,,,,,,,,,,,,,,,,,,,,,,,309.1328990999609,310.1466024001129,308.19143169978634,308.19143169978634,308.19143169978634,308.19143169978634,old_fruit_50.png,21,2.0,0.9433145998045802,,060,01,2025-04-29_16h35.47.729,Surprise recog test,2023.1.3,59.92814601044299,
21,0,21,0,,,,,,,,,,,,,,,,,,,,,,,,,,,,,,,,,,312.1102602998726,313.1264725998044,310.1466024001129,310.1466024001129,310.1466024001129,310.1466024001129,new_fruit_41.png,22,5.0,1.9585513002239168,,060,01,2025-04-29_16h35.47.729,Surprise recog test,2023.1.3,59.92814601044299,
22,0,22,0,,,,,,,,,,,,,,,,,,,,,,,,,,,,,,,,,,314.1892074001953,315.21339889988303,313.1264725998044,313.1264725998044,313.1264725998044,313.1264725998044,old_sceneOut_34.png,23,2.0,1.0648238002322614,,060,01,2025-04-29_16h35.47.729,Surprise recog test,2023.1.3,59.92814601044299,
23,0,23,0,,,,,,,,,,,,,,,,,,,,,,,,,,,,,,,,,,315.82063189987093,316.85442479979247,315.21339889988303,315.21339889988303,315.21339889988303,315.21339889988303,old_sceneIn_28.png,24,3.0,0.609172800090164,,060,01,2025-04-29_16h35.47.729,Surprise recog test,2023.1.3,59.92814601044299,
24,0,24,0,,,,,,,,,,,,,,,,,,,,,,,,,,,,,,,,,,318.5496037998237,,316.85442479979247,316.85442479979247,316.85442479979247,316.85442479979247,new_fruit_19.png,25,1.0,1.6986301997676492,,060,01,2025-04-29_16h35.47.729,Surprise recog test,2023.1.3,59.92814601044299,
25,0,25,0,,,,,,,,,,,,,,,,,,,,,,,,,,,,,,,,,,320.3718964001164,321.39088479988277,319.5870050000958,319.5870050000958,319.5870050000958,319.5870050000958,new_stationery_7.png,26,3.0,0.7888298998586833,,060,01,2025-04-29_16h35.47.729,Surprise recog test,2023.1.3,59.92814601044299,
26,0,26,0,,,,,,,,,,,,,,,,,,,,,,,,,,,,,,,,,,322.5052642999217,,321.39088479988277,321.39088479988277,321.39088479988277,321.39088479988277,old_sceneIn_4.png,27,1.0,1.1101969997398555,,060,01,2025-04-29_16h35.47.729,Surprise recog test,2023.1.3,59.92814601044299,
27,0,27,0,,,,,,,,,,,,,,,,,,,,,,,,,,,,,,,,,,325.239238999784,,323.53632269985974,323.53632269985974,323.53632269985974,323.53632269985974,new_sceneIn_23.png,28,4.0,1.7035540002398193,,060,01,2025-04-29_16h35.47.729,Surprise recog test,2023.1.3,59.92814601044299,
28,0,28,0,,,,,,,,,,,,,,,,,,,,,,,,,,,,,,,,,,328.0745155001059,,326.27050259988755,326.27050259988755,326.27050259988755,326.27050259988755,new_stationery_32.png,29,5.0,1.8065857999026775,,060,01,2025-04-29_16h35.47.729,Surprise recog test,2023.1.3,59.92814601044299,
29,0,29,0,,,,,,,,,,,,,,,,,,,,,,,,,,,,,,,,,,330.1696847998537,331.1932655000128,329.1080479999073,329.1080479999073,329.1080479999073,329.1080479999073,new_stationery_4.png,30,4.0,1.0642929999157786,,060,01,2025-04-29_16h35.47.729,Surprise recog test,2023.1.3,59.92814601044299,
30,0,30,0,,,,,,,,,,,,,,,,,,,,,,,,,,,,,,,,,,332.1835213000886,333.21493719983846,331.1932655000128,331.1932655000128,331.1932655000128,331.1932655000128,new_sceneOut_46.png,31,2.0,0.9899570001289248,,060,01,2025-04-29_16h35.47.729,Surprise recog test,2023.1.3,59.92814601044299,
31,0,31,0,,,,,,,,,,,,,,,,,,,,,,,,,,,,,,,,,,334.14038870017976,335.1632424001582,333.21493719983846,333.21493719983846,333.21493719983846,333.21493719983846,new_sceneIn_19.png,32,3.0,0.9257823000662029,,060,01,2025-04-29_16h35.47.729,Surprise recog test,2023.1.3,59.92814601044299,
32,0,32,0,,,,,,,,,,,,,,,,,,,,,,,,,,,,,,,,,,336.3956778999418,337.40132950013503,335.1632424001582,335.1632424001582,335.1632424001582,335.1632424001582,old_sceneOut_27.png,33,3.0,1.2303661997430027,,060,01,2025-04-29_16h35.47.729,Surprise recog test,2023.1.3,59.92814601044299,
33,0,33,0,,,,,,,,,,,,,,,,,,,,,,,,,,,,,,,,,,338.4798972001299,339.4886139999144,337.40132950013503,337.40132950013503,337.40132950013503,337.40132950013503,old_sceneOut_1.png,34,4.0,1.0722525999881327,,060,01,2025-04-29_16h35.47.729,Surprise recog test,2023.1.3,59.92814601044299,
34,0,34,0,,,,,,,,,,,,,,,,,,,,,,,,,,,,,,,,,,340.2728507001884,341.2964221998118,339.4886139999144,339.4886139999144,339.4886139999144,339.4886139999144,old_sceneOut_29.png,35,2.0,0.7796519999392331,,060,01,2025-04-29_16h35.47.729,Surprise recog test,2023.1.3,59.92814601044299,
35,0,35,0,,,,,,,,,,,,,,,,,,,,,,,,,,,,,,,,,,342.34337500017136,343.36480790004134,341.2964221998118,341.2964221998118,341.2964221998118,341.2964221998118,old_stationery_30.png,36,1.0,1.0459928000345826,,060,01,2025-04-29_16h35.47.729,Surprise recog test,2023.1.3,59.92814601044299,
36,0,36,0,,,,,,,,,,,,,,,,,,,,,,,,,,,,,,,,,,344.1939862999134,345.22198679996654,343.36480790004134,343.36480790004134,343.36480790004134,343.36480790004134,new_fruit_22.png,37,2.0,0.8294697999954224,,060,01,2025-04-29_16h35.47.729,Surprise recog test,2023.1.3,59.92814601044299,
37,0,37,0,,,,,,,,,,,,,,,,,,,,,,,,,,,,,,,,,,346.1181831001304,347.12889599986374,345.22198679996654,345.22198679996654,345.22198679996654,345.22198679996654,new_sceneIn_7.png,38,3.0,0.8963485001586378,,060,01,2025-04-29_16h35.47.729,Surprise recog test,2023.1.3,59.92814601044299,
38,0,38,0,,,,,,,,,,,,,,,,,,,,,,,,,,,,,,,,,,348.05226110015064,349.064340100158,347.12889599986374,347.12889599986374,347.12889599986374,347.12889599986374,new_sceneOut_18.png,39,4.0,0.9192897002212703,,060,01,2025-04-29_16h35.47.729,Surprise recog test,2023.1.3,59.92814601044299,
39,0,39,0,,,,,,,,,,,,,,,,,,,,,,,,,,,,,,,,,,350.15695390012115,351.1845889999531,349.064340100158,349.064340100158,349.064340100158,349.064340100158,old_fruit_6.png,40,1.0,1.0883396998979151,,060,01,2025-04-29_16h35.47.729,Surprise recog test,2023.1.3,59.92814601044299,
40,0,40,0,,,,,,,,,,,,,,,,,,,,,,,,,,,,,,,,,,352.29205369995907,353.316905700136,351.1845889999531,351.1845889999531,351.1845889999531,351.1845889999531,old_stationery_40.png,41,1.0,1.1113734003156424,,060,01,2025-04-29_16h35.47.729,Surprise recog test,2023.1.3,59.92814601044299,
41,0,41,0,,,,,,,,,,,,,,,,,,,,,,,,,,,,,,,,,,354.16822679992765,355.18140809983015,353.316905700136,353.316905700136,353.316905700136,353.316905700136,new_sceneIn_33.png,42,3.0,0.8525021998211741,,060,01,2025-04-29_16h35.47.729,Surprise recog test,2023.1.3,59.92814601044299,
42,0,42,0,,,,,,,,,,,,,,,,,,,,,,,,,,,,,,,,,,356.28644570009783,357.3083227998577,355.18140809983015,355.18140809983015,355.18140809983015,355.18140809983015,new_fruit_29.png,43,4.0,1.100901400204748,,060,01,2025-04-29_16h35.47.729,Surprise recog test,2023.1.3,59.92814601044299,
43,0,43,0,,,,,,,,,,,,,,,,,,,,,,,,,,,,,,,,,,358.2044649999589,359.23700449988246,357.3083227998577,357.3083227998577,357.3083227998577,357.3083227998577,old_sceneIn_8.png,44,4.0,0.8962228000164032,,060,01,2025-04-29_16h35.47.729,Surprise recog test,2023.1.3,59.92814601044299,
44,0,44,0,,,,,,,,,,,,,,,,,,,,,,,,,,,,,,,,,,360.1221427000128,361.13941999990493,359.23700449988246,359.23700449988246,359.23700449988246,359.23700449988246,new_stationery_25.png,45,2.0,0.887600100133568,,060,01,2025-04-29_16h35.47.729,Surprise recog test,2023.1.3,59.92814601044299,
45,0,45,0,,,,,,,,,,,,,,,,,,,,,,,,,,,,,,,,,,361.9767145998776,363.005549099762,361.13941999990493,361.13941999990493,361.13941999990493,361.13941999990493,old_sceneOut_25.png,46,2.0,0.8333502002060413,,060,01,2025-04-29_16h35.47.729,Surprise recog test,2023.1.3,59.92814601044299,
46,0,46,0,,,,,,,,,,,,,,,,,,,,,,,,,,,,,,,,,,363.95021469984204,364.9689361001365,363.005549099762,363.005549099762,363.005549099762,363.005549099762,old_sceneIn_49.png,47,4.0,0.9463765001855791,,060,01,2025-04-29_16h35.47.729,Surprise recog test,2023.1.3,59.92814601044299,
47,0,47,0,,,,,,,,,,,,,,,,,,,,,,,,,,,,,,,,,,366.20967759983614,367.2294156998396,364.9689361001365,364.9689361001365,364.9689361001365,364.9689361001365,new_fruit_31.png,48,1.0,1.2427699002437294,,060,01,2025-04-29_16h35.47.729,Surprise recog test,2023.1.3,59.92814601044299,
48,0,48,0,,,,,,,,,,,,,,,,,,,,,,,,,,,,,,,,,,368.3485678997822,369.3698225999251,367.2294156998396,367.2294156998396,367.2294156998396,367.2294156998396,old_stationery_27.png,49,4.0,1.1141488999128342,,060,01,2025-04-29_16h35.47.729,Surprise recog test,2023.1.3,59.92814601044299,
49,0,49,0,,,,,,,,,,,,,,,,,,,,,,,,,,,,,,,,,,370.8313480997458,371.8519080998376,369.3698225999251,369.3698225999251,369.3698225999251,369.3698225999251,old_fruit_45.png,50,1.0,1.4602691000327468,,060,01,2025-04-29_16h35.47.729,Surprise recog test,2023.1.3,59.92814601044299,
50,0,50,0,,,,,,,,,,,,,,,,,,,,,,,,,,,,,,,,,,372.8202025000937,373.8321889000945,371.8519080998376,371.8519080998376,371.8519080998376,371.8519080998376,old_fruit_4.png,51,3.0,0.9645244004204869,,060,01,2025-04-29_16h35.47.729,Surprise recog test,2023.1.3,59.92814601044299,
51,0,51,0,,,,,,,,,,,,,,,,,,,,,,,,,,,,,,,,,,374.8709013001062,375.8900049999356,373.8321889000945,373.8321889000945,373.8321889000945,373.8321889000945,old_stationery_2.png,52,4.0,1.0343543998897076,,060,01,2025-04-29_16h35.47.729,Surprise recog test,2023.1.3,59.92814601044299,
52,0,52,0,,,,,,,,,,,,,,,,,,,,,,,,,,,,,,,,,,376.95178649993613,377.96830479986966,375.8900049999356,375.8900049999356,375.8900049999356,375.8900049999356,old_fruit_43.png,53,2.0,1.057962200138718,,060,01,2025-04-29_16h35.47.729,Surprise recog test,2023.1.3,59.92814601044299,
53,0,53,0,,,,,,,,,,,,,,,,,,,,,,,,,,,,,,,,,,378.7865519998595,379.8104212000035,377.96830479986966,377.96830479986966,377.96830479986966,377.96830479986966,old_stationery_20.png,54,4.0,0.8153745997697115,,060,01,2025-04-29_16h35.47.729,Surprise recog test,2023.1.3,59.92814601044299,
54,0,54,0,,,,,,,,,,,,,,,,,,,,,,,,,,,,,,,,,,380.45915269991383,381.4847500999458,379.8104212000035,379.8104212000035,379.8104212000035,379.8104212000035,old_stationery_1.png,55,4.0,0.644692299887538,,060,01,2025-04-29_16h35.47.729,Surprise recog test,2023.1.3,59.92814601044299,
55,0,55,0,,,,,,,,,,,,,,,,,,,,,,,,,,,,,,,,,,382.6003658999689,383.6182462000288,381.4847500999458,381.4847500999458,381.4847500999458,381.4847500999458,old_sceneIn_47.png,56,2.0,1.115845600143075,,060,01,2025-04-29_16h35.47.729,Surprise recog test,2023.1.3,59.92814601044299,
56,0,56,0,,,,,,,,,,,,,,,,,,,,,,,,,,,,,,,,,,384.920544099994,385.9410831001587,383.6182462000288,383.6182462000288,383.6182462000288,383.6182462000288,new_stationery_10.png,57,5.0,1.3031290001235902,,060,01,2025-04-29_16h35.47.729,Surprise recog test,2023.1.3,59.92814601044299,
57,0,57,0,,,,,,,,,,,,,,,,,,,,,,,,,,,,,,,,,,387.17608219990507,388.19625680008903,385.9410831001587,385.9410831001587,385.9410831001587,385.9410831001587,new_sceneOut_28.png,58,1.0,1.2373354998417199,,060,01,2025-04-29_16h35.47.729,Surprise recog test,2023.1.3,59.92814601044299,
58,0,58,0,,,,,,,,,,,,,,,,,,,,,,,,,,,,,,,,,,389.25870129978284,,388.19625680008903,388.19625680008903,388.19625680008903,388.19625680008903,new_fruit_8.png,59,1.0,1.060811800416559,,060,01,2025-04-29_16h35.47.729,Surprise recog test,2023.1.3,59.92814601044299,
59,0,59,0,,,,,,,,,,,,,,,,,,,,,,,,,,,,,,,,,,391.5606828997843,,390.2927065999247,390.2927065999247,390.2927065999247,390.2927065999247,new_sceneOut_43.png,60,1.0,1.2698003998957574,,060,01,2025-04-29_16h35.47.729,Surprise recog test,2023.1.3,59.92814601044299,
60,0,60,0,,,,,,,,,,,,,,,,,,,,,,,,,,,,,,,,,,393.92297569988295,394.9346000999212,392.57856729999185,392.57856729999185,392.57856729999185,392.57856729999185,new_fruit_2.png,61,1.0,1.3386145997792482,,060,01,2025-04-29_16h35.47.729,Surprise recog test,2023.1.3,59.92814601044299,
61,0,61,0,,,,,,,,,,,,,,,,,,,,,,,,,,,,,,,,,,396.21745159989223,397.2531512998976,394.9346000999212,394.9346000999212,394.9346000999212,394.9346000999212,old_fruit_35.png,62,1.0,1.27613959973678,,060,01,2025-04-29_16h35.47.729,Surprise recog test,2023.1.3,59.92814601044299,
62,0,62,0,,,,,,,,,,,,,,,,,,,,,,,,,,,,,,,,,,398.3798898998648,399.3878633999266,397.2531512998976,397.2531512998976,397.2531512998976,397.2531512998976,old_sceneOut_9.png,63,2.0,1.129222400020808,,060,01,2025-04-29_16h35.47.729,Surprise recog test,2023.1.3,59.92814601044299,
63,0,63,0,,,,,,,,,,,,,,,,,,,,,,,,,,,,,,,,,,400.37142449989915,401.4049893999472,399.3878633999266,399.3878633999266,399.3878633999266,399.3878633999266,new_sceneIn_21.png,64,3.0,0.9813318997621536,,060,01,2025-04-29_16h35.47.729,Surprise recog test,2023.1.3,59.92814601044299,
64,0,64,0,,,,,,,,,,,,,,,,,,,,,,,,,,,,,,,,,,402.67087520007044,,401.4049893999472,401.4049893999472,401.4049893999472,401.4049893999472,old_stationery_48.png,65,1.0,1.269752999767661,,060,01,2025-04-29_16h35.47.729,Surprise recog test,2023.1.3,59.92814601044299,
65,0,65,0,,,,,,,,,,,,,,,,,,,,,,,,,,,,,,,,,,404.7467132997699,405.773668800015,403.6914674001746,403.6914674001746,403.6914674001746,403.6914674001746,old_fruit_28.png,66,2.0,1.0510879000648856,,060,01,2025-04-29_16h35.47.729,Surprise recog test,2023.1.3,59.92814601044299,
66,0,66,0,,,,,,,,,,,,,,,,,,,,,,,,,,,,,,,,,,406.8987571997568,407.91245160019025,405.773668800015,405.773668800015,405.773668800015,405.773668800015,new_sceneOut_39.png,67,4.0,1.1234880997799337,,060,01,2025-04-29_16h35.47.729,Surprise recog test,2023.1.3,59.92814601044299,
67,0,67,0,,,,,,,,,,,,,,,,,,,,,,,,,,,,,,,,,,408.85573949990794,409.8793417001143,407.91245160019025,407.91245160019025,407.91245160019025,407.91245160019025,new_stationery_8.png,68,5.0,0.9361263997852802,,060,01,2025-04-29_16h35.47.729,Surprise recog test,2023.1.3,59.92814601044299,
68,0,68,0,,,,,,,,,,,,,,,,,,,,,,,,,,,,,,,,,,411.11428079986945,412.1365832001902,409.8793417001143,409.8793417001143,409.8793417001143,409.8793417001143,old_stationery_12.png,69,5.0,1.2365310001187027,,060,01,2025-04-29_16h35.47.729,Surprise recog test,2023.1.3,59.92814601044299,
69,0,69,0,,,,,,,,,,,,,,,,,,,,,,,,,,,,,,,,,,412.87875419994816,,412.1365832001902,412.1365832001902,412.1365832001902,412.1365832001902,old_sceneIn_41.png,70,4.0,0.741867100354284,,060,01,2025-04-29_16h35.47.729,Surprise recog test,2023.1.3,59.92814601044299,
70,0,70,0,,,,,,,,,,,,,,,,,,,,,,,,,,,,,,,,,,414.63197059975937,415.65261270012707,413.90826859977096,413.90826859977096,413.90826859977096,413.90826859977096,new_stationery_17.png,71,4.0,0.7225953000597656,,060,01,2025-04-29_16h35.47.729,Surprise recog test,2023.1.3,59.92814601044299,
71,0,71,0,,,,,,,,,,,,,,,,,,,,,,,,,,,,,,,,,,416.2397436997853,417.25980720017105,415.65261270012707,415.65261270012707,415.65261270012707,415.65261270012707,new_sceneOut_24.png,72,3.0,0.5831857998855412,,060,01,2025-04-29_16h35.47.729,Surprise recog test,2023.1.3,59.92814601044299,
72,0,72,0,,,,,,,,,,,,,,,,,,,,,,,,,,,,,,,,,,417.5877398997545,418.60407020011917,417.25980720017105,417.25980720017105,417.25980720017105,417.25980720017105,new_stationery_35.png,73,2.0,0.3225447000004351,,060,01,2025-04-29_16h35.47.729,Surprise recog test,2023.1.3,59.92814601044299,
73,0,73,0,,,,,,,,,,,,,,,,,,,,,,,,,,,,,,,,,,419.13466949993744,,418.60407020011917,418.60407020011917,418.60407020011917,418.60407020011917,old_sceneOut_12.png,74,4.0,0.5257950001396239,,060,01,2025-04-29_16h35.47.729,Surprise recog test,2023.1.3,59.92814601044299,
74,0,74,0,,,,,,,,,,,,,,,,,,,,,,,,,,,,,,,,,,420.94778990000486,421.95801070006564,420.1615201998502,420.1615201998502,420.1615201998502,420.1615201998502,new_sceneIn_36.png,75,2.0,0.7868123999796808,,060,01,2025-04-29_16h35.47.729,Surprise recog test,2023.1.3,59.92814601044299,
75,0,75,0,,,,,,,,,,,,,,,,,,,,,,,,,,,,,,,,,,423.0851469999179,424.09059910010546,421.95801070006564,421.95801070006564,421.95801070006564,421.95801070006564,old_sceneIn_31.png,76,2.0,1.1218768004328012,,060,01,2025-04-29_16h35.47.729,Surprise recog test,2023.1.3,59.92814601044299,
76,0,76,0,,,,,,,,,,,,,,,,,,,,,,,,,,,,,,,,,,424.7605296000838,425.7733553000726,424.09059910010546,424.09059910010546,424.09059910010546,424.09059910010546,new_sceneIn_48.png,77,3.0,0.6624138997867703,,060,01,2025-04-29_16h35.47.729,Surprise recog test,2023.1.3,59.92814601044299,
77,0,77,0,,,,,,,,,,,,,,,,,,,,,,,,,,,,,,,,,,426.47829720005393,427.50851939991117,425.7733553000726,425.7733553000726,425.7733553000726,425.7733553000726,new_sceneOut_21.png,78,3.0,0.6998867997899652,,060,01,2025-04-29_16h35.47.729,Surprise recog test,2023.1.3,59.92814601044299,
78,0,78,0,,,,,,,,,,,,,,,,,,,,,,,,,,,,,,,,,,428.34880550019443,429.37354709999636,427.50851939991117,427.50851939991117,427.50851939991117,427.50851939991117,old_sceneOut_48.png,79,4.0,0.8416264997795224,,060,01,2025-04-29_16h35.47.729,Surprise recog test,2023.1.3,59.92814601044299,
79,0,79,0,,,,,,,,,,,,,,,,,,,,,,,,,,,,,,,,,,430.3430174998939,,429.37354709999636,429.37354709999636,429.37354709999636,429.37354709999636,new_stationery_45.png,80,4.0,0.9727777997031808,,060,01,2025-04-29_16h35.47.729,Surprise recog test,2023.1.3,59.92814601044299,
80,0,80,0,,,,,,,,,,,,,,,,,,,,,,,,,,,,,,,,,,432.568376599811,433.6027886001393,431.3737002001144,431.3737002001144,431.3737002001144,431.3737002001144,old_sceneIn_32.png,81,4.0,1.1970144999213517,,060,01,2025-04-29_16h35.47.729,Surprise recog test,2023.1.3,59.92814601044299,
81,0,81,0,,,,,,,,,,,,,,,,,,,,,,,,,,,,,,,,,,434.84960169997066,435.8779621999711,433.6027886001393,433.6027886001393,433.6027886001393,433.6027886001393,old_stationery_17.png,82,3.0,1.2486490001901984,,060,01,2025-04-29_16h35.47.729,Surprise recog test,2023.1.3,59.92814601044299,
82,0,82,0,,,,,,,,,,,,,,,,,,,,,,,,,,,,,,,,,,436.9173745000735,437.9344080998562,435.8779621999711,435.8779621999711,435.8779621999711,435.8779621999711,old_stationery_34.png,83,4.0,1.0366789996623993,,060,01,2025-04-29_16h35.47.729,Surprise recog test,2023.1.3,59.92814601044299,
83,0,83,0,,,,,,,,,,,,,,,,,,,,,,,,,,,,,,,,,,439.060476699844,440.08216019999236,437.9344080998562,437.9344080998562,437.9344080998562,437.9344080998562,new_sceneIn_44.png,84,2.0,1.1197599000297487,,060,01,2025-04-29_16h35.47.729,Surprise recog test,2023.1.3,59.92814601044299,
84,0,84,0,,,,,,,,,,,,,,,,,,,,,,,,,,,,,,,,,,441.08307679975405,442.09318820014596,440.08216019999236,440.08216019999236,440.08216019999236,440.08216019999236,old_stationery_38.png,85,4.0,1.002680900041014,,060,01,2025-04-29_16h35.47.729,Surprise recog test,2023.1.3,59.92814601044299,
85,0,85,0,,,,,,,,,,,,,,,,,,,,,,,,,,,,,,,,,,443.31925030006096,444.3268595999107,442.09318820014596,442.09318820014596,442.09318820014596,442.09318820014596,new_fruit_46.png,86,4.0,1.2229180997237563,,060,01,2025-04-29_16h35.47.729,Surprise recog test,2023.1.3,59.92814601044299,
86,0,86,0,,,,,,,,,,,,,,,,,,,,,,,,,,,,,,,,,,445.58926929999143,,444.3268595999107,444.3268595999107,444.3268595999107,444.3268595999107,old_sceneOut_37.png,87,1.0,1.2594961998984218,,060,01,2025-04-29_16h35.47.729,Surprise recog test,2023.1.3,59.92814601044299,
87,0,87,0,,,,,,,,,,,,,,,,,,,,,,,,,,,,,,,,,,447.77828710014,448.8038157997653,446.6270154998638,446.6270154998638,446.6270154998638,446.6270154998638,new_sceneIn_22.png,88,3.0,1.1542969001457095,,060,01,2025-04-29_16h35.47.729,Surprise recog test,2023.1.3,59.92814601044299,
88,0,88,0,,,,,,,,,,,,,,,,,,,,,,,,,,,,,,,,,,449.6556695997715,450.6733165998012,448.8038157997653,448.8038157997653,448.8038157997653,448.8038157997653,old_sceneIn_15.png,89,4.0,0.8534826999530196,,060,01,2025-04-29_16h35.47.729,Surprise recog test,2023.1.3,59.92814601044299,
89,0,89,0,,,,,,,,,,,,,,,,,,,,,,,,,,,,,,,,,,451.67937299981713,452.7066023000516,450.6733165998012,450.6733165998012,450.6733165998012,450.6733165998012,new_sceneIn_26.png,90,2.0,1.0070556001737714,,060,01,2025-04-29_16h35.47.729,Surprise recog test,2023.1.3,59.92814601044299,
90,0,90,0,,,,,,,,,,,,,,,,,,,,,,,,,,,,,,,,,,453.87872319994494,,452.7066023000516,452.7066023000516,452.7066023000516,452.7066023000516,old_fruit_15.png,91,1.0,1.1701337001286447,,060,01,2025-04-29_16h35.47.729,Surprise recog test,2023.1.3,59.92814601044299,
91,0,91,0,,,,,,,,,,,,,,,,,,,,,,,,,,,,,,,,,,455.78385500004515,456.81669039977714,454.89999429974705,454.89999429974705,454.89999429974705,454.89999429974705,old_fruit_22.png,92,1.0,0.8774127000942826,,060,01,2025-04-29_16h35.47.729,Surprise recog test,2023.1.3,59.92814601044299,
92,0,92,0,,,,,,,,,,,,,,,,,,,,,,,,,,,,,,,,,,457.72259559994563,458.7476086001843,456.81669039977714,456.81669039977714,456.81669039977714,456.81669039977714,old_sceneIn_36.png,93,3.0,0.9079236998222768,,060,01,2025-04-29_16h35.47.729,Surprise recog test,2023.1.3,59.92814601044299,
93,0,93,0,,,,,,,,,,,,,,,,,,,,,,,,,,,,,,,,,,459.87216190015897,460.90064720017835,458.7476086001843,458.7476086001843,458.7476086001843,458.7476086001843,old_fruit_2.png,94,1.0,1.1261292998678982,,060,01,2025-04-29_16h35.47.729,Surprise recog test,2023.1.3,59.92814601044299,
94,0,94,0,,,,,,,,,,,,,,,,,,,,,,,,,,,,,,,,,,461.9748734999448,463.0046016997658,460.90064720017835,460.90064720017835,460.90064720017835,460.90064720017835,new_sceneIn_37.png,95,4.0,1.075512500014156,,060,01,2025-04-29_16h35.47.729,Surprise recog test,2023.1.3,59.92814601044299,
95,0,95,0,,,,,,,,,,,,,,,,,,,,,,,,,,,,,,,,,,464.11888119997457,465.14128459990025,463.0046016997658,463.0046016997658,463.0046016997658,463.0046016997658,old_sceneOut_7.png,96,2.0,1.1165829002857208,,060,01,2025-04-29_16h35.47.729,Surprise recog test,2023.1.3,59.92814601044299,
96,0,96,0,,,,,,,,,,,,,,,,,,,,,,,,,,,,,,,,,,466.00841260002926,467.04018619982526,465.14128459990025,465.14128459990025,465.14128459990025,465.14128459990025,old_sceneOut_14.png,97,3.0,0.8703964999876916,,060,01,2025-04-29_16h35.47.729,Surprise recog test,2023.1.3,59.92814601044299,
97,0,97,0,,,,,,,,,,,,,,,,,,,,,,,,,,,,,,,,,,468.5281360000372,469.5571845998056,467.04018619982526,467.04018619982526,467.04018619982526,467.04018619982526,new_stationery_18.png,98,5.0,1.4892140999436378,,060,01,2025-04-29_16h35.47.729,Surprise recog test,2023.1.3,59.92814601044299,
98,0,98,0,,,,,,,,,,,,,,,,,,,,,,,,,,,,,,,,,,471.824211999774,472.8389825001359,469.5571845998056,469.5571845998056,469.5571845998056,469.5571845998056,old_fruit_19.png,99,2.0,2.268903600051999,,060,01,2025-04-29_16h35.47.729,Surprise recog test,2023.1.3,59.92814601044299,
99,0,99,0,,,,,,,,,,,,,,,,,,,,,,,,,,,,,,,,,,474.6062749000266,475.6308158999309,472.8389825001359,472.8389825001359,472.8389825001359,472.8389825001359,old_sceneIn_17.png,100,1.0,1.768438100349158,,060,01,2025-04-29_16h35.47.729,Surprise recog test,2023.1.3,59.92814601044299,
100,0,100,0,,,,,,,,,,,,,,,,,,,,,,,,,,,,,,,,,,476.64732560003176,,475.6308158999309,475.6308158999309,475.6308158999309,475.6308158999309,old_sceneOut_15.png,101,4.0,1.02034020004794,,060,01,2025-04-29_16h35.47.729,Surprise recog test,2023.1.3,59.92814601044299,
101,0,101,0,,,,,,,,,,,,,,,,,,,,,,,,,,,,,,,,,,478.9202073998749,479.9507383001037,477.6759986001998,477.6759986001998,477.6759986001998,477.6759986001998,new_fruit_17.png,102,1.0,1.2454458996653557,,060,01,2025-04-29_16h35.47.729,Surprise recog test,2023.1.3,59.92814601044299,
102,0,102,0,,,,,,,,,,,,,,,,,,,,,,,,,,,,,,,,,,480.6924942000769,481.7058824999258,479.9507383001037,479.9507383001037,479.9507383001037,479.9507383001037,old_sceneIn_20.png,103,4.0,0.7434180998243392,,060,01,2025-04-29_16h35.47.729,Surprise recog test,2023.1.3,59.92814601044299,
103,0,103,0,,,,,,,,,,,,,,,,,,,,,,,,,,,,,,,,,,482.7026606001891,,481.7058824999258,481.7058824999258,481.7058824999258,481.7058824999258,new_stationery_13.png,104,5.0,0.9929332998581231,,060,01,2025-04-29_16h35.47.729,Surprise recog test,2023.1.3,59.92814601044299,
104,0,104,0,,,,,,,,,,,,,,,,,,,,,,,,,,,,,,,,,,485.64791729999706,486.6784649998881,483.7239624997601,483.7239624997601,483.7239624997601,483.7239624997601,new_sceneIn_28.png,105,1.0,1.9215168002992868,,060,01,2025-04-29_16h35.47.729,Surprise recog test,2023.1.3,59.92814601044299,
105,0,105,0,,,,,,,,,,,,,,,,,,,,,,,,,,,,,,,,,,487.84363189991564,488.8703169999644,486.6784649998881,486.6784649998881,486.6784649998881,486.6784649998881,new_sceneOut_31.png,106,4.0,1.168342299759388,,060,01,2025-04-29_16h35.47.729,Surprise recog test,2023.1.3,59.92814601044299,
106,0,106,0,,,,,,,,,,,,,,,,,,,,,,,,,,,,,,,,,,490.41466199979186,491.4435255001299,488.8703169999644,488.8703169999644,488.8703169999644,488.8703169999644,new_fruit_20.png,107,2.0,1.5430338997393847,,060,01,2025-04-29_16h35.47.729,Surprise recog test,2023.1.3,59.92814601044299,
107,0,107,0,,,,,,,,,,,,,,,,,,,,,,,,,,,,,,,,,,492.4211519998498,493.4470016998239,491.4435255001299,491.4435255001299,491.4435255001299,491.4435255001299,new_sceneOut_8.png,108,3.0,0.9785501002334058,,060,01,2025-04-29_16h35.47.729,Surprise recog test,2023.1.3,59.92814601044299,
108,0,108,0,,,,,,,,,,,,,,,,,,,,,,,,,,,,,,,,,,494.0528607000597,495.0850907000713,493.4470016998239,493.4470016998239,493.4470016998239,493.4470016998239,new_stationery_47.png,109,3.0,0.6085811997763813,,060,01,2025-04-29_16h35.47.729,Surprise recog test,2023.1.3,59.92814601044299,
109,0,109,0,,,,,,,,,,,,,,,,,,,,,,,,,,,,,,,,,,495.9399732002057,496.96004969999194,495.0850907000713,495.0850907000713,495.0850907000713,495.0850907000713,old_sceneOut_42.png,110,2.0,0.8596474998630583,,060,01,2025-04-29_16h35.47.729,Surprise recog test,2023.1.3,59.92814601044299,
110,0,110,0,,,,,,,,,,,,,,,,,,,,,,,,,,,,,,,,,,497.69150860002264,498.7048467001878,496.96004969999194,496.96004969999194,496.96004969999194,496.96004969999194,old_sceneIn_12.png,111,2.0,0.733710200060159,,060,01,2025-04-29_16h35.47.729,Surprise recog test,2023.1.3,59.92814601044299,
111,0,111,0,,,,,,,,,,,,,,,,,,,,,,,,,,,,,,,,,,499.14517250005156,500.15682430006564,498.7048467001878,498.7048467001878,498.7048467001878,498.7048467001878,new_sceneOut_4.png,112,4.0,0.4356935997493565,,060,01,2025-04-29_16h35.47.729,Surprise recog test,2023.1.3,59.92814601044299,
112,0,112,0,,,,,,,,,,,,,,,,,,,,,,,,,,,,,,,,,,501.1108202999458,502.133198000025,500.15682430006564,500.15682430006564,500.15682430006564,500.15682430006564,old_sceneIn_34.png,113,3.0,0.950218299869448,,060,01,2025-04-29_16h35.47.729,Surprise recog test,2023.1.3,59.92814601044299,
113,0,113,0,,,,,,,,,,,,,,,,,,,,,,,,,,,,,,,,,,503.3493685000576,504.35585069982335,502.133198000025,502.133198000025,502.133198000025,502.133198000025,new_sceneIn_2.png,114,5.0,1.2167349001392722,,060,01,2025-04-29_16h35.47.729,Surprise recog test,2023.1.3,59.92814601044299,
114,0,114,0,,,,,,,,,,,,,,,,,,,,,,,,,,,,,,,,,,505.11893629981205,506.1311109000817,504.35585069982335,504.35585069982335,504.35585069982335,504.35585069982335,new_stationery_33.png,115,5.0,0.7575194998644292,,060,01,2025-04-29_16h35.47.729,Surprise recog test,2023.1.3,59.92814601044299,
115,0,115,0,,,,,,,,,,,,,,,,,,,,,,,,,,,,,,,,,,507.3208343000151,508.3297747997567,506.1311109000817,506.1311109000817,506.1311109000817,506.1311109000817,new_fruit_45.png,116,2.0,1.1880004000850022,,060,01,2025-04-29_16h35.47.729,Surprise recog test,2023.1.3,59.92814601044299,
116,0,116,0,,,,,,,,,,,,,,,,,,,,,,,,,,,,,,,,,,509.0612424998544,510.0861316998489,508.3297747997567,508.3297747997567,508.3297747997567,508.3297747997567,old_sceneIn_1.png,117,3.0,0.7252671997994184,,060,01,2025-04-29_16h35.47.729,Surprise recog test,2023.1.3,59.92814601044299,
117,0,117,0,,,,,,,,,,,,,,,,,,,,,,,,,,,,,,,,,,510.7571572000161,511.76611249987036,510.0861316998489,510.0861316998489,510.0861316998489,510.0861316998489,new_fruit_10.png,118,3.0,0.6697729001753032,,060,01,2025-04-29_16h35.47.729,Surprise recog test,2023.1.3,59.92814601044299,
118,0,118,0,,,,,,,,,,,,,,,,,,,,,,,,,,,,,,,,,,512.4199708998203,513.4386180997826,511.76611249987036,511.76611249987036,511.76611249987036,511.76611249987036,new_stationery_20.png,119,4.0,0.6507465001195669,,060,01,2025-04-29_16h35.47.729,Surprise recog test,2023.1.3,59.92814601044299,
119,0,119,0,,,,,,,,,,,,,,,,,,,,,,,,,,,,,,,,,,514.6198733998463,515.6463386001997,513.4386180997826,513.4386180997826,513.4386180997826,513.4386180997826,old_sceneOut_40.png,120,4.0,1.182463400065899,,060,01,2025-04-29_16h35.47.729,Surprise recog test,2023.1.3,59.92814601044299,
120,0,120,0,,,,,,,,,,,,,,,,,,,,,,,,,,,,,,,,,,516.3183308001608,517.3449613000266,515.6463386001997,515.6463386001997,515.6463386001997,515.6463386001997,new_sceneOut_38.png,121,2.0,0.6738593000918627,,060,01,2025-04-29_16h35.47.729,Surprise recog test,2023.1.3,59.92814601044299,
121,0,121,0,,,,,,,,,,,,,,,,,,,,,,,,,,,,,,,,,,518.029661799781,519.0356474001892,517.3449613000266,517.3449613000266,517.3449613000266,517.3449613000266,old_fruit_34.png,122,3.0,0.6812018998898566,,060,01,2025-04-29_16h35.47.729,Surprise recog test,2023.1.3,59.92814601044299,
122,0,122,0,,,,,,,,,,,,,,,,,,,,,,,,,,,,,,,,,,520.2957700998522,521.3052857001312,519.0356474001892,519.0356474001892,519.0356474001892,519.0356474001892,old_stationery_9.png,123,2.0,1.2556866998784244,,060,01,2025-04-29_16h35.47.729,Surprise recog test,2023.1.3,59.92814601044299,
123,0,123,0,,,,,,,,,,,,,,,,,,,,,,,,,,,,,,,,,,522.2131019001827,523.2353154998273,521.3052857001312,521.3052857001312,521.3052857001312,521.3052857001312,new_sceneIn_1.png,124,2.0,0.9012666000053287,,060,01,2025-04-29_16h35.47.729,Surprise recog test,2023.1.3,59.92814601044299,
124,0,124,0,,,,,,,,,,,,,,,,,,,,,,,,,,,,,,,,,,524.5805417001247,525.6047245999798,523.2353154998273,523.2353154998273,523.2353154998273,523.2353154998273,new_sceneOut_22.png,125,4.0,1.3452142998576164,,060,01,2025-04-29_16h35.47.729,Surprise recog test,2023.1.3,59.92814601044299,
125,0,125,0,,,,,,,,,,,,,,,,,,,,,,,,,,,,,,,,,,526.4337045000866,527.4456953997724,525.6047245999798,525.6047245999798,525.6047245999798,525.6047245999798,new_fruit_50.png,126,4.0,0.830094899982214,,060,01,2025-04-29_16h35.47.729,Surprise recog test,2023.1.3,59.92814601044299,
126,0,126,0,,,,,,,,,,,,,,,,,,,,,,,,,,,,,,,,,,528.1982344998978,529.2194872000255,527.4456953997724,527.4456953997724,527.4456953997724,527.4456953997724,old_sceneIn_33.png,127,4.0,0.748248000163585,,060,01,2025-04-29_16h35.47.729,Surprise recog test,2023.1.3,59.92814601044299,
127,0,127,0,,,,,,,,,,,,,,,,,,,,,,,,,,,,,,,,,,530.3092570998706,,529.2194872000255,529.2194872000255,529.2194872000255,529.2194872000255,new_sceneIn_16.png,128,3.0,1.0894078998826444,,060,01,2025-04-29_16h35.47.729,Surprise recog test,2023.1.3,59.92814601044299,
128,0,128,0,,,,,,,,,,,,,,,,,,,,,,,,,,,,,,,,,,532.2477318998426,533.2783670001663,531.3311386997811,531.3311386997811,531.3311386997811,531.3311386997811,new_sceneIn_39.png,129,4.0,0.9104951000772417,,060,01,2025-04-29_16h35.47.729,Surprise recog test,2023.1.3,59.92814601044299,
129,0,129,0,,,,,,,,,,,,,,,,,,,,,,,,,,,,,,,,,,534.7257293001749,535.7484622001648,533.2783670001663,533.2783670001663,533.2783670001663,533.2783670001663,old_sceneIn_18.png,130,5.0,1.4477804000489414,,060,01,2025-04-29_16h35.47.729,Surprise recog test,2023.1.3,59.92814601044299,
130,0,130,0,,,,,,,,,,,,,,,,,,,,,,,,,,,,,,,,,,537.007844099775,538.0238227001391,535.7484622001648,535.7484622001648,535.7484622001648,535.7484622001648,new_sceneIn_12.png,131,5.0,1.261190100107342,,060,01,2025-04-29_16h35.47.729,Surprise recog test,2023.1.3,59.92814601044299,
131,0,131,0,,,,,,,,,,,,,,,,,,,,,,,,,,,,,,,,,,539.2224475000985,540.2513824999332,538.0238227001391,538.0238227001391,538.0238227001391,538.0238227001391,new_sceneOut_34.png,132,2.0,1.1986404000781476,,060,01,2025-04-29_16h35.47.729,Surprise recog test,2023.1.3,59.92814601044299,
132,0,132,0,,,,,,,,,,,,,,,,,,,,,,,,,,,,,,,,,,540.7817580001429,541.7921612001956,540.2513824999332,540.2513824999332,540.2513824999332,540.2513824999332,old_sceneOut_5.png,133,2.0,0.5328473998233676,,060,01,2025-04-29_16h35.47.729,Surprise recog test,2023.1.3,59.92814601044299,
133,0,133,0,,,,,,,,,,,,,,,,,,,,,,,,,,,,,,,,,,542.6096152998507,543.6346478001215,541.7921612001956,541.7921612001956,541.7921612001956,541.7921612001956,new_sceneIn_17.png,134,3.0,0.8138075000606477,,060,01,2025-04-29_16h35.47.729,Surprise recog test,2023.1.3,59.92814601044299,
134,0,134,0,,,,,,,,,,,,,,,,,,,,,,,,,,,,,,,,,,544.6462690997869,545.6808710000478,543.6346478001215,543.6346478001215,543.6346478001215,543.6346478001215,old_sceneIn_2.png,135,4.0,1.0114865000359714,,060,01,2025-04-29_16h35.47.729,Surprise recog test,2023.1.3,59.92814601044299,
135,0,135,0,,,,,,,,,,,,,,,,,,,,,,,,,,,,,,,,,,547.0049870000221,548.0169902001508,545.6808710000478,545.6808710000478,545.6808710000478,545.6808710000478,old_fruit_27.png,136,1.0,1.3271604999899864,,060,01,2025-04-29_16h35.47.729,Surprise recog test,2023.1.3,59.92814601044299,
136,0,136,0,,,,,,,,,,,,,,,,,,,,,,,,,,,,,,,,,,549.045097600203,550.0767997000366,548.0169902001508,548.0169902001508,548.0169902001508,548.0169902001508,new_sceneOut_45.png,137,2.0,1.02808600012213,,060,01,2025-04-29_16h35.47.729,Surprise recog test,2023.1.3,59.92814601044299,
137,0,137,0,,,,,,,,,,,,,,,,,,,,,,,,,,,,,,,,,,551.0237457999028,552.0324615999125,550.0767997000366,550.0767997000366,550.0767997000366,550.0767997000366,old_fruit_24.png,138,1.0,0.9427062999457121,,060,01,2025-04-29_16h35.47.729,Surprise recog test,2023.1.3,59.92814601044299,
138,0,138,0,,,,,,,,,,,,,,,,,,,,,,,,,,,,,,,,,,552.9115697001107,,552.0324615999125,552.0324615999125,552.0324615999125,552.0324615999125,new_stationery_50.png,139,3.0,0.8748912001028657,,060,01,2025-04-29_16h35.47.729,Surprise recog test,2023.1.3,59.92814601044299,
139,0,139,0,,,,,,,,,,,,,,,,,,,,,,,,,,,,,,,,,,554.9888279000297,556.0009603998624,553.9334780001082,553.9334780001082,553.9334780001082,553.9334780001082,new_sceneOut_16.png,140,2.0,1.0506596001796424,,060,01,2025-04-29_16h35.47.729,Surprise recog test,2023.1.3,59.92814601044299,
140,0,140,0,,,,,,,,,,,,,,,,,,,,,,,,,,,,,,,,,,556.8832124001347,557.9034965997562,556.0009603998624,556.0009603998624,556.0009603998624,556.0009603998624,new_sceneOut_48.png,141,4.0,0.8789021000266075,,060,01,2025-04-29_16h35.47.729,Surprise recog test,2023.1.3,59.92814601044299,
141,0,141,0,,,,,,,,,,,,,,,,,,,,,,,,,,,,,,,,,,558.9837791998871,,557.9034965997562,557.9034965997562,557.9034965997562,557.9034965997562,old_fruit_18.png,142,1.0,1.0774670001119375,,060,01,2025-04-29_16h35.47.729,Surprise recog test,2023.1.3,59.92814601044299,
142,0,142,0,,,,,,,,,,,,,,,,,,,,,,,,,,,,,,,,,,560.8695143000223,,560.0030498001724,560.0030498001724,560.0030498001724,560.0030498001724,old_fruit_23.png,143,1.0,0.8632690999656916,,060,01,2025-04-29_16h35.47.729,Surprise recog test,2023.1.3,59.92814601044299,
143,0,143,0,,,,,,,,,,,,,,,,,,,,,,,,,,,,,,,,,,563.1390789998695,564.1668218998238,561.9027150999755,561.9027150999755,561.9027150999755,561.9027150999755,old_sceneIn_45.png,144,2.0,1.238440599758178,,060,01,2025-04-29_16h35.47.729,Surprise recog test,2023.1.3,59.92814601044299,
144,0,144,0,,,,,,,,,,,,,,,,,,,,,,,,,,,,,,,,,,565.1993493000045,566.224999899976,564.1668218998238,564.1668218998238,564.1668218998238,564.1668218998238,new_fruit_23.png,145,2.0,1.033658199943602,,060,01,2025-04-29_16h35.47.729,Surprise recog test,2023.1.3,59.92814601044299,
145,0,145,0,,,,,,,,,,,,,,,,,,,,,,,,,,,,,,,,,,567.0839006002061,568.0950237000361,566.224999899976,566.224999899976,566.224999899976,566.224999899976,old_fruit_39.png,146,1.0,0.8620935003273189,,060,01,2025-04-29_16h35.47.729,Surprise recog test,2023.1.3,59.92814601044299,
146,0,146,0,,,,,,,,,,,,,,,,,,,,,,,,,,,,,,,,,,569.0526201999746,570.0692890998907,568.0950237000361,568.0950237000361,568.0950237000361,568.0950237000361,new_fruit_1.png,147,1.0,0.9510445003397763,,060,01,2025-04-29_16h35.47.729,Surprise recog test,2023.1.3,59.92814601044299,
147,0,147,0,,,,,,,,,,,,,,,,,,,,,,,,,,,,,,,,,,571.0142529997975,572.0487211998552,570.0692890998907,570.0692890998907,570.0692890998907,570.0692890998907,old_sceneOut_11.png,148,3.0,0.9446204998530447,,060,01,2025-04-29_16h35.47.729,Surprise recog test,2023.1.3,59.92814601044299,
148,0,148,0,,,,,,,,,,,,,,,,,,,,,,,,,,,,,,,,,,573.3812541998923,574.4111430998892,572.0487211998552,572.0487211998552,572.0487211998552,572.0487211998552,new_stationery_29.png,149,2.0,1.3353142002597451,,060,01,2025-04-29_16h35.47.729,Surprise recog test,2023.1.3,59.92814601044299,
149,0,149,0,,,,,,,,,,,,,,,,,,,,,,,,,,,,,,,,,,575.3775422000326,576.3956272001378,574.4111430998892,574.4111430998892,574.4111430998892,574.4111430998892,old_stationery_31.png,150,3.0,0.9664818998426199,,060,01,2025-04-29_16h35.47.729,Surprise recog test,2023.1.3,59.92814601044299,
150,0,150,0,,,,,,,,,,,,,,,,,,,,,,,,,,,,,,,,,,577.255546499975,578.2719744001515,576.3956272001378,576.3956272001378,576.3956272001378,576.3956272001378,old_fruit_20.png,151,4.0,0.8588014002889395,,060,01,2025-04-29_16h35.47.729,Surprise recog test,2023.1.3,59.92814601044299,
151,0,151,0,,,,,,,,,,,,,,,,,,,,,,,,,,,,,,,,,,581.2641439000145,582.2728401999921,578.2719744001515,578.2719744001515,578.2719744001515,578.2719744001515,new_fruit_6.png,152,1.0,2.9907279000617564,,060,01,2025-04-29_16h35.47.729,Surprise recog test,2023.1.3,59.92814601044299,
152,0,152,0,,,,,,,,,,,,,,,,,,,,,,,,,,,,,,,,,,583.0183545998298,584.0235823001713,582.2728401999921,582.2728401999921,582.2728401999921,582.2728401999921,new_fruit_39.png,153,1.0,0.7401970997452736,,060,01,2025-04-29_16h35.47.729,Surprise recog test,2023.1.3,59.92814601044299,
153,0,153,0,,,,,,,,,,,,,,,,,,,,,,,,,,,,,,,,,,584.672143000178,,584.0235823001713,584.0235823001713,584.0235823001713,584.0235823001713,old_fruit_36.png,154,1.0,0.6429170998744667,,060,01,2025-04-29_16h35.47.729,Surprise recog test,2023.1.3,59.92814601044299,
154,0,154,0,,,,,,,,,,,,,,,,,,,,,,,,,,,,,,,,,,586.7082849000581,587.7351771001704,585.692448799964,585.692448799964,585.692448799964,585.692448799964,old_sceneIn_43.png,155,3.0,1.0098498002626002,,060,01,2025-04-29_16h35.47.729,Surprise recog test,2023.1.3,59.92814601044299,
155,0,155,0,,,,,,,,,,,,,,,,,,,,,,,,,,,,,,,,,,588.6968694999814,589.7250898000784,587.7351771001704,587.7351771001704,587.7351771001704,587.7351771001704,old_stationery_19.png,156,4.0,0.963565300218761,,060,01,2025-04-29_16h35.47.729,Surprise recog test,2023.1.3,59.92814601044299,
156,0,156,0,,,,,,,,,,,,,,,,,,,,,,,,,,,,,,,,,,590.3994956999086,591.421230299864,589.7250898000784,589.7250898000784,589.7250898000784,589.7250898000784,new_stationery_44.png,157,4.0,0.6749563999474049,,060,01,2025-04-29_16h35.47.729,Surprise recog test,2023.1.3,59.92814601044299,
157,0,157,0,,,,,,,,,,,,,,,,,,,,,,,,,,,,,,,,,,592.4976025000215,593.5142032001168,591.421230299864,591.421230299864,591.421230299864,591.421230299864,old_fruit_33.png,158,2.0,1.0779004003852606,,060,01,2025-04-29_16h35.47.729,Surprise recog test,2023.1.3,59.92814601044299,
158,0,158,0,,,,,,,,,,,,,,,,,,,,,,,,,,,,,,,,,,594.7917567999102,595.8138755001128,593.5142032001168,593.5142032001168,593.5142032001168,593.5142032001168,new_stationery_19.png,159,5.0,1.2732757995836437,,060,01,2025-04-29_16h35.47.729,Surprise recog test,2023.1.3,59.92814601044299,
159,0,159,0,,,,,,,,,,,,,,,,,,,,,,,,,,,,,,,,,,597.2982629002072,,595.8138755001128,595.8138755001128,595.8138755001128,595.8138755001128,new_fruit_12.png,160,1.0,1.4823733000084758,,060,01,2025-04-29_16h35.47.729,Surprise recog test,2023.1.3,59.92814601044299,
160,0,160,0,,,,,,,,,,,,,,,,,,,,,,,,,,,,,,,,,,599.8307929001749,600.8495885999873,598.3334045000374,598.3334045000374,598.3334045000374,598.3334045000374,new_fruit_28.png,161,4.0,1.4969146000221372,,060,01,2025-04-29_16h35.47.729,Surprise recog test,2023.1.3,59.92814601044299,
161,0,161,0,,,,,,,,,,,,,,,,,,,,,,,,,,,,,,,,,,601.5583124998957,602.5741042001173,600.8495885999873,600.8495885999873,600.8495885999873,600.8495885999873,new_sceneOut_13.png,162,3.0,0.7102711000479758,,060,01,2025-04-29_16h35.47.729,Surprise recog test,2023.1.3,59.92814601044299,
162,0,162,0,,,,,,,,,,,,,,,,,,,,,,,,,,,,,,,,,,603.4183836001903,604.4247444998473,602.5741042001173,602.5741042001173,602.5741042001173,602.5741042001173,old_sceneIn_11.png,163,2.0,0.8399249999783933,,060,01,2025-04-29_16h35.47.729,Surprise recog test,2023.1.3,59.92814601044299,
163,0,163,0,,,,,,,,,,,,,,,,,,,,,,,,,,,,,,,,,,605.934123700019,606.9443334001116,604.4247444998473,604.4247444998473,604.4247444998473,604.4247444998473,old_fruit_8.png,164,1.0,1.5047079999931157,,060,01,2025-04-29_16h35.47.729,Surprise recog test,2023.1.3,59.92814601044299,
164,0,164,0,,,,,,,,,,,,,,,,,,,,,,,,,,,,,,,,,,608.1525413999334,609.1637327000499,606.9443334001116,606.9443334001116,606.9443334001116,606.9443334001116,old_stationery_36.png,165,3.0,1.2038397998549044,,060,01,2025-04-29_16h35.47.729,Surprise recog test,2023.1.3,59.92814601044299,
165,0,165,0,,,,,,,,,,,,,,,,,,,,,,,,,,,,,,,,,,610.2172127999365,611.2300146999769,609.1637327000499,609.1637327000499,609.1637327000499,609.1637327000499,new_stationery_49.png,166,4.0,1.0491251996718347,,060,01,2025-04-29_16h35.47.729,Surprise recog test,2023.1.3,59.92814601044299,
166,0,166,0,,,,,,,,,,,,,,,,,,,,,,,,,,,,,,,,,,612.5698934998363,613.5795012000017,611.2300146999769,611.2300146999769,611.2300146999769,611.2300146999769,new_sceneOut_40.png,167,3.0,1.3356862999498844,,060,01,2025-04-29_16h35.47.729,Surprise recog test,2023.1.3,59.92814601044299,
167,0,167,0,,,,,,,,,,,,,,,,,,,,,,,,,,,,,,,,,,614.3994248998351,615.4283897997811,613.5795012000017,613.5795012000017,613.5795012000017,613.5795012000017,old_sceneOut_35.png,168,3.0,0.8156850999221206,,060,01,2025-04-29_16h35.47.729,Surprise recog test,2023.1.3,59.92814601044299,
168,0,168,0,,,,,,,,,,,,,,,,,,,,,,,,,,,,,,,,,,616.5681823999621,617.5923342001624,615.4283897997811,615.4283897997811,615.4283897997811,615.4283897997811,old_stationery_43.png,169,4.0,1.141258300282061,,060,01,2025-04-29_16h35.47.729,Surprise recog test,2023.1.3,59.92814601044299,
169,0,169,0,,,,,,,,,,,,,,,,,,,,,,,,,,,,,,,,,,618.6203951998614,619.6498346999288,617.5923342001624,617.5923342001624,617.5923342001624,617.5923342001624,old_fruit_26.png,170,3.0,1.0286409999243915,,060,01,2025-04-29_16h35.47.729,Surprise recog test,2023.1.3,59.92814601044299,
170,0,170,0,,,,,,,,,,,,,,,,,,,,,,,,,,,,,,,,,,620.5381964999251,621.5569905000739,619.6498346999288,619.6498346999288,619.6498346999288,619.6498346999288,old_sceneIn_38.png,171,2.0,0.8893610001541674,,060,01,2025-04-29_16h35.47.729,Surprise recog test,2023.1.3,59.92814601044299,
171,0,171,0,,,,,,,,,,,,,,,,,,,,,,,,,,,,,,,,,,623.468027099967,624.4766954998486,621.5569905000739,621.5569905000739,621.5569905000739,621.5569905000739,new_stationery_36.png,172,5.0,1.9066152996383607,,060,01,2025-04-29_16h35.47.729,Surprise recog test,2023.1.3,59.92814601044299,
172,0,172,0,,,,,,,,,,,,,,,,,,,,,,,,,,,,,,,,,,625.4103568000719,626.438929699827,624.4766954998486,624.4766954998486,624.4766954998486,624.4766954998486,old_stationery_7.png,173,4.0,0.9326639999635518,,060,01,2025-04-29_16h35.47.729,Surprise recog test,2023.1.3,59.92814601044299,
173,0,173,0,,,,,,,,,,,,,,,,,,,,,,,,,,,,,,,,,,627.6039305999875,628.6080390000716,626.438929699827,626.438929699827,626.438929699827,626.438929699827,old_fruit_5.png,174,2.0,1.1600371999666095,,060,01,2025-04-29_16h35.47.729,Surprise recog test,2023.1.3,59.92814601044299,
174,0,174,0,,,,,,,,,,,,,,,,,,,,,,,,,,,,,,,,,,629.5624967999756,630.580302500166,628.6080390000716,628.6080390000716,628.6080390000716,628.6080390000716,new_stationery_16.png,175,2.0,0.94835410034284,,060,01,2025-04-29_16h35.47.729,Surprise recog test,2023.1.3,59.92814601044299,
175,0,175,0,,,,,,,,,,,,,,,,,,,,,,,,,,,,,,,,,,631.5061694998294,632.5255586002022,630.580302500166,630.580302500166,630.580302500166,630.580302500166,old_sceneIn_5.png,176,3.0,0.919079499784857,,060,01,2025-04-29_16h35.47.729,Surprise recog test,2023.1.3,59.92814601044299,
176,0,176,0,,,,,,,,,,,,,,,,,,,,,,,,,,,,,,,,,,633.6210584999062,634.6336427000351,632.5255586002022,632.5255586002022,632.5255586002022,632.5255586002022,old_sceneIn_27.png,177,3.0,1.0917032998986542,,060,01,2025-04-29_16h35.47.729,Surprise recog test,2023.1.3,59.92814601044299,
177,0,177,0,,,,,,,,,,,,,,,,,,,,,,,,,,,,,,,,,,636.1968370000832,,634.6336427000351,634.6336427000351,634.6336427000351,634.6336427000351,old_stationery_47.png,178,5.0,1.558877999894321,,060,01,2025-04-29_16h35.47.729,Surprise recog test,2023.1.3,59.92814601044299,
178,0,178,0,,,,,,,,,,,,,,,,,,,,,,,,,,,,,,,,,,638.1079440000467,639.135298400186,637.2311721001752,637.2311721001752,637.2311721001752,637.2311721001752,old_stationery_21.png,179,5.0,0.8767118002288043,,060,01,2025-04-29_16h35.47.729,Surprise recog test,2023.1.3,59.92814601044299,
179,0,179,0,,,,,,,,,,,,,,,,,,,,,,,,,,,,,,,,,,641.0176201001741,,639.135298400186,639.135298400186,639.135298400186,639.135298400186,old_fruit_21.png,180,1.0,1.8853678996674716,,060,01,2025-04-29_16h35.47.729,Surprise recog test,2023.1.3,59.92814601044299,
180,0,180,0,,,,,,,,,,,,,,,,,,,,,,,,,,,,,,,,,,642.6614635000005,643.6809088001028,642.0390371000394,642.0390371000394,642.0390371000394,642.0390371000394,old_sceneOut_4.png,181,2.0,0.6181356003507972,,060,01,2025-04-29_16h35.47.729,Surprise recog test,2023.1.3,59.92814601044299,
181,0,181,0,,,,,,,,,,,,,,,,,,,,,,,,,,,,,,,,,,644.4584201001562,645.4753498001955,643.6809088001028,643.6809088001028,643.6809088001028,643.6809088001028,new_sceneIn_29.png,182,3.0,0.7782246000133455,,060,01,2025-04-29_16h35.47.729,Surprise recog test,2023.1.3,59.92814601044299,
182,0,182,0,,,,,,,,,,,,,,,,,,,,,,,,,,,,,,,,,,647.3783253999427,648.3979055997916,645.4753498001955,645.4753498001955,645.4753498001955,645.4753498001955,old_fruit_16.png,183,2.0,1.8983660996891558,,060,01,2025-04-29_16h35.47.729,Surprise recog test,2023.1.3,59.92814601044299,
183,0,183,0,,,,,,,,,,,,,,,,,,,,,,,,,,,,,,,,,,649.0622517000884,650.0894848997705,648.3979055997916,648.3979055997916,648.3979055997916,648.3979055997916,old_fruit_29.png,184,2.0,0.6642196998000145,,060,01,2025-04-29_16h35.47.729,Surprise recog test,2023.1.3,59.92814601044299,
184,0,184,0,,,,,,,,,,,,,,,,,,,,,,,,,,,,,,,,,,650.6583814001642,,650.0894848997705,650.0894848997705,650.0894848997705,650.0894848997705,old_sceneOut_30.png,185,4.0,0.570181000046432,,060,01,2025-04-29_16h35.47.729,Surprise recog test,2023.1.3,59.92814601044299,
185,0,185,0,,,,,,,,,,,,,,,,,,,,,,,,,,,,,,,,,,652.4582922998816,653.4666800000705,651.6988912001252,651.6988912001252,651.6988912001252,651.6988912001252,old_stationery_42.png,186,3.0,0.7633182001300156,,060,01,2025-04-29_16h35.47.729,Surprise recog test,2023.1.3,59.92814601044299,
186,0,186,0,,,,,,,,,,,,,,,,,,,,,,,,,,,,,,,,,,654.8671503001824,655.8854514998384,653.4666800000705,653.4666800000705,653.4666800000705,653.4666800000705,old_sceneIn_30.png,187,4.0,1.3949943999759853,,060,01,2025-04-29_16h35.47.729,Surprise recog test,2023.1.3,59.92814601044299,
187,0,187,0,,,,,,,,,,,,,,,,,,,,,,,,,,,,,,,,,,656.7862036000006,657.8103097998537,655.8854514998384,655.8854514998384,655.8854514998384,655.8854514998384,old_sceneOut_33.png,188,2.0,0.8939403998665512,,060,01,2025-04-29_16h35.47.729,Surprise recog test,2023.1.3,59.92814601044299,
188,0,188,0,,,,,,,,,,,,,,,,,,,,,,,,,,,,,,,,,,659.447012799792,660.4547641999088,657.8103097998537,657.8103097998537,657.8103097998537,657.8103097998537,old_sceneIn_50.png,189,3.0,1.6325795999728143,,060,01,2025-04-29_16h35.47.729,Surprise recog test,2023.1.3,59.92814601044299,
189,0,189,0,,,,,,,,,,,,,,,,,,,,,,,,,,,,,,,,,,661.1126119000837,662.1357100000605,660.4547641999088,660.4547641999088,660.4547641999088,660.4547641999088,old_sceneOut_44.png,190,2.0,0.6520008998923004,,060,01,2025-04-29_16h35.47.729,Surprise recog test,2023.1.3,59.92814601044299,
190,0,190,0,,,,,,,,,,,,,,,,,,,,,,,,,,,,,,,,,,663.0588305001147,664.087136299815,662.1357100000605,662.1357100000605,662.1357100000605,662.1357100000605,new_sceneIn_5.png,191,3.0,0.9262127000838518,,060,01,2025-04-29_16h35.47.729,Surprise recog test,2023.1.3,59.92814601044299,
191,0,191,0,,,,,,,,,,,,,,,,,,,,,,,,,,,,,,,,,,665.3978681000881,666.4200655999593,664.087136299815,664.087136299815,664.087136299815,664.087136299815,new_fruit_25.png,192,1.0,1.3131133001297712,,060,01,2025-04-29_16h35.47.729,Surprise recog test,2023.1.3,59.92814601044299,
192,0,192,0,,,,,,,,,,,,,,,,,,,,,,,,,,,,,,,,,,667.5404099998996,,666.4200655999593,666.4200655999593,666.4200655999593,666.4200655999593,new_stationery_22.png,193,4.0,1.1215699999593198,,060,01,2025-04-29_16h35.47.729,Surprise recog test,2023.1.3,59.92814601044299,
193,0,193,0,,,,,,,,,,,,,,,,,,,,,,,,,,,,,,,,,,669.36441189982,670.3805403998122,668.5613529998809,668.5613529998809,668.5613529998809,668.5613529998809,old_sceneIn_21.png,194,4.0,0.797688000369817,,060,01,2025-04-29_16h35.47.729,Surprise recog test,2023.1.3,59.92814601044299,
194,0,194,0,,,,,,,,,,,,,,,,,,,,,,,,,,,,,,,,,,671.4235553997569,672.4409599001519,670.3805403998122,670.3805403998122,670.3805403998122,670.3805403998122,new_stationery_41.png,195,4.0,1.0381221999414265,,060,01,2025-04-29_16h35.47.729,Surprise recog test,2023.1.3,59.92814601044299,
195,0,195,0,,,,,,,,,,,,,,,,,,,,,,,,,,,,,,,,,,674.1028876001947,675.129274699837,672.4409599001519,672.4409599001519,672.4409599001519,672.4409599001519,new_sceneIn_32.png,196,4.0,1.6586253996938467,,060,01,2025-04-29_16h35.47.729,Surprise recog test,2023.1.3,59.92814601044299,
196,0,196,0,,,,,,,,,,,,,,,,,,,,,,,,,,,,,,,,,,676.0433192998171,677.0661049000919,675.129274699837,675.129274699837,675.129274699837,675.129274699837,old_sceneIn_29.png,197,4.0,0.9137745001353323,,060,01,2025-04-29_16h35.47.729,Surprise recog test,2023.1.3,59.92814601044299,
197,0,197,0,,,,,,,,,,,,,,,,,,,,,,,,,,,,,,,,,,678.141655200161,679.1654676999897,677.0661049000919,677.0661049000919,677.0661049000919,677.0661049000919,old_stationery_14.png,198,5.0,1.0768348998390138,,060,01,2025-04-29_16h35.47.729,Surprise recog test,2023.1.3,59.92814601044299,
198,0,198,0,,,,,,,,,,,,,,,,,,,,,,,,,,,,,,,,,,680.194251100067,681.2120563001372,679.1654676999897,679.1654676999897,679.1654676999897,679.1654676999897,new_sceneIn_11.png,199,4.0,1.0306468000635505,,060,01,2025-04-29_16h35.47.729,Surprise recog test,2023.1.3,59.92814601044299,
199,0,199,0,,,,,,,,,,,,,,,,,,,,,,,,,,,,,,,,,,682.2086268998682,683.2234093998559,681.2120563001372,681.2120563001372,681.2120563001372,681.2120563001372,new_fruit_21.png,200,2.0,0.9974488997831941,,060,01,2025-04-29_16h35.47.729,Surprise recog test,2023.1.3,59.92814601044299,
200,0,200,0,,,,,,,,,,,,,,,,,,,,,,,,,,,,,,,,,,684.6068694000132,685.6334687997587,683.2234093998559,683.2234093998559,683.2234093998559,683.2234093998559,new_fruit_30.png,201,3.0,1.379057299811393,,060,01,2025-04-29_16h35.47.729,Surprise recog test,2023.1.3,59.92814601044299,
201,0,201,0,,,,,,,,,,,,,,,,,,,,,,,,,,,,,,,,,,687.5035927998833,688.5081917000934,685.6334687997587,685.6334687997587,685.6334687997587,685.6334687997587,old_stationery_5.png,202,4.0,1.8717056000605226,,060,01,2025-04-29_16h35.47.729,Surprise recog test,2023.1.3,59.92814601044299,
202,0,202,0,,,,,,,,,,,,,,,,,,,,,,,,,,,,,,,,,,689.2734063998796,690.2920770999044,688.5081917000934,688.5081917000934,688.5081917000934,688.5081917000934,old_sceneIn_9.png,203,4.0,0.760901500005275,,060,01,2025-04-29_16h35.47.729,Surprise recog test,2023.1.3,59.92814601044299,
203,0,203,0,,,,,,,,,,,,,,,,,,,,,,,,,,,,,,,,,,691.9989809999242,693.025201600045,690.2920770999044,690.2920770999044,690.2920770999044,690.2920770999044,new_stationery_31.png,204,3.0,1.7064771000295877,,060,01,2025-04-29_16h35.47.729,Surprise recog test,2023.1.3,59.92814601044299,
204,0,204,0,,,,,,,,,,,,,,,,,,,,,,,,,,,,,,,,,,693.8688710001297,694.8971430999227,693.025201600045,693.025201600045,693.025201600045,693.025201600045,old_sceneIn_40.png,205,2.0,0.8424496003426611,,060,01,2025-04-29_16h35.47.729,Surprise recog test,2023.1.3,59.92814601044299,
205,0,205,0,,,,,,,,,,,,,,,,,,,,,,,,,,,,,,,,,,696.3017915999517,697.3289570999332,694.8971430999227,694.8971430999227,694.8971430999227,694.8971430999227,old_fruit_14.png,206,1.0,1.406444899737835,,060,01,2025-04-29_16h35.47.729,Surprise recog test,2023.1.3,59.92814601044299,
206,0,206,0,,,,,,,,,,,,,,,,,,,,,,,,,,,,,,,,,,698.556001199875,699.5832222001627,697.3289570999332,697.3289570999332,697.3289570999332,697.3289570999332,new_sceneOut_30.png,207,2.0,1.2302431999705732,,060,01,2025-04-29_16h35.47.729,Surprise recog test,2023.1.3,59.92814601044299,
207,0,207,0,,,,,,,,,,,,,,,,,,,,,,,,,,,,,,,,,,701.4323152001016,702.4512102999724,699.5832222001627,699.5832222001627,699.5832222001627,699.5832222001627,old_stationery_23.png,208,2.0,1.8513919999822974,,060,01,2025-04-29_16h35.47.729,Surprise recog test,2023.1.3,59.92814601044299,
208,0,208,0,,,,,,,,,,,,,,,,,,,,,,,,,,,,,,,,,,703.6818380001932,704.7001721998677,702.4512102999724,702.4512102999724,702.4512102999724,702.4512102999724,new_fruit_44.png,209,1.0,1.2322855000384152,,060,01,2025-04-29_16h35.47.729,Surprise recog test,2023.1.3,59.92814601044299,
209,0,209,0,,,,,,,,,,,,,,,,,,,,,,,,,,,,,,,,,,705.5620924998075,706.5740710999817,704.7001721998677,704.7001721998677,704.7001721998677,704.7001721998677,old_sceneOut_46.png,210,3.0,0.863529599737376,,060,01,2025-04-29_16h35.47.729,Surprise recog test,2023.1.3,59.92814601044299,
210,0,210,0,,,,,,,,,,,,,,,,,,,,,,,,,,,,,,,,,,707.737151300069,708.7542483997531,706.5740710999817,706.5740710999817,706.5740710999817,706.5740710999817,new_fruit_33.png,211,2.0,1.1591372000984848,,060,01,2025-04-29_16h35.47.729,Surprise recog test,2023.1.3,59.92814601044299,
211,0,211,0,,,,,,,,,,,,,,,,,,,,,,,,,,,,,,,,,,709.7864349000156,710.7957636998035,708.7542483997531,708.7542483997531,708.7542483997531,708.7542483997531,new_fruit_48.png,212,2.0,1.0340692000463605,,060,01,2025-04-29_16h35.47.729,Surprise recog test,2023.1.3,59.92814601044299,
212,0,212,0,,,,,,,,,,,,,,,,,,,,,,,,,,,,,,,,,,712.5206842999905,713.5444881999865,710.7957636998035,710.7957636998035,710.7957636998035,710.7957636998035,new_sceneOut_17.png,213,3.0,1.7164191002957523,,060,01,2025-04-29_16h35.47.729,Surprise recog test,2023.1.3,59.92814601044299,
213,0,213,0,,,,,,,,,,,,,,,,,,,,,,,,,,,,,,,,,,714.5282966997474,,713.5444881999865,713.5444881999865,713.5444881999865,713.5444881999865,new_fruit_14.png,214,1.0,0.9860408999957144,,060,01,2025-04-29_16h35.47.729,Surprise recog test,2023.1.3,59.92814601044299,
214,0,214,0,,,,,,,,,,,,,,,,,,,,,,,,,,,,,,,,,,716.6010169000365,717.6359029999003,715.5584378000349,715.5584378000349,715.5584378000349,715.5584378000349,new_stationery_11.png,215,4.0,1.044186799786985,,060,01,2025-04-29_16h35.47.729,Surprise recog test,2023.1.3,59.92814601044299,
215,0,215,0,,,,,,,,,,,,,,,,,,,,,,,,,,,,,,,,,,718.6544699999504,719.6680244999006,717.6359029999003,717.6359029999003,717.6359029999003,717.6359029999003,old_fruit_3.png,216,2.0,1.01927090017125,,060,01,2025-04-29_16h35.47.729,Surprise recog test,2023.1.3,59.92814601044299,
216,0,216,0,,,,,,,,,,,,,,,,,,,,,,,,,,,,,,,,,,721.2828782000579,722.3114470997825,719.6680244999006,719.6680244999006,719.6680244999006,719.6680244999006,new_sceneIn_45.png,217,3.0,1.609120599925518,,060,01,2025-04-29_16h35.47.729,Surprise recog test,2023.1.3,59.92814601044299,
217,0,217,0,,,,,,,,,,,,,,,,,,,,,,,,,,,,,,,,,,723.5263172998093,724.5537760998122,722.3114470997825,722.3114470997825,722.3114470997825,722.3114470997825,old_sceneOut_49.png,218,2.0,1.2190341004170477,,060,01,2025-04-29_16h35.47.729,Surprise recog test,2023.1.3,59.92814601044299,
218,0,218,0,,,,,,,,,,,,,,,,,,,,,,,,,,,,,,,,,,725.9915542998351,727.0145417000167,724.5537760998122,724.5537760998122,724.5537760998122,724.5537760998122,new_fruit_27.png,219,1.0,1.436073100194335,,060,01,2025-04-29_16h35.47.729,Surprise recog test,2023.1.3,59.92814601044299,
219,0,219,0,,,,,,,,,,,,,,,,,,,,,,,,,,,,,,,,,,727.5975339999422,728.6080855000764,727.0145417000167,727.0145417000167,727.0145417000167,727.0145417000167,new_sceneOut_9.png,220,2.0,0.5811083000153303,,060,01,2025-04-29_16h35.47.729,Surprise recog test,2023.1.3,59.92814601044299,
220,0,220,0,,,,,,,,,,,,,,,,,,,,,,,,,,,,,,,,,,729.4906032998115,,728.6080855000764,728.6080855000764,728.6080855000764,728.6080855000764,new_sceneOut_32.png,221,2.0,0.8754111998714507,,060,01,2025-04-29_16h35.47.729,Surprise recog test,2023.1.3,59.92814601044299,
221,0,221,0,,,,,,,,,,,,,,,,,,,,,,,,,,,,,,,,,,731.7436056998558,,730.5123092997819,730.5123092997819,730.5123092997819,730.5123092997819,new_stationery_46.png,222,4.0,1.2263361997902393,,060,01,2025-04-29_16h35.47.729,Surprise recog test,2023.1.3,59.92814601044299,
222,0,222,0,,,,,,,,,,,,,,,,,,,,,,,,,,,,,,,,,,733.7867705998942,734.8084102999419,732.7642024001107,732.7642024001107,732.7642024001107,732.7642024001107,new_stationery_14.png,223,4.0,1.0178044000640512,,060,01,2025-04-29_16h35.47.729,Surprise recog test,2023.1.3,59.92814601044299,
223,0,223,0,,,,,,,,,,,,,,,,,,,,,,,,,,,,,,,,,,735.7726533999667,736.7972488999367,734.8084102999419,734.8084102999419,734.8084102999419,734.8084102999419,old_stationery_6.png,224,5.0,0.9656907999888062,,060,01,2025-04-29_16h35.47.729,Surprise recog test,2023.1.3,59.92814601044299,
224,0,224,0,,,,,,,,,,,,,,,,,,,,,,,,,,,,,,,,,,737.9789241999388,738.9867353998125,736.7972488999367,736.7972488999367,736.7972488999367,736.7972488999367,old_fruit_49.png,225,1.0,1.1789285000413656,,060,01,2025-04-29_16h35.47.729,Surprise recog test,2023.1.3,59.92814601044299,
225,0,225,0,,,,,,,,,,,,,,,,,,,,,,,,,,,,,,,,,,739.8928767000325,740.9181074001826,738.9867353998125,738.9867353998125,738.9867353998125,738.9867353998125,old_sceneOut_18.png,226,2.0,0.8993653003126383,,060,01,2025-04-29_16h35.47.729,Surprise recog test,2023.1.3,59.92814601044299,
226,0,226,0,,,,,,,,,,,,,,,,,,,,,,,,,,,,,,,,,,741.6403521001339,742.6534115001559,740.9181074001826,740.9181074001826,740.9181074001826,740.9181074001826,new_sceneIn_15.png,227,3.0,0.7253256998956203,,060,01,2025-04-29_16h35.47.729,Surprise recog test,2023.1.3,59.92814601044299,
227,0,227,0,,,,,,,,,,,,,,,,,,,,,,,,,,,,,,,,,,743.0704219001345,,742.6534115001559,742.6534115001559,742.6534115001559,742.6534115001559,old_stationery_37.png,228,2.0,0.4127393998205662,,060,01,2025-04-29_16h35.47.729,Surprise recog test,2023.1.3,59.92814601044299,
228,0,228,0,,,,,,,,,,,,,,,,,,,,,,,,,,,,,,,,,,744.6319543998688,745.6544598997571,744.0951879997738,744.0951879997738,744.0951879997738,744.0951879997738,new_sceneIn_20.png,229,4.0,0.5362987001426518,,060,01,2025-04-29_16h35.47.729,Surprise recog test,2023.1.3,59.92814601044299,
229,0,229,0,,,,,,,,,,,,,,,,,,,,,,,,,,,,,,,,,,746.5056690000929,,745.6544598997571,745.6544598997571,745.6544598997571,745.6544598997571,new_fruit_37.png,230,1.0,0.8530359999276698,,060,01,2025-04-29_16h35.47.729,Surprise recog test,2023.1.3,59.92814601044299,
230,0,230,0,,,,,,,,,,,,,,,,,,,,,,,,,,,,,,,,,,748.0115755000152,749.0277964998968,747.5376391001046,747.5376391001046,747.5376391001046,747.5376391001046,new_sceneOut_41.png,231,2.0,0.4752529999241233,,060,01,2025-04-29_16h35.47.729,Surprise recog test,2023.1.3,59.92814601044299,
231,0,231,0,,,,,,,,,,,,,,,,,,,,,,,,,,,,,,,,,,749.7862761998549,750.800147399772,749.0277964998968,749.0277964998968,749.0277964998968,749.0277964998968,new_stationery_9.png,232,3.0,0.7536050998605788,,060,01,2025-04-29_16h35.47.729,Surprise recog test,2023.1.3,59.92814601044299,
232,0,232,0,,,,,,,,,,,,,,,,,,,,,,,,,,,,,,,,,,752.6106878998689,,750.800147399772,750.800147399772,750.800147399772,750.800147399772,new_stationery_28.png,233,4.0,1.8098042998462915,,060,01,2025-04-29_16h35.47.729,Surprise recog test,2023.1.3,59.92814601044299,
233,0,233,0,,,,,,,,,,,,,,,,,,,,,,,,,,,,,,,,,,754.3590116999112,755.375900699757,753.6431892002001,753.6431892002001,753.6431892002001,753.6431892002001,new_sceneIn_25.png,234,2.0,0.7171489000320435,,060,01,2025-04-29_16h35.47.729,Surprise recog test,2023.1.3,59.92814601044299,
234,0,234,0,,,,,,,,,,,,,,,,,,,,,,,,,,,,,,,,,,756.2636420000345,,755.375900699757,755.375900699757,755.375900699757,755.375900699757,old_fruit_25.png,235,2.0,0.8866352001205087,,060,01,2025-04-29_16h35.47.729,Surprise recog test,2023.1.3,59.92814601044299,
235,0,235,0,,,,,,,,,,,,,,,,,,,,,,,,,,,,,,,,,,758.8012141999789,759.8292522002012,757.2977028000169,757.2977028000169,757.2977028000169,757.2977028000169,new_fruit_24.png,236,3.0,1.5046916999854147,,060,01,2025-04-29_16h35.47.729,Surprise recog test,2023.1.3,59.92814601044299,
236,0,236,0,,,,,,,,,,,,,,,,,,,,,,,,,,,,,,,,,,761.0457214000635,762.0684783998877,759.8292522002012,759.8292522002012,759.8292522002012,759.8292522002012,new_sceneIn_3.png,237,2.0,1.2176969000138342,,060,01,2025-04-29_16h35.47.729,Surprise recog test,2023.1.3,59.92814601044299,
237,0,237,0,,,,,,,,,,,,,,,,,,,,,,,,,,,,,,,,,,762.8550605000928,763.8726499998011,762.0684783998877,762.0684783998877,762.0684783998877,762.0684783998877,new_sceneIn_34.png,238,3.0,0.7861444000154734,,060,01,2025-04-29_16h35.47.729,Surprise recog test,2023.1.3,59.92814601044299,
238,0,238,0,,,,,,,,,,,,,,,,,,,,,,,,,,,,,,,,,,764.9483468998224,765.9697591001168,763.8726499998011,763.8726499998011,763.8726499998011,763.8726499998011,old_stationery_15.png,239,4.0,1.0716478000395,,060,01,2025-04-29_16h35.47.729,Surprise recog test,2023.1.3,59.92814601044299,
239,0,239,0,,,,,,,,,,,,,,,,,,,,,,,,,,,,,,,,,,767.2105704997666,768.2393796998076,765.9697591001168,765.9697591001168,765.9697591001168,765.9697591001168,old_fruit_9.png,240,2.0,1.2401700001209974,,060,01,2025-04-29_16h35.47.729,Surprise recog test,2023.1.3,59.92814601044299,
240,0,240,0,,,,,,,,,,,,,,,,,,,,,,,,,,,,,,,,,,769.7794428998604,770.7969045997597,768.2393796998076,768.2393796998076,768.2393796998076,768.2393796998076,new_stationery_38.png,241,3.0,1.5411383998580277,,060,01,2025-04-29_16h35.47.729,Surprise recog test,2023.1.3,59.92814601044299,
241,0,241,0,,,,,,,,,,,,,,,,,,,,,,,,,,,,,,,,,,771.6674795001745,772.694238900207,770.7969045997597,770.7969045997597,770.7969045997597,770.7969045997597,old_sceneOut_38.png,242,2.0,0.863710000179708,,060,01,2025-04-29_16h35.47.729,Surprise recog test,2023.1.3,59.92814601044299,
242,0,242,0,,,,,,,,,,,,,,,,,,,,,,,,,,,,,,,,,,773.3016245001927,774.3223755997606,772.694238900207,772.694238900207,772.694238900207,772.694238900207,old_sceneOut_31.png,243,4.0,0.6102138999849558,,060,01,2025-04-29_16h35.47.729,Surprise recog test,2023.1.3,59.92814601044299,
243,0,243,0,,,,,,,,,,,,,,,,,,,,,,,,,,,,,,,,,,775.7091609998606,776.7247564001009,774.3223755997606,774.3223755997606,774.3223755997606,774.3223755997606,old_fruit_30.png,244,1.0,1.3872426999732852,,060,01,2025-04-29_16h35.47.729,Surprise recog test,2023.1.3,59.92814601044299,
244,0,244,0,,,,,,,,,,,,,,,,,,,,,,,,,,,,,,,,,,778.2485231999308,,776.7247564001009,776.7247564001009,776.7247564001009,776.7247564001009,new_fruit_16.png,245,2.0,1.5249572996981442,,060,01,2025-04-29_16h35.47.729,Surprise recog test,2023.1.3,59.92814601044299,
245,0,245,0,,,,,,,,,,,,,,,,,,,,,,,,,,,,,,,,,,780.2014739997685,,779.2797189997509,779.2797189997509,779.2797189997509,779.2797189997509,new_sceneOut_1.png,246,3.0,0.9235225999727845,,060,01,2025-04-29_16h35.47.729,Surprise recog test,2023.1.3,59.92814601044299,
246,0,246,0,,,,,,,,,,,,,,,,,,,,,,,,,,,,,,,,,,782.1486884998158,783.1752726999111,781.2211255999282,781.2211255999282,781.2211255999282,781.2211255999282,new_sceneIn_46.png,247,3.0,0.9230307000689209,,060,01,2025-04-29_16h35.47.729,Surprise recog test,2023.1.3,59.92814601044299,
247,0,247,0,,,,,,,,,,,,,,,,,,,,,,,,,,,,,,,,,,783.8750443998724,784.8922788999043,783.1752726999111,783.1752726999111,783.1752726999111,783.1752726999111,old_sceneOut_36.png,248,3.0,0.703647400252521,,060,01,2025-04-29_16h35.47.729,Surprise recog test,2023.1.3,59.92814601044299,
248,0,248,0,,,,,,,,,,,,,,,,,,,,,,,,,,,,,,,,,,785.7653469997458,786.7870526001789,784.8922788999043,784.8922788999043,784.8922788999043,784.8922788999043,new_fruit_9.png,249,1.0,0.8682341002859175,,060,01,2025-04-29_16h35.47.729,Surprise recog test,2023.1.3,59.92814601044299,
249,0,249,0,,,,,,,,,,,,,,,,,,,,,,,,,,,,,,,,,,787.9778558998369,789.0067421998829,786.7870526001789,786.7870526001789,786.7870526001789,786.7870526001789,old_fruit_40.png,250,1.0,1.192910899873823,,060,01,2025-04-29_16h35.47.729,Surprise recog test,2023.1.3,59.92814601044299,
250,0,250,0,,,,,,,,,,,,,,,,,,,,,,,,,,,,,,,,,,789.7955364999361,790.8278655000031,789.0067421998829,789.0067421998829,789.0067421998829,789.0067421998829,new_sceneIn_14.png,251,3.0,0.788145899772644,,060,01,2025-04-29_16h35.47.729,Surprise recog test,2023.1.3,59.92814601044299,
251,0,251,0,,,,,,,,,,,,,,,,,,,,,,,,,,,,,,,,,,791.5683276997879,792.5927932998165,790.8278655000031,790.8278655000031,790.8278655000031,790.8278655000031,old_sceneIn_13.png,252,3.0,0.7434902000240982,,060,01,2025-04-29_16h35.47.729,Surprise recog test,2023.1.3,59.92814601044299,
252,0,252,0,,,,,,,,,,,,,,,,,,,,,,,,,,,,,,,,,,793.525519200135,794.5332669997588,792.5927932998165,792.5927932998165,792.5927932998165,792.5927932998165,new_fruit_3.png,253,2.0,0.9352453001774848,,060,01,2025-04-29_16h35.47.729,Surprise recog test,2023.1.3,59.92814601044299,
253,0,253,0,,,,,,,,,,,,,,,,,,,,,,,,,,,,,,,,,,795.7061964999884,796.730158700142,794.5332669997588,794.5332669997588,794.5332669997588,794.5332669997588,new_sceneOut_3.png,254,4.0,1.1682742000557482,,060,01,2025-04-29_16h35.47.729,Surprise recog test,2023.1.3,59.92814601044299,
254,0,254,0,,,,,,,,,,,,,,,,,,,,,,,,,,,,,,,,,,797.4308922998607,,796.730158700142,796.730158700142,796.730158700142,796.730158700142,new_sceneOut_37.png,255,4.0,0.7025361997075379,,060,01,2025-04-29_16h35.47.729,Surprise recog test,2023.1.3,59.92814601044299,
255,0,255,0,,,,,,,,,,,,,,,,,,,,,,,,,,,,,,,,,,799.3698073998094,800.3996843001805,798.4656483000144,798.4656483000144,798.4656483000144,798.4656483000144,old_sceneOut_6.png,256,3.0,0.9065414997749031,,060,01,2025-04-29_16h35.47.729,Surprise recog test,2023.1.3,59.92814601044299,
256,0,256,0,,,,,,,,,,,,,,,,,,,,,,,,,,,,,,,,,,801.2816292000934,802.2901653000154,800.3996843001805,800.3996843001805,800.3996843001805,800.3996843001805,new_sceneOut_35.png,257,2.0,0.8799124998040497,,060,01,2025-04-29_16h35.47.729,Surprise recog test,2023.1.3,59.92814601044299,
257,0,257,0,,,,,,,,,,,,,,,,,,,,,,,,,,,,,,,,,,803.6130388998426,804.6293897000141,802.2901653000154,802.2901653000154,802.2901653000154,802.2901653000154,old_fruit_13.png,258,1.0,1.3184948000125587,,060,01,2025-04-29_16h35.47.729,Surprise recog test,2023.1.3,59.92814601044299,
258,0,258,0,,,,,,,,,,,,,,,,,,,,,,,,,,,,,,,,,,805.7671289998107,806.78886900004,804.6293897000141,804.6293897000141,804.6293897000141,804.6293897000141,old_fruit_37.png,259,2.0,1.1344031002372503,,060,01,2025-04-29_16h35.47.729,Surprise recog test,2023.1.3,59.92814601044299,
259,0,259,0,,,,,,,,,,,,,,,,,,,,,,,,,,,,,,,,,,808.0743212001398,,806.78886900004,806.78886900004,806.78886900004,806.78886900004,new_stationery_30.png,260,3.0,1.2862502001225948,,060,01,2025-04-29_16h35.47.729,Surprise recog test,2023.1.3,59.92814601044299,
260,0,260,0,,,,,,,,,,,,,,,,,,,,,,,,,,,,,,,,,,810.049653199967,811.0679156999104,809.1022931998596,809.1022931998596,809.1022931998596,809.1022931998596,new_sceneIn_18.png,261,2.0,0.9497270998544991,,060,01,2025-04-29_16h35.47.729,Surprise recog test,2023.1.3,59.92814601044299,
261,0,261,0,,,,,,,,,,,,,,,,,,,,,,,,,,,,,,,,,,811.9646669998765,812.9942046999931,811.0679156999104,811.0679156999104,811.0679156999104,811.0679156999104,old_fruit_48.png,262,1.0,0.896773099899292,,060,01,2025-04-29_16h35.47.729,Surprise recog test,2023.1.3,59.92814601044299,
262,0,262,0,,,,,,,,,,,,,,,,,,,,,,,,,,,,,,,,,,814.4556355001405,815.4846656997688,812.9942046999931,812.9942046999931,812.9942046999931,812.9942046999931,old_stationery_3.png,263,2.0,1.4607974998652935,,060,01,2025-04-29_16h35.47.729,Surprise recog test,2023.1.3,59.92814601044299,
263,0,263,0,,,,,,,,,,,,,,,,,,,,,,,,,,,,,,,,,,816.5900376997888,817.614691699855,815.4846656997688,815.4846656997688,815.4846656997688,815.4846656997688,old_sceneOut_23.png,264,3.0,1.1071894001215696,,060,01,2025-04-29_16h35.47.729,Surprise recog test,2023.1.3,59.92814601044299,
264,0,264,0,,,,,,,,,,,,,,,,,,,,,,,,,,,,,,,,,,818.672298700083,819.6986190997995,817.614691699855,817.614691699855,817.614691699855,817.614691699855,new_stationery_34.png,265,4.0,1.0569601999595761,,060,01,2025-04-29_16h35.47.729,Surprise recog test,2023.1.3,59.92814601044299,
265,0,265,0,,,,,,,,,,,,,,,,,,,,,,,,,,,,,,,,,,820.329252500087,821.3452531998046,819.6986190997995,819.6986190997995,819.6986190997995,819.6986190997995,old_sceneOut_45.png,266,4.0,0.6306095998734236,,060,01,2025-04-29_16h35.47.729,Surprise recog test,2023.1.3,59.92814601044299,
266,0,266,0,,,,,,,,,,,,,,,,,,,,,,,,,,,,,,,,,,822.3241922999732,823.3478501001373,821.3452531998046,821.3452531998046,821.3452531998046,821.3452531998046,old_fruit_47.png,267,1.0,0.9793546004220843,,060,01,2025-04-29_16h35.47.729,Surprise recog test,2023.1.3,59.92814601044299,
267,0,267,0,,,,,,,,,,,,,,,,,,,,,,,,,,,,,,,,,,824.2613470000215,825.2886175997555,823.3478501001373,823.3478501001373,823.3478501001373,823.3478501001373,old_stationery_28.png,268,4.0,0.9123507998883724,,060,01,2025-04-29_16h35.47.729,Surprise recog test,2023.1.3,59.92814601044299,
268,0,268,0,,,,,,,,,,,,,,,,,,,,,,,,,,,,,,,,,,825.9448061999865,826.9734100000933,825.2886175997555,825.2886175997555,825.2886175997555,825.2886175997555,old_sceneIn_16.png,269,4.0,0.6591109000146389,,060,01,2025-04-29_16h35.47.729,Surprise recog test,2023.1.3,59.92814601044299,
269,0,269,0,,,,,,,,,,,,,,,,,,,,,,,,,,,,,,,,,,827.9708682000637,828.993694699835,826.9734100000933,826.9734100000933,826.9734100000933,826.9734100000933,old_sceneIn_24.png,270,5.0,0.999585899990052,,060,01,2025-04-29_16h35.47.729,Surprise recog test,2023.1.3,59.92814601044299,
270,0,270,0,,,,,,,,,,,,,,,,,,,,,,,,,,,,,,,,,,829.9211202999577,830.9264119998552,828.993694699835,828.993694699835,828.993694699835,828.993694699835,new_sceneIn_35.png,271,5.0,0.9302431996911764,,060,01,2025-04-29_16h35.47.729,Surprise recog test,2023.1.3,59.92814601044299,
271,0,271,0,,,,,,,,,,,,,,,,,,,,,,,,,,,,,,,,,,831.6678026998416,832.6850791000761,830.9264119998552,830.9264119998552,830.9264119998552,830.9264119998552,new_sceneOut_26.png,272,3.0,0.7370150000788271,,060,01,2025-04-29_16h35.47.729,Surprise recog test,2023.1.3,59.92814601044299,
272,0,272,0,,,,,,,,,,,,,,,,,,,,,,,,,,,,,,,,,,834.2477559000254,835.2734578000382,832.6850791000761,832.6850791000761,832.6850791000761,832.6850791000761,new_fruit_34.png,273,4.0,1.5622342000715435,,060,01,2025-04-29_16h35.47.729,Surprise recog test,2023.1.3,59.92814601044299,
273,0,273,0,,,,,,,,,,,,,,,,,,,,,,,,,,,,,,,,,,836.5412619998679,837.5577601999976,835.2734578000382,835.2734578000382,835.2734578000382,835.2734578000382,old_stationery_49.png,274,4.0,1.2683899998664856,,060,01,2025-04-29_16h35.47.729,Surprise recog test,2023.1.3,59.92814601044299,
274,0,274,0,,,,,,,,,,,,,,,,,,,,,,,,,,,,,,,,,,838.4648048998788,,837.5577601999976,837.5577601999976,837.5577601999976,837.5577601999976,old_sceneIn_3.png,275,3.0,0.9072499996982515,,060,01,2025-04-29_16h35.47.729,Surprise recog test,2023.1.3,59.92814601044299,
275,0,275,0,,,,,,,,,,,,,,,,,,,,,,,,,,,,,,,,,,840.1590749002062,841.1727662999183,839.4866279000416,839.4866279000416,839.4866279000416,839.4866279000416,new_sceneIn_9.png,276,3.0,0.6685336995869875,,060,01,2025-04-29_16h35.47.729,Surprise recog test,2023.1.3,59.92814601044299,
276,0,276,0,,,,,,,,,,,,,,,,,,,,,,,,,,,,,,,,,,842.1010838001966,,841.1727662999183,841.1727662999183,841.1727662999183,841.1727662999183,old_fruit_32.png,277,2.0,0.9256020998582244,,060,01,2025-04-29_16h35.47.729,Surprise recog test,2023.1.3,59.92814601044299,
277,0,277,0,,,,,,,,,,,,,,,,,,,,,,,,,,,,,,,,,,844.05388939986,,843.132020900026,843.132020900026,843.132020900026,843.132020900026,old_sceneIn_10.png,278,3.0,0.9243028000928462,,060,01,2025-04-29_16h35.47.729,Surprise recog test,2023.1.3,59.92814601044299,
278,0,278,0,,,,,,,,,,,,,,,,,,,,,,,,,,,,,,,,,,845.7818204998039,846.8054273999296,845.085283299908,845.085283299908,845.085283299908,845.085283299908,old_sceneIn_44.png,279,3.0,0.6975947003811598,,060,01,2025-04-29_16h35.47.729,Surprise recog test,2023.1.3,59.92814601044299,
279,0,279,0,,,,,,,,,,,,,,,,,,,,,,,,,,,,,,,,,,847.4158538999036,848.4393071001396,846.8054273999296,846.8054273999296,846.8054273999296,846.8054273999296,new_sceneOut_47.png,280,3.0,0.6112948996014893,,060,01,2025-04-29_16h35.47.729,Surprise recog test,2023.1.3,59.92814601044299,
280,0,280,0,,,,,,,,,,,,,,,,,,,,,,,,,,,,,,,,,,849.8753777001984,,848.4393071001396,848.4393071001396,848.4393071001396,848.4393071001396,old_stationery_33.png,281,4.0,1.4363393001258373,,060,01,2025-04-29_16h35.47.729,Surprise recog test,2023.1.3,59.92814601044299,
281,0,281,0,,,,,,,,,,,,,,,,,,,,,,,,,,,,,,,,,,851.7703158999793,852.7907444997691,850.9022098998539,850.9022098998539,850.9022098998539,850.9022098998539,old_stationery_32.png,282,4.0,0.8684120997786522,,060,01,2025-04-29_16h35.47.729,Surprise recog test,2023.1.3,59.92814601044299,
282,0,282,0,,,,,,,,,,,,,,,,,,,,,,,,,,,,,,,,,,854.4009595001116,855.4304074998945,852.7907444997691,852.7907444997691,852.7907444997691,852.7907444997691,new_fruit_38.png,283,5.0,1.6097711003385484,,060,01,2025-04-29_16h35.47.729,Surprise recog test,2023.1.3,59.92814601044299,
283,0,283,0,,,,,,,,,,,,,,,,,,,,,,,,,,,,,,,,,,856.6323893000372,857.661189599894,855.4304074998945,855.4304074998945,855.4304074998945,855.4304074998945,old_fruit_11.png,284,2.0,1.2048949003219604,,060,01,2025-04-29_16h35.47.729,Surprise recog test,2023.1.3,59.92814601044299,
284,0,284,0,,,,,,,,,,,,,,,,,,,,,,,,,,,,,,,,,,858.5499591999687,,857.661189599894,857.661189599894,857.661189599894,857.661189599894,old_fruit_42.png,285,2.0,0.8875064998865128,,060,01,2025-04-29_16h35.47.729,Surprise recog test,2023.1.3,59.92814601044299,
285,0,285,0,,,,,,,,,,,,,,,,,,,,,,,,,,,,,,,,,,860.7614136999473,861.7823433000594,859.5710804997943,859.5710804997943,859.5710804997943,859.5710804997943,new_stationery_43.png,286,4.0,1.1873769997619092,,060,01,2025-04-29_16h35.47.729,Surprise recog test,2023.1.3,59.92814601044299,
286,0,286,0,,,,,,,,,,,,,,,,,,,,,,,,,,,,,,,,,,862.8591899997555,863.8828575997613,861.7823433000594,861.7823433000594,861.7823433000594,861.7823433000594,new_sceneIn_30.png,287,4.0,1.0784616000019014,,060,01,2025-04-29_16h35.47.729,Surprise recog test,2023.1.3,59.92814601044299,
287,0,287,0,,,,,,,,,,,,,,,,,,,,,,,,,,,,,,,,,,864.6438016998582,865.6718549998477,863.8828575997613,863.8828575997613,863.8828575997613,863.8828575997613,new_sceneOut_5.png,288,3.0,0.7586162001825869,,060,01,2025-04-29_16h35.47.729,Surprise recog test,2023.1.3,59.92814601044299,
288,0,288,0,,,,,,,,,,,,,,,,,,,,,,,,,,,,,,,,,,866.9090888998471,867.9276911001652,865.6718549998477,865.6718549998477,865.6718549998477,865.6718549998477,old_stationery_16.png,289,3.0,1.2373885000124574,,060,01,2025-04-29_16h35.47.729,Surprise recog test,2023.1.3,59.92814601044299,
289,0,289,0,,,,,,,,,,,,,,,,,,,,,,,,,,,,,,,,,,869.939884299878,870.9470548997633,867.9276911001652,867.9276911001652,867.9276911001652,867.9276911001652,new_sceneIn_6.png,290,3.0,2.0079064001329243,,060,01,2025-04-29_16h35.47.729,Surprise recog test,2023.1.3,59.92814601044299,
290,0,290,0,,,,,,,,,,,,,,,,,,,,,,,,,,,,,,,,,,872.0175736001693,873.0395178999752,870.9470548997633,870.9470548997633,870.9470548997633,870.9470548997633,old_sceneOut_39.png,291,2.0,1.0639931000769138,,060,01,2025-04-29_16h35.47.729,Surprise recog test,2023.1.3,59.92814601044299,
291,0,291,0,,,,,,,,,,,,,,,,,,,,,,,,,,,,,,,,,,874.5620976001956,,873.0395178999752,873.0395178999752,873.0395178999752,873.0395178999752,new_stationery_37.png,292,3.0,1.5214630998671055,,060,01,2025-04-29_16h35.47.729,Surprise recog test,2023.1.3,59.92814601044299,
292,0,292,0,,,,,,,,,,,,,,,,,,,,,,,,,,,,,,,,,,876.9524632999673,877.9659401001409,875.5954017001204,875.5954017001204,875.5954017001204,875.5954017001204,old_sceneOut_22.png,293,4.0,1.355977900326252,,060,01,2025-04-29_16h35.47.729,Surprise recog test,2023.1.3,59.92814601044299,
293,0,293,0,,,,,,,,,,,,,,,,,,,,,,,,,,,,,,,,,,878.5996102001518,,877.9659401001409,877.9659401001409,877.9659401001409,877.9659401001409,old_sceneOut_21.png,294,4.0,0.6299413996748626,,060,01,2025-04-29_16h35.47.729,Surprise recog test,2023.1.3,59.92814601044299,
294,0,294,0,,,,,,,,,,,,,,,,,,,,,,,,,,,,,,,,,,880.2641559001058,881.2684749001637,879.6327411998063,879.6327411998063,879.6327411998063,879.6327411998063,old_sceneOut_10.png,295,4.0,0.6332363002002239,,060,01,2025-04-29_16h35.47.729,Surprise recog test,2023.1.3,59.92814601044299,
295,0,295,0,,,,,,,,,,,,,,,,,,,,,,,,,,,,,,,,,,882.9844714999199,884.010097600054,881.2684749001637,881.2684749001637,881.2684749001637,881.2684749001637,new_sceneIn_40.png,296,5.0,1.7114431001245975,,060,01,2025-04-29_16h35.47.729,Surprise recog test,2023.1.3,59.92814601044299,
296,0,296,0,,,,,,,,,,,,,,,,,,,,,,,,,,,,,,,,,,885.1342553999275,886.1530757001601,884.010097600054,884.010097600054,884.010097600054,884.010097600054,new_stationery_42.png,297,5.0,1.1247610999271274,,060,01,2025-04-29_16h35.47.729,Surprise recog test,2023.1.3,59.92814601044299,
297,0,297,0,,,,,,,,,,,,,,,,,,,,,,,,,,,,,,,,,,887.3807989000343,888.3917502998374,886.1530757001601,886.1530757001601,886.1530757001601,886.1530757001601,new_stationery_12.png,298,3.0,1.229923099745065,,060,01,2025-04-29_16h35.47.729,Surprise recog test,2023.1.3,59.92814601044299,
298,0,298,0,,,,,,,,,,,,,,,,,,,,,,,,,,,,,,,,,,889.3741711000912,,888.3917502998374,888.3917502998374,888.3917502998374,888.3917502998374,new_sceneOut_20.png,299,2.0,0.9797578998841345,,060,01,2025-04-29_16h35.47.729,Surprise recog test,2023.1.3,59.92814601044299,
299,0,299,0,,,,,,,,,,,,,,,,,,,,,,,,,,,,,,,,,,891.2830638000742,892.3057376001962,890.4006881001405,890.4006881001405,890.4006881001405,890.4006881001405,new_sceneIn_4.png,300,2.0,0.8831090996973217,,060,01,2025-04-29_16h35.47.729,Surprise recog test,2023.1.3,59.92814601044299,
300,0,300,0,,,,,,,,,,,,,,,,,,,,,,,,,,,,,,,,,,893.324389600195,894.3288893997669,892.3057376001962,892.3057376001962,892.3057376001962,892.3057376001962,new_fruit_32.png,301,1.0,1.0150134996511042,,060,01,2025-04-29_16h35.47.729,Surprise recog test,2023.1.3,59.92814601044299,
301,0,301,0,,,,,,,,,,,,,,,,,,,,,,,,,,,,,,,,,,895.3185657002032,896.3359563997947,894.3288893997669,894.3288893997669,894.3288893997669,894.3288893997669,new_sceneOut_49.png,302,3.0,0.9856809000484645,,060,01,2025-04-29_16h35.47.729,Surprise recog test,2023.1.3,59.92814601044299,
302,0,302,0,,,,,,,,,,,,,,,,,,,,,,,,,,,,,,,,,,897.0002720002085,898.0308166001923,896.3359563997947,896.3359563997947,896.3359563997947,896.3359563997947,old_sceneOut_3.png,303,3.0,0.6585798002779484,,060,01,2025-04-29_16h35.47.729,Surprise recog test,2023.1.3,59.92814601044299,
303,0,303,0,,,,,,,,,,,,,,,,,,,,,,,,,,,,,,,,,,898.885484599974,899.9149984000251,898.0308166001923,898.0308166001923,898.0308166001923,898.0308166001923,new_fruit_11.png,304,2.0,0.8564320998266339,,060,01,2025-04-29_16h35.47.729,Surprise recog test,2023.1.3,59.92814601044299,
304,0,304,0,,,,,,,,,,,,,,,,,,,,,,,,,,,,,,,,,,900.5825454001315,,899.9149984000251,899.9149984000251,899.9149984000251,899.9149984000251,old_stationery_45.png,305,2.0,0.669603600166738,,060,01,2025-04-29_16h35.47.729,Surprise recog test,2023.1.3,59.92814601044299,
305,0,305,0,,,,,,,,,,,,,,,,,,,,,,,,,,,,,,,,,,902.5236583999358,903.5516233001836,901.6131217000075,901.6131217000075,901.6131217000075,901.6131217000075,new_sceneOut_15.png,306,3.0,0.9119773996062577,,060,01,2025-04-29_16h35.47.729,Surprise recog test,2023.1.3,59.92814601044299,
306,0,306,0,,,,,,,,,,,,,,,,,,,,,,,,,,,,,,,,,,904.8442644998431,905.8550907000899,903.5516233001836,903.5516233001836,903.5516233001836,903.5516233001836,old_sceneOut_41.png,307,4.0,1.294161300174892,,060,01,2025-04-29_16h35.47.729,Surprise recog test,2023.1.3,59.92814601044299,
307,0,307,0,,,,,,,,,,,,,,,,,,,,,,,,,,,,,,,,,,907.0497614997439,908.069924400188,905.8550907000899,905.8550907000899,905.8550907000899,905.8550907000899,old_sceneIn_23.png,308,4.0,1.1888346001505852,,060,01,2025-04-29_16h35.47.729,Surprise recog test,2023.1.3,59.92814601044299,
308,0,308,0,,,,,,,,,,,,,,,,,,,,,,,,,,,,,,,,,,909.0810373998247,910.1018590000458,908.069924400188,908.069924400188,908.069924400188,908.069924400188,new_stationery_24.png,309,4.0,1.0126736001111567,,060,01,2025-04-29_16h35.47.729,Surprise recog test,2023.1.3,59.92814601044299,
309,0,309,0,,,,,,,,,,,,,,,,,,,,,,,,,,,,,,,,,,910.9059036998078,911.9271475998685,910.1018590000458,910.1018590000458,910.1018590000458,910.1018590000458,old_sceneIn_48.png,310,3.0,0.800420300103724,,060,01,2025-04-29_16h35.47.729,Surprise recog test,2023.1.3,59.92814601044299,
310,0,310,0,,,,,,,,,,,,,,,,,,,,,,,,,,,,,,,,,,912.7349537997507,913.7463972000405,911.9271475998685,911.9271475998685,911.9271475998685,911.9271475998685,old_sceneIn_46.png,311,3.0,0.8100391002371907,,060,01,2025-04-29_16h35.47.729,Surprise recog test,2023.1.3,59.92814601044299,
311,0,311,0,,,,,,,,,,,,,,,,,,,,,,,,,,,,,,,,,,914.9284001998603,,913.7463972000405,913.7463972000405,913.7463972000405,913.7463972000405,old_sceneIn_39.png,312,2.0,1.175725500099361,,060,01,2025-04-29_16h35.47.729,Surprise recog test,2023.1.3,59.92814601044299,
312,0,312,0,,,,,,,,,,,,,,,,,,,,,,,,,,,,,,,,,,917.3023466998711,918.3305897000246,915.963722600136,915.963722600136,915.963722600136,915.963722600136,new_stationery_23.png,313,2.0,1.3401701003313065,,060,01,2025-04-29_16h35.47.729,Surprise recog test,2023.1.3,59.92814601044299,
313,0,313,0,,,,,,,,,,,,,,,,,,,,,,,,,,,,,,,,,,919.3934474000707,920.4035156001337,918.3305897000246,918.3305897000246,918.3305897000246,918.3305897000246,new_sceneOut_50.png,314,2.0,1.064689400140196,,060,01,2025-04-29_16h35.47.729,Surprise recog test,2023.1.3,59.92814601044299,
314,0,314,0,,,,,,,,,,,,,,,,,,,,,,,,,,,,,,,,,,921.3367321998812,922.3568469001912,920.4035156001337,920.4035156001337,920.4035156001337,920.4035156001337,new_fruit_4.png,315,1.0,0.9275925001129508,,060,01,2025-04-29_16h35.47.729,Surprise recog test,2023.1.3,59.92814601044299,
315,0,315,0,,,,,,,,,,,,,,,,,,,,,,,,,,,,,,,,,,923.0489839999937,924.0573593000881,922.3568469001912,922.3568469001912,922.3568469001912,922.3568469001912,new_sceneOut_33.png,316,2.0,0.6903619999065995,,060,01,2025-04-29_16h35.47.729,Surprise recog test,2023.1.3,59.92814601044299,
316,0,316,0,,,,,,,,,,,,,,,,,,,,,,,,,,,,,,,,,,925.1812716000713,926.1893516001292,924.0573593000881,924.0573593000881,924.0573593000881,924.0573593000881,new_sceneOut_44.png,317,3.0,1.1170903001911938,,060,01,2025-04-29_16h35.47.729,Surprise recog test,2023.1.3,59.92814601044299,
317,0,317,0,,,,,,,,,,,,,,,,,,,,,,,,,,,,,,,,,,927.8933524000458,928.9215969997458,926.1893516001292,926.1893516001292,926.1893516001292,926.1893516001292,new_fruit_40.png,318,4.0,1.6995704001747072,,060,01,2025-04-29_16h35.47.729,Surprise recog test,2023.1.3,59.92814601044299,
318,0,318,0,,,,,,,,,,,,,,,,,,,,,,,,,,,,,,,,,,929.8214739998803,930.8290858999826,928.9215969997458,928.9215969997458,928.9215969997458,928.9215969997458,old_sceneIn_6.png,319,3.0,0.8942877999506891,,060,01,2025-04-29_16h35.47.729,Surprise recog test,2023.1.3,59.92814601044299,
319,0,319,0,,,,,,,,,,,,,,,,,,,,,,,,,,,,,,,,,,931.8232652000152,932.8299925997853,930.8290858999826,930.8290858999826,930.8290858999826,930.8290858999826,old_sceneIn_7.png,320,2.0,0.9866721001453698,,060,01,2025-04-29_16h35.47.729,Surprise recog test,2023.1.3,59.92814601044299,
320,0,320,0,,,,,,,,,,,,,,,,,,,,,,,,,,,,,,,,,,933.5592294000089,934.5701418998651,932.8299925997853,932.8299925997853,932.8299925997853,932.8299925997853,new_stationery_40.png,321,3.0,0.7244389001280069,,060,01,2025-04-29_16h35.47.729,Surprise recog test,2023.1.3,59.92814601044299,
321,0,321,0,,,,,,,,,,,,,,,,,,,,,,,,,,,,,,,,,,935.1876854998991,936.2007671999745,934.5701418998651,934.5701418998651,934.5701418998651,934.5701418998651,old_sceneOut_13.png,322,3.0,0.6158006000332534,,060,01,2025-04-29_16h35.47.729,Surprise recog test,2023.1.3,59.92814601044299,
322,0,322,0,,,,,,,,,,,,,,,,,,,,,,,,,,,,,,,,,,936.9724924000911,937.9856977998279,936.2007671999745,936.2007671999745,936.2007671999745,936.2007671999745,new_sceneOut_2.png,323,2.0,0.7672926997765899,,060,01,2025-04-29_16h35.47.729,Surprise recog test,2023.1.3,59.92814601044299,
323,0,323,0,,,,,,,,,,,,,,,,,,,,,,,,,,,,,,,,,,938.7875828999095,939.8036941001192,937.9856977998279,937.9856977998279,937.9856977998279,937.9856977998279,new_sceneOut_10.png,324,4.0,0.7963791000656784,,060,01,2025-04-29_16h35.47.729,Surprise recog test,2023.1.3,59.92814601044299,
324,0,324,0,,,,,,,,,,,,,,,,,,,,,,,,,,,,,,,,,,940.8022032999434,941.8229084000923,939.8036941001192,939.8036941001192,939.8036941001192,939.8036941001192,new_fruit_47.png,325,1.0,0.9919914999045432,,060,01,2025-04-29_16h35.47.729,Surprise recog test,2023.1.3,59.92814601044299,
325,0,325,0,,,,,,,,,,,,,,,,,,,,,,,,,,,,,,,,,,942.7876579998992,943.8044060999528,941.8229084000923,941.8229084000923,941.8229084000923,941.8229084000923,old_fruit_12.png,326,2.0,0.9606826002709568,,060,01,2025-04-29_16h35.47.729,Surprise recog test,2023.1.3,59.92814601044299,
326,0,326,0,,,,,,,,,,,,,,,,,,,,,,,,,,,,,,,,,,944.5850839000195,945.6035640998743,943.8044060999528,943.8044060999528,943.8044060999528,943.8044060999528,new_sceneOut_42.png,327,2.0,0.7757178000174463,,060,01,2025-04-29_16h35.47.729,Surprise recog test,2023.1.3,59.92814601044299,
327,0,327,0,,,,,,,,,,,,,,,,,,,,,,,,,,,,,,,,,,946.2549157999456,,945.6035640998743,945.6035640998743,945.6035640998743,945.6035640998743,old_fruit_41.png,328,1.0,0.6523541999049485,,060,01,2025-04-29_16h35.47.729,Surprise recog test,2023.1.3,59.92814601044299,
328,0,328,0,,,,,,,,,,,,,,,,,,,,,,,,,,,,,,,,,,947.7819706001319,948.8061290001497,947.2759374999441,947.2759374999441,947.2759374999441,947.2759374999441,old_sceneIn_22.png,329,2.0,0.5015345001593232,,060,01,2025-04-29_16h35.47.729,Surprise recog test,2023.1.3,59.92814601044299,
329,0,329,0,,,,,,,,,,,,,,,,,,,,,,,,,,,,,,,,,,949.6561671998352,950.6716331997886,948.8061290001497,948.8061290001497,948.8061290001497,948.8061290001497,new_fruit_35.png,330,3.0,0.851086700335145,,060,01,2025-04-29_16h35.47.729,Surprise recog test,2023.1.3,59.92814601044299,
330,0,330,0,,,,,,,,,,,,,,,,,,,,,,,,,,,,,,,,,,951.7360056000762,952.7608415000141,950.6716331997886,950.6716331997886,950.6716331997886,950.6716331997886,old_stationery_11.png,331,4.0,1.0665012001991272,,060,01,2025-04-29_16h35.47.729,Surprise recog test,2023.1.3,59.92814601044299,
331,0,331,0,,,,,,,,,,,,,,,,,,,,,,,,,,,,,,,,,,953.4059385000728,954.4157805000432,952.7608415000141,952.7608415000141,952.7608415000141,952.7608415000141,old_stationery_41.png,332,4.0,0.6466783001087606,,060,01,2025-04-29_16h35.47.729,Surprise recog test,2023.1.3,59.92814601044299,
332,0,332,0,,,,,,,,,,,,,,,,,,,,,,,,,,,,,,,,,,955.0580504997633,956.0804448002018,954.4157805000432,954.4157805000432,954.4157805000432,954.4157805000432,new_sceneIn_31.png,333,3.0,0.636358099989593,,060,01,2025-04-29_16h35.47.729,Surprise recog test,2023.1.3,59.92814601044299,
333,0,333,0,,,,,,,,,,,,,,,,,,,,,,,,,,,,,,,,,,957.0216780998744,958.0406164000742,956.0804448002018,956.0804448002018,956.0804448002018,956.0804448002018,new_stationery_48.png,334,4.0,0.9453221000730991,,060,01,2025-04-29_16h35.47.729,Surprise recog test,2023.1.3,59.92814601044299,
334,0,334,0,,,,,,,,,,,,,,,,,,,,,,,,,,,,,,,,,,958.7728560999967,959.8012287998572,958.0406164000742,958.0406164000742,958.0406164000742,958.0406164000742,old_fruit_38.png,335,2.0,0.7313693999312818,,060,01,2025-04-29_16h35.47.729,Surprise recog test,2023.1.3,59.92814601044299,
335,0,335,0,,,,,,,,,,,,,,,,,,,,,,,,,,,,,,,,,,960.682254999876,,959.8012287998572,959.8012287998572,959.8012287998572,959.8012287998572,old_sceneOut_26.png,336,2.0,0.8864887002855539,,060,01,2025-04-29_16h35.47.729,Surprise recog test,2023.1.3,59.92814601044299,
336,0,336,0,,,,,,,,,,,,,,,,,,,,,,,,,,,,,,,,,,962.4238094999455,963.4401588998735,961.7007685997523,961.7007685997523,961.7007685997523,961.7007685997523,new_sceneIn_41.png,337,2.0,0.7171229999512434,,060,01,2025-04-29_16h35.47.729,Surprise recog test,2023.1.3,59.92814601044299,
337,0,337,0,,,,,,,,,,,,,,,,,,,,,,,,,,,,,,,,,,964.5576920998283,965.573531600181,963.4401588998735,963.4401588998735,963.4401588998735,963.4401588998735,old_fruit_31.png,338,1.0,1.113692699931562,,060,01,2025-04-29_16h35.47.729,Surprise recog test,2023.1.3,59.92814601044299,
338,0,338,0,,,,,,,,,,,,,,,,,,,,,,,,,,,,,,,,,,966.4354618000798,967.4549759998918,965.573531600181,965.573531600181,965.573531600181,965.573531600181,old_stationery_24.png,339,2.0,0.8576159998774529,,060,01,2025-04-29_16h35.47.729,Surprise recog test,2023.1.3,59.92814601044299,
339,0,339,0,,,,,,,,,,,,,,,,,,,,,,,,,,,,,,,,,,969.3428389001638,970.3731879000552,967.4549759998918,967.4549759998918,967.4549759998918,967.4549759998918,new_sceneIn_13.png,340,2.0,1.889342200011015,,060,01,2025-04-29_16h35.47.729,Surprise recog test,2023.1.3,59.92814601044299,
340,0,340,0,,,,,,,,,,,,,,,,,,,,,,,,,,,,,,,,,,970.9496504999697,971.9638777999207,970.3731879000552,970.3731879000552,970.3731879000552,970.3731879000552,old_stationery_29.png,341,3.0,0.5778684997931123,,060,01,2025-04-29_16h35.47.729,Surprise recog test,2023.1.3,59.92814601044299,
341,0,341,0,,,,,,,,,,,,,,,,,,,,,,,,,,,,,,,,,,972.6237786998972,973.6369436001405,971.9638777999207,971.9638777999207,971.9638777999207,971.9638777999207,new_sceneIn_27.png,342,3.0,0.6553497998975217,,060,01,2025-04-29_16h35.47.729,Surprise recog test,2023.1.3,59.92814601044299,
342,0,342,0,,,,,,,,,,,,,,,,,,,,,,,,,,,,,,,,,,974.7889392999932,975.8160236999393,973.6369436001405,973.6369436001405,973.6369436001405,973.6369436001405,new_fruit_49.png,343,1.0,1.1518753999844193,,060,01,2025-04-29_16h35.47.729,Surprise recog test,2023.1.3,59.92814601044299,
343,0,343,0,,,,,,,,,,,,,,,,,,,,,,,,,,,,,,,,,,976.9021515999921,977.9305361001752,975.8160236999393,975.8160236999393,975.8160236999393,975.8160236999393,old_fruit_17.png,344,2.0,1.0883909999392927,,060,01,2025-04-29_16h35.47.729,Surprise recog test,2023.1.3,59.92814601044299,
344,0,344,0,,,,,,,,,,,,,,,,,,,,,,,,,,,,,,,,,,978.8117011999711,979.8396002999507,977.9305361001752,977.9305361001752,977.9305361001752,977.9305361001752,old_fruit_46.png,345,1.0,0.8828456001356244,,060,01,2025-04-29_16h35.47.729,Surprise recog test,2023.1.3,59.92814601044299,
345,0,345,0,,,,,,,,,,,,,,,,,,,,,,,,,,,,,,,,,,980.4090537000448,981.4371646000072,979.8396002999507,979.8396002999507,979.8396002999507,979.8396002999507,new_sceneIn_10.png,346,1.0,0.5736273000948131,,060,01,2025-04-29_16h35.47.729,Surprise recog test,2023.1.3,59.92814601044299,
346,0,346,0,,,,,,,,,,,,,,,,,,,,,,,,,,,,,,,,,,982.0464405999519,983.0721196997911,981.4371646000072,981.4371646000072,981.4371646000072,981.4371646000072,old_stationery_18.png,347,2.0,0.6009915000759065,,060,01,2025-04-29_16h35.47.729,Surprise recog test,2023.1.3,59.92814601044299,
347,0,347,0,,,,,,,,,,,,,,,,,,,,,,,,,,,,,,,,,,984.2544546998106,985.2745795999654,983.0721196997911,983.0721196997911,983.0721196997911,983.0721196997911,old_stationery_46.png,348,3.0,1.1846592999063432,,060,01,2025-04-29_16h35.47.729,Surprise recog test,2023.1.3,59.92814601044299,
348,0,348,0,,,,,,,,,,,,,,,,,,,,,,,,,,,,,,,,,,986.6279188999906,987.6437572999857,985.2745795999654,985.2745795999654,985.2745795999654,985.2745795999654,old_stationery_10.png,349,1.0,1.3477236996404827,,060,01,2025-04-29_16h35.47.729,Surprise recog test,2023.1.3,59.92814601044299,
349,0,349,0,,,,,,,,,,,,,,,,,,,,,,,,,,,,,,,,,,988.5732395998202,,987.6437572999857,987.6437572999857,987.6437572999857,987.6437572999857,new_fruit_15.png,350,1.0,0.9251011000014842,,060,01,2025-04-29_16h35.47.729,Surprise recog test,2023.1.3,59.92814601044299,
350,0,350,0,,,,,,,,,,,,,,,,,,,,,,,,,,,,,,,,,,990.5047873998992,991.5248754001223,989.5930327000096,989.5930327000096,989.5930327000096,989.5930327000096,new_fruit_7.png,351,1.0,0.9074944001622498,,060,01,2025-04-29_16h35.47.729,Surprise recog test,2023.1.3,59.92814601044299,
351,0,351,0,,,,,,,,,,,,,,,,,,,,,,,,,,,,,,,,,,992.3986228997819,993.4272692999803,991.5248754001223,991.5248754001223,991.5248754001223,991.5248754001223,new_sceneOut_14.png,352,3.0,0.8757681003771722,,060,01,2025-04-29_16h35.47.729,Surprise recog test,2023.1.3,59.92814601044299,
352,0,352,0,,,,,,,,,,,,,,,,,,,,,,,,,,,,,,,,,,994.6802495000884,995.7171633997932,993.4272692999803,993.4272692999803,993.4272692999803,993.4272692999803,old_stationery_39.png,353,4.0,1.2557872999459505,,060,01,2025-04-29_16h35.47.729,Surprise recog test,2023.1.3,59.92814601044299,
353,0,353,0,,,,,,,,,,,,,,,,,,,,,,,,,,,,,,,,,,996.2813101997599,997.3151071998291,995.7171633997932,995.7171633997932,995.7171633997932,995.7171633997932,new_sceneIn_42.png,354,4.0,0.5673583000898361,,060,01,2025-04-29_16h35.47.729,Surprise recog test,2023.1.3,59.92814601044299,
354,0,354,0,,,,,,,,,,,,,,,,,,,,,,,,,,,,,,,,,,998.0649429000914,,997.3151071998291,997.3151071998291,997.3151071998291,997.3151071998291,old_stationery_26.png,355,3.0,0.7501610997132957,,060,01,2025-04-29_16h35.47.729,Surprise recog test,2023.1.3,59.92814601044299,
