trial_loop.thisRepN,trial_loop.thisTrialN,trial_loop.thisN,trial_loop.thisIndex,VAS_slider.started,VAS_text.started,VAS_notstressed_text.started,VAS_stressed_text.started,continue_input.started,continue_text.started,label0.started,label10.started,label20.started,label30.started,label40.started,label50.started,label60.started,label70.started,label80.started,label90.started,label100.started,VAS_slider.response,VAS_slider.rt,VAS_slider.history,Answer_VAS,continue_input.keys,instruction_text.started,continue_text_2.started,continue_input_2.started,continue_input_2.keys,continue_input_2.rt,continue_input_2.duration,example_text.started,example_slider_2.started,example_image.started,example_slider_2.response,example_slider_2.rt,fixcross.started,fixcross.stopped,front_square.started,stim_images.started,trial_inst_images.started,slider_images.started,thisImg,trial_count,slider_images.response,slider_images.rt,outro.started,participant,condition,date,expName,psychopyVersion,frameRate,
,,,,314.17760049994104,314.17760049994104,314.17760049994104,314.17760049994104,314.17760049994104,314.17760049994104,314.17760049994104,314.17760049994104,314.17760049994104,314.17760049994104,314.17760049994104,314.17760049994104,314.17760049994104,314.17760049994104,314.17760049994104,314.17760049994104,314.17760049994104,2.8388888888888886,11.90349779999815,"[(2.8388888888888886, 11.90349779999815)]",2.8388888888888886,None,,,,,,,,,,,,,,,,,,,,,,,061,11,2025-03-25_17h01.01.457,Surprise recog test,2023.1.3,60.15160611403226,
,,,,,,,,,,,,,,,,,,,,,,,,,,326.1577759999782,326.1577759999782,326.1577759999782,space,26.311115899821743,None,,,,,,,,,,,,,,,,,061,11,2025-03-25_17h01.01.457,Surprise recog test,2023.1.3,60.15160611403226,
0,0,0,0,,,,,,,,,,,,,,,,,,,,,,,,,,,,,352.60529220011085,352.60529220011085,352.60529220011085,4.0,23.014325500000268,380.26052540005185,381.2790548999328,376.5767057000194,376.5767057000194,376.5767057000194,376.5767057000194,old_sceneOut_35.png,1,1.0,3.6895111999474466,,061,11,2025-03-25_17h01.01.457,Surprise recog test,2023.1.3,60.15160611403226,
1,0,1,0,,,,,,,,,,,,,,,,,,,,,,,,,,,,,,,,,,385.7837942999322,386.8041217001155,381.2790548999328,381.2790548999328,381.2790548999328,381.2790548999328,old_sceneOut_42.png,2,2.0,4.502389899920672,,061,11,2025-03-25_17h01.01.457,Surprise recog test,2023.1.3,60.15160611403226,
2,0,2,0,,,,,,,,,,,,,,,,,,,,,,,,,,,,,,,,,,390.6497180000879,,386.8041217001155,386.8041217001155,386.8041217001155,386.8041217001155,new_stationery_1.png,3,1.0,3.846048800041899,,061,11,2025-03-25_17h01.01.457,Surprise recog test,2023.1.3,60.15160611403226,
3,0,3,0,,,,,,,,,,,,,,,,,,,,,,,,,,,,,,,,,,393.71623590006493,394.72194670001045,391.66761990007944,391.66761990007944,391.66761990007944,391.66761990007944,new_stationery_37.png,4,2.0,2.0381022000219673,,061,11,2025-03-25_17h01.01.457,Surprise recog test,2023.1.3,60.15160611403226,
4,0,4,0,,,,,,,,,,,,,,,,,,,,,,,,,,,,,,,,,,398.20342839998193,399.2083423999138,394.72194670001045,394.72194670001045,394.72194670001045,394.72194670001045,old_sceneIn_40.png,5,2.0,3.4724942999891937,,061,11,2025-03-25_17h01.01.457,Surprise recog test,2023.1.3,60.15160611403226,
5,0,5,0,,,,,,,,,,,,,,,,,,,,,,,,,,,,,,,,,,401.9231557000894,402.92790580005385,399.2083423999138,399.2083423999138,399.2083423999138,399.2083423999138,old_fruit_4.png,6,1.0,2.7047723999712616,,061,11,2025-03-25_17h01.01.457,Surprise recog test,2023.1.3,60.15160611403226,
6,0,6,0,,,,,,,,,,,,,,,,,,,,,,,,,,,,,,,,,,405.40935180010274,406.4177000001073,402.92790580005385,402.92790580005385,402.92790580005385,402.92790580005385,new_sceneOut_25.png,7,3.0,2.4712910000234842,,061,11,2025-03-25_17h01.01.457,Surprise recog test,2023.1.3,60.15160611403226,
7,0,7,0,,,,,,,,,,,,,,,,,,,,,,,,,,,,,,,,,,408.0282109999098,409.03357969992794,406.4177000001073,406.4177000001073,406.4177000001073,406.4177000001073,new_sceneOut_50.png,8,3.0,1.603306100005284,,061,11,2025-03-25_17h01.01.457,Surprise recog test,2023.1.3,60.15160611403226,
8,0,8,0,,,,,,,,,,,,,,,,,,,,,,,,,,,,,,,,,,410.83046939992346,411.8353430000134,409.03357969992794,409.03357969992794,409.03357969992794,409.03357969992794,new_sceneOut_49.png,9,3.0,1.789143499918282,,061,11,2025-03-25_17h01.01.457,Surprise recog test,2023.1.3,60.15160611403226,
9,0,9,0,,,,,,,,,,,,,,,,,,,,,,,,,,,,,,,,,,414.21665810002014,415.2226156000979,411.8353430000134,411.8353430000134,411.8353430000134,411.8353430000134,new_stationery_10.png,10,1.0,2.3708494000602514,,061,11,2025-03-25_17h01.01.457,Surprise recog test,2023.1.3,60.15160611403226,
10,0,10,0,,,,,,,,,,,,,,,,,,,,,,,,,,,,,,,,,,417.0690500000492,418.0751308000181,415.2226156000979,415.2226156000979,415.2226156000979,415.2226156000979,old_stationery_35.png,11,2.0,1.8370671002194285,,061,11,2025-03-25_17h01.01.457,Surprise recog test,2023.1.3,60.15160611403226,
11,0,11,0,,,,,,,,,,,,,,,,,,,,,,,,,,,,,,,,,,420.2216397000011,421.22670010011643,418.0751308000181,418.0751308000181,418.0751308000181,418.0751308000181,new_fruit_30.png,12,1.0,2.1387376999482512,,061,11,2025-03-25_17h01.01.457,Surprise recog test,2023.1.3,60.15160611403226,
12,0,12,0,,,,,,,,,,,,,,,,,,,,,,,,,,,,,,,,,,425.926474200096,426.9332326001022,421.22670010011643,421.22670010011643,421.22670010011643,421.22670010011643,new_stationery_34.png,13,4.0,4.6896869000047445,,061,11,2025-03-25_17h01.01.457,Surprise recog test,2023.1.3,60.15160611403226,
13,0,13,0,,,,,,,,,,,,,,,,,,,,,,,,,,,,,,,,,,428.8289682001341,429.83339080004953,426.9332326001022,426.9332326001022,426.9332326001022,426.9332326001022,old_sceneIn_49.png,14,4.0,1.8866500000003725,,061,11,2025-03-25_17h01.01.457,Surprise recog test,2023.1.3,60.15160611403226,
14,0,14,0,,,,,,,,,,,,,,,,,,,,,,,,,,,,,,,,,,432.365113100037,433.3697460000403,429.83339080004953,429.83339080004953,429.83339080004953,429.83339080004953,new_stationery_33.png,15,3.0,2.521152399946004,,061,11,2025-03-25_17h01.01.457,Surprise recog test,2023.1.3,60.15160611403226,
15,0,15,0,,,,,,,,,,,,,,,,,,,,,,,,,,,,,,,,,,436.3518078001216,437.35607720003463,433.3697460000403,433.3697460000403,433.3697460000403,433.3697460000403,old_stationery_12.png,16,4.0,2.971596300136298,,061,11,2025-03-25_17h01.01.457,Surprise recog test,2023.1.3,60.15160611403226,
16,0,16,0,,,,,,,,,,,,,,,,,,,,,,,,,,,,,,,,,,440.0882512999233,441.0934903000016,437.35607720003463,437.35607720003463,437.35607720003463,437.35607720003463,old_stationery_43.png,17,2.0,2.7220737000461668,,061,11,2025-03-25_17h01.01.457,Surprise recog test,2023.1.3,60.15160611403226,
17,0,17,0,,,,,,,,,,,,,,,,,,,,,,,,,,,,,,,,,,443.174157399917,444.1792556999717,441.0934903000016,441.0934903000016,441.0934903000016,441.0934903000016,old_fruit_10.png,18,1.0,2.071072499966249,,061,11,2025-03-25_17h01.01.457,Surprise recog test,2023.1.3,60.15160611403226,
18,0,18,0,,,,,,,,,,,,,,,,,,,,,,,,,,,,,,,,,,447.1441258001141,448.14952580002137,444.1792556999717,444.1792556999717,444.1792556999717,444.1792556999717,old_sceneIn_38.png,19,5.0,2.9547787001356483,,061,11,2025-03-25_17h01.01.457,Surprise recog test,2023.1.3,60.15160611403226,
19,0,19,0,,,,,,,,,,,,,,,,,,,,,,,,,,,,,,,,,,450.6971311001107,451.71478929999284,448.14952580002137,448.14952580002137,448.14952580002137,448.14952580002137,new_sceneOut_30.png,20,3.0,2.5388363997917622,,061,11,2025-03-25_17h01.01.457,Surprise recog test,2023.1.3,60.15160611403226,
20,0,20,0,,,,,,,,,,,,,,,,,,,,,,,,,,,,,,,,,,453.63398459996097,454.64154509990476,451.71478929999284,451.71478929999284,451.71478929999284,451.71478929999284,new_sceneIn_14.png,21,4.0,1.9146964999381453,,061,11,2025-03-25_17h01.01.457,Surprise recog test,2023.1.3,60.15160611403226,
21,0,21,0,,,,,,,,,,,,,,,,,,,,,,,,,,,,,,,,,,457.59338660002686,458.6139146001078,454.64154509990476,454.64154509990476,454.64154509990476,454.64154509990476,new_stationery_40.png,22,4.0,2.9482757998630404,,061,11,2025-03-25_17h01.01.457,Surprise recog test,2023.1.3,60.15160611403226,
22,0,22,0,,,,,,,,,,,,,,,,,,,,,,,,,,,,,,,,,,461.99368260009214,,458.6139146001078,458.6139146001078,458.6139146001078,458.6139146001078,new_fruit_7.png,23,2.0,3.3793671000748873,,061,11,2025-03-25_17h01.01.457,Surprise recog test,2023.1.3,60.15160611403226,
23,0,23,0,,,,,,,,,,,,,,,,,,,,,,,,,,,,,,,,,,466.4160430999473,467.4355824999511,463.0270930000115,463.0270930000115,463.0270930000115,463.0270930000115,new_sceneOut_24.png,24,3.0,3.3912368998862803,,061,11,2025-03-25_17h01.01.457,Surprise recog test,2023.1.3,60.15160611403226,
24,0,24,0,,,,,,,,,,,,,,,,,,,,,,,,,,,,,,,,,,469.2337901000865,,467.4355824999511,467.4355824999511,467.4355824999511,467.4355824999511,old_fruit_26.png,25,1.0,1.792961899889633,,061,11,2025-03-25_17h01.01.457,Surprise recog test,2023.1.3,60.15160611403226,
25,0,25,0,,,,,,,,,,,,,,,,,,,,,,,,,,,,,,,,,,472.0877269001212,473.12075700005516,470.25384250003844,470.25384250003844,470.25384250003844,470.25384250003844,new_fruit_8.png,26,1.0,1.827619600109756,,061,11,2025-03-25_17h01.01.457,Surprise recog test,2023.1.3,60.15160611403226,
26,0,26,0,,,,,,,,,,,,,,,,,,,,,,,,,,,,,,,,,,476.09698110003956,477.12260930007324,473.12075700005516,473.12075700005516,473.12075700005516,473.12075700005516,old_stationery_27.png,27,4.0,2.9798467000946403,,061,11,2025-03-25_17h01.01.457,Surprise recog test,2023.1.3,60.15160611403226,
27,0,27,0,,,,,,,,,,,,,,,,,,,,,,,,,,,,,,,,,,478.8895016000606,,477.12260930007324,477.12260930007324,477.12260930007324,477.12260930007324,old_stationery_37.png,28,4.0,1.770756599958986,,061,11,2025-03-25_17h01.01.457,Surprise recog test,2023.1.3,60.15160611403226,
28,0,28,0,,,,,,,,,,,,,,,,,,,,,,,,,,,,,,,,,,482.6729180000257,483.6949287999887,479.9112191000022,479.9112191000022,479.9112191000022,479.9112191000022,old_stationery_29.png,29,2.0,2.75746909994632,,061,11,2025-03-25_17h01.01.457,Surprise recog test,2023.1.3,60.15160611403226,
29,0,29,0,,,,,,,,,,,,,,,,,,,,,,,,,,,,,,,,,,485.88203390012495,486.90140340011567,483.6949287999887,483.6949287999887,483.6949287999887,483.6949287999887,new_sceneIn_21.png,30,4.0,2.185774700017646,,061,11,2025-03-25_17h01.01.457,Surprise recog test,2023.1.3,60.15160611403226,
30,0,30,0,,,,,,,,,,,,,,,,,,,,,,,,,,,,,,,,,,488.3317187000066,,486.90140340011567,486.90140340011567,486.90140340011567,486.90140340011567,new_sceneOut_37.png,31,4.0,1.4232667000032961,,061,11,2025-03-25_17h01.01.457,Surprise recog test,2023.1.3,60.15160611403226,
31,0,31,0,,,,,,,,,,,,,,,,,,,,,,,,,,,,,,,,,,490.39030430000275,491.4168708999641,489.3597566001117,489.3597566001117,489.3597566001117,489.3597566001117,new_sceneOut_22.png,32,4.0,1.0258294001687318,,061,11,2025-03-25_17h01.01.457,Surprise recog test,2023.1.3,60.15160611403226,
32,0,32,0,,,,,,,,,,,,,,,,,,,,,,,,,,,,,,,,,,492.43371109990403,,491.4168708999641,491.4168708999641,491.4168708999641,491.4168708999641,old_sceneOut_44.png,33,4.0,1.0178226998541504,,061,11,2025-03-25_17h01.01.457,Surprise recog test,2023.1.3,60.15160611403226,
33,0,33,0,,,,,,,,,,,,,,,,,,,,,,,,,,,,,,,,,,494.51850500004366,495.53790739993565,493.46155030000955,493.46155030000955,493.46155030000955,493.46155030000955,old_sceneIn_35.png,34,4.0,1.056679000146687,,061,11,2025-03-25_17h01.01.457,Surprise recog test,2023.1.3,60.15160611403226,
34,0,34,0,,,,,,,,,,,,,,,,,,,,,,,,,,,,,,,,,,496.5848534000106,497.5941594000906,495.53790739993565,495.53790739993565,495.53790739993565,495.53790739993565,new_sceneOut_48.png,35,4.0,1.0484217999037355,,061,11,2025-03-25_17h01.01.457,Surprise recog test,2023.1.3,60.15160611403226,
35,0,35,0,,,,,,,,,,,,,,,,,,,,,,,,,,,,,,,,,,499.98680529999547,500.9969870999921,497.5941594000906,497.5941594000906,497.5941594000906,497.5941594000906,old_fruit_1.png,36,3.0,2.3886985999997705,,061,11,2025-03-25_17h01.01.457,Surprise recog test,2023.1.3,60.15160611403226,
36,0,36,0,,,,,,,,,,,,,,,,,,,,,,,,,,,,,,,,,,502.9063426000066,503.91729100001976,500.9969870999921,500.9969870999921,500.9969870999921,500.9969870999921,old_stationery_22.png,37,4.0,1.905379300005734,,061,11,2025-03-25_17h01.01.457,Surprise recog test,2023.1.3,60.15160611403226,
37,0,37,0,,,,,,,,,,,,,,,,,,,,,,,,,,,,,,,,,,504.8809287000913,505.90831430000253,503.91729100001976,503.91729100001976,503.91729100001976,503.91729100001976,new_sceneOut_4.png,38,4.0,0.9573800000362098,,061,11,2025-03-25_17h01.01.457,Surprise recog test,2023.1.3,60.15160611403226,
38,0,38,0,,,,,,,,,,,,,,,,,,,,,,,,,,,,,,,,,,509.5629006999079,510.583636400057,505.90831430000253,505.90831430000253,505.90831430000253,505.90831430000253,old_sceneIn_14.png,39,2.0,3.647928100079298,,061,11,2025-03-25_17h01.01.457,Surprise recog test,2023.1.3,60.15160611403226,
39,0,39,0,,,,,,,,,,,,,,,,,,,,,,,,,,,,,,,,,,513.0318253999576,514.0536328000017,510.583636400057,510.583636400057,510.583636400057,510.583636400057,old_stationery_34.png,40,4.0,2.4495986998081207,,061,11,2025-03-25_17h01.01.457,Surprise recog test,2023.1.3,60.15160611403226,
40,0,40,0,,,,,,,,,,,,,,,,,,,,,,,,,,,,,,,,,,516.9588591000065,517.9896575999446,514.0536328000017,514.0536328000017,514.0536328000017,514.0536328000017,old_stationery_13.png,41,3.0,2.9068171000108123,,061,11,2025-03-25_17h01.01.457,Surprise recog test,2023.1.3,60.15160611403226,
41,0,41,0,,,,,,,,,,,,,,,,,,,,,,,,,,,,,,,,,,520.0867796000093,521.1033630999736,517.9896575999446,517.9896575999446,517.9896575999446,517.9896575999446,old_sceneIn_22.png,42,5.0,2.0966298000421375,,061,11,2025-03-25_17h01.01.457,Surprise recog test,2023.1.3,60.15160611403226,
42,0,42,0,,,,,,,,,,,,,,,,,,,,,,,,,,,,,,,,,,523.0639669001102,524.094583600061,521.1033630999736,521.1033630999736,521.1033630999736,521.1033630999736,old_sceneOut_27.png,43,4.0,1.9585657001007348,,061,11,2025-03-25_17h01.01.457,Surprise recog test,2023.1.3,60.15160611403226,
43,0,43,0,,,,,,,,,,,,,,,,,,,,,,,,,,,,,,,,,,525.7023438001052,526.729031200055,524.094583600061,524.094583600061,524.094583600061,524.094583600061,new_sceneIn_24.png,44,4.0,1.6103053998667747,,061,11,2025-03-25_17h01.01.457,Surprise recog test,2023.1.3,60.15160611403226,
44,0,44,0,,,,,,,,,,,,,,,,,,,,,,,,,,,,,,,,,,529.614400099963,530.6325201001018,526.729031200055,526.729031200055,526.729031200055,526.729031200055,old_stationery_19.png,45,2.0,2.8858437999151647,,061,11,2025-03-25_17h01.01.457,Surprise recog test,2023.1.3,60.15160611403226,
45,0,45,0,,,,,,,,,,,,,,,,,,,,,,,,,,,,,,,,,,533.2461220999248,534.2587989000604,530.6325201001018,530.6325201001018,530.6325201001018,530.6325201001018,new_stationery_45.png,46,3.0,2.615498200058937,,061,11,2025-03-25_17h01.01.457,Surprise recog test,2023.1.3,60.15160611403226,
46,0,46,0,,,,,,,,,,,,,,,,,,,,,,,,,,,,,,,,,,536.5608922000974,537.5828178999946,534.2587989000604,534.2587989000604,534.2587989000604,534.2587989000604,new_stationery_7.png,47,4.0,2.2990723000839353,,061,11,2025-03-25_17h01.01.457,Surprise recog test,2023.1.3,60.15160611403226,
47,0,47,0,,,,,,,,,,,,,,,,,,,,,,,,,,,,,,,,,,539.304537500022,540.323831200134,537.5828178999946,537.5828178999946,537.5828178999946,537.5828178999946,new_sceneOut_6.png,48,4.0,1.7218758000526577,,061,11,2025-03-25_17h01.01.457,Surprise recog test,2023.1.3,60.15160611403226,
48,0,48,0,,,,,,,,,,,,,,,,,,,,,,,,,,,,,,,,,,542.1064703001175,543.1130633000284,540.323831200134,540.323831200134,540.323831200134,540.323831200134,old_fruit_45.png,49,1.0,1.779300400055945,,061,11,2025-03-25_17h01.01.457,Surprise recog test,2023.1.3,60.15160611403226,
49,0,49,0,,,,,,,,,,,,,,,,,,,,,,,,,,,,,,,,,,544.029128999915,,543.1130633000284,543.1130633000284,543.1130633000284,543.1130633000284,new_fruit_48.png,50,1.0,0.9109399998560548,,061,11,2025-03-25_17h01.01.457,Surprise recog test,2023.1.3,60.15160611403226,
50,0,50,0,,,,,,,,,,,,,,,,,,,,,,,,,,,,,,,,,,546.0030517999548,547.0144599999767,545.060453500133,545.060453500133,545.060453500133,545.060453500133,new_fruit_39.png,51,1.0,0.9442223000805825,,061,11,2025-03-25_17h01.01.457,Surprise recog test,2023.1.3,60.15160611403226,
51,0,51,0,,,,,,,,,,,,,,,,,,,,,,,,,,,,,,,,,,550.4961741999723,551.5212161999661,547.0144599999767,547.0144599999767,547.0144599999767,547.0144599999767,old_stationery_2.png,52,4.0,3.4775368000846356,,061,11,2025-03-25_17h01.01.457,Surprise recog test,2023.1.3,60.15160611403226,
52,0,52,0,,,,,,,,,,,,,,,,,,,,,,,,,,,,,,,,,,553.2733589001,554.3026916000526,551.5212161999661,551.5212161999661,551.5212161999661,551.5212161999661,new_sceneIn_32.png,53,4.0,1.7564699999056756,,061,11,2025-03-25_17h01.01.457,Surprise recog test,2023.1.3,60.15160611403226,
53,0,53,0,,,,,,,,,,,,,,,,,,,,,,,,,,,,,,,,,,555.5566442001145,556.5898301000707,554.3026916000526,554.3026916000526,554.3026916000526,554.3026916000526,old_sceneOut_37.png,54,4.0,1.2557180000003427,,061,11,2025-03-25_17h01.01.457,Surprise recog test,2023.1.3,60.15160611403226,
54,0,54,0,,,,,,,,,,,,,,,,,,,,,,,,,,,,,,,,,,557.8548125999514,,556.5898301000707,556.5898301000707,556.5898301000707,556.5898301000707,new_sceneIn_3.png,55,4.0,1.2674239999614656,,061,11,2025-03-25_17h01.01.457,Surprise recog test,2023.1.3,60.15160611403226,
55,0,55,0,,,,,,,,,,,,,,,,,,,,,,,,,,,,,,,,,,559.8088243999518,,558.8774059000425,558.8774059000425,558.8774059000425,558.8774059000425,new_stationery_6.png,56,4.0,0.9267484999727458,,061,11,2025-03-25_17h01.01.457,Surprise recog test,2023.1.3,60.15160611403226,
56,0,56,0,,,,,,,,,,,,,,,,,,,,,,,,,,,,,,,,,,561.8243758000899,562.8444473000709,560.8291130000725,560.8291130000725,560.8291130000725,560.8291130000725,new_sceneIn_33.png,57,4.0,0.9912505000829697,,061,11,2025-03-25_17h01.01.457,Surprise recog test,2023.1.3,60.15160611403226,
57,0,57,0,,,,,,,,,,,,,,,,,,,,,,,,,,,,,,,,,,564.5122833000496,,562.8444473000709,562.8444473000709,562.8444473000709,562.8444473000709,new_sceneIn_37.png,58,4.0,1.6681967000477016,,061,11,2025-03-25_17h01.01.457,Surprise recog test,2023.1.3,60.15160611403226,
58,0,58,0,,,,,,,,,,,,,,,,,,,,,,,,,,,,,,,,,,567.7553330000956,568.7691583000124,565.5452932999469,565.5452932999469,565.5452932999469,565.5452932999469,new_sceneIn_27.png,59,3.0,2.2121915000025183,,061,11,2025-03-25_17h01.01.457,Surprise recog test,2023.1.3,60.15160611403226,
59,0,59,0,,,,,,,,,,,,,,,,,,,,,,,,,,,,,,,,,,570.5309618001338,571.5506931000855,568.7691583000124,568.7691583000124,568.7691583000124,568.7691583000124,old_sceneOut_29.png,60,4.0,1.7572177001275122,,061,11,2025-03-25_17h01.01.457,Surprise recog test,2023.1.3,60.15160611403226,
60,0,60,0,,,,,,,,,,,,,,,,,,,,,,,,,,,,,,,,,,573.3120256999973,574.3249415999744,571.5506931000855,571.5506931000855,571.5506931000855,571.5506931000855,new_sceneIn_40.png,61,5.0,1.7636156999506056,,061,11,2025-03-25_17h01.01.457,Surprise recog test,2023.1.3,60.15160611403226,
61,0,61,0,,,,,,,,,,,,,,,,,,,,,,,,,,,,,,,,,,576.444279300049,577.459231399931,574.3249415999744,574.3249415999744,574.3249415999744,574.3249415999744,old_stationery_28.png,62,2.0,2.1157984000165015,,061,11,2025-03-25_17h01.01.457,Surprise recog test,2023.1.3,60.15160611403226,
62,0,62,0,,,,,,,,,,,,,,,,,,,,,,,,,,,,,,,,,,578.5779407999944,579.604946800042,577.459231399931,577.459231399931,577.459231399931,577.459231399931,old_stationery_8.png,63,2.0,1.1123676002025604,,061,11,2025-03-25_17h01.01.457,Surprise recog test,2023.1.3,60.15160611403226,
63,0,63,0,,,,,,,,,,,,,,,,,,,,,,,,,,,,,,,,,,581.2301878000144,582.2550478000194,579.604946800042,579.604946800042,579.604946800042,579.604946800042,old_sceneIn_24.png,64,4.0,1.6260371000971645,,061,11,2025-03-25_17h01.01.457,Surprise recog test,2023.1.3,60.15160611403226,
64,0,64,0,,,,,,,,,,,,,,,,,,,,,,,,,,,,,,,,,,585.8627673999872,,582.2550478000194,582.2550478000194,582.2550478000194,582.2550478000194,new_stationery_47.png,65,4.0,3.606247599935159,,061,11,2025-03-25_17h01.01.457,Surprise recog test,2023.1.3,60.15160611403226,
65,0,65,0,,,,,,,,,,,,,,,,,,,,,,,,,,,,,,,,,,588.67114640004,589.7001531000715,586.887225399958,586.887225399958,586.887225399958,586.887225399958,new_sceneIn_12.png,66,4.0,1.7816626999992877,,061,11,2025-03-25_17h01.01.457,Surprise recog test,2023.1.3,60.15160611403226,
66,0,66,0,,,,,,,,,,,,,,,,,,,,,,,,,,,,,,,,,,591.6014219999779,,589.7001531000715,589.7001531000715,589.7001531000715,589.7001531000715,new_sceneOut_18.png,67,5.0,1.9041880001313984,,061,11,2025-03-25_17h01.01.457,Surprise recog test,2023.1.3,60.15160611403226,
67,0,67,0,,,,,,,,,,,,,,,,,,,,,,,,,,,,,,,,,,594.9172179000452,595.9261801000684,592.6348190999124,592.6348190999124,592.6348190999124,592.6348190999124,new_sceneIn_36.png,68,5.0,2.279346999945119,,061,11,2025-03-25_17h01.01.457,Surprise recog test,2023.1.3,60.15160611403226,
68,0,68,0,,,,,,,,,,,,,,,,,,,,,,,,,,,,,,,,,,600.3273648000322,601.3544463999569,595.9261801000684,595.9261801000684,595.9261801000684,595.9261801000684,old_sceneOut_21.png,69,4.0,4.396591699915007,,061,11,2025-03-25_17h01.01.457,Surprise recog test,2023.1.3,60.15160611403226,
69,0,69,0,,,,,,,,,,,,,,,,,,,,,,,,,,,,,,,,,,603.4270041000564,,601.3544463999569,601.3544463999569,601.3544463999569,601.3544463999569,old_fruit_29.png,70,1.0,2.0723904001060873,,061,11,2025-03-25_17h01.01.457,Surprise recog test,2023.1.3,60.15160611403226,
70,0,70,0,,,,,,,,,,,,,,,,,,,,,,,,,,,,,,,,,,606.6188306000549,607.6448945999146,604.4487723999191,604.4487723999191,604.4487723999191,604.4487723999191,old_sceneIn_46.png,71,4.0,2.164289199979976,,061,11,2025-03-25_17h01.01.457,Surprise recog test,2023.1.3,60.15160611403226,
71,0,71,0,,,,,,,,,,,,,,,,,,,,,,,,,,,,,,,,,,609.8298118000384,610.834558499977,607.6448945999146,607.6448945999146,607.6448945999146,607.6448945999146,new_sceneIn_4.png,72,5.0,2.186517799971625,,061,11,2025-03-25_17h01.01.457,Surprise recog test,2023.1.3,60.15160611403226,
72,0,72,0,,,,,,,,,,,,,,,,,,,,,,,,,,,,,,,,,,613.8910586999264,614.9182909999508,610.834558499977,610.834558499977,610.834558499977,610.834558499977,old_sceneIn_31.png,73,4.0,3.053273399826139,,061,11,2025-03-25_17h01.01.457,Surprise recog test,2023.1.3,60.15160611403226,
73,0,73,0,,,,,,,,,,,,,,,,,,,,,,,,,,,,,,,,,,616.3016709000804,617.3224669999909,614.9182909999508,614.9182909999508,614.9182909999508,614.9182909999508,old_sceneOut_26.png,74,4.0,1.3818282999563962,,061,11,2025-03-25_17h01.01.457,Surprise recog test,2023.1.3,60.15160611403226,
74,0,74,0,,,,,,,,,,,,,,,,,,,,,,,,,,,,,,,,,,619.2116300000343,620.2412656999659,617.3224669999909,617.3224669999909,617.3224669999909,617.3224669999909,old_sceneIn_28.png,75,5.0,1.8916026998776942,,061,11,2025-03-25_17h01.01.457,Surprise recog test,2023.1.3,60.15160611403226,
75,0,75,0,,,,,,,,,,,,,,,,,,,,,,,,,,,,,,,,,,621.8885906001087,622.9096373999491,620.2412656999659,620.2412656999659,620.2412656999659,620.2412656999659,old_sceneOut_15.png,76,4.0,1.6471692000050098,,061,11,2025-03-25_17h01.01.457,Surprise recog test,2023.1.3,60.15160611403226,
76,0,76,0,,,,,,,,,,,,,,,,,,,,,,,,,,,,,,,,,,624.4670689001214,625.4957799001131,622.9096373999491,622.9096373999491,622.9096373999491,622.9096373999491,new_stationery_26.png,77,4.0,1.5572263000067323,,061,11,2025-03-25_17h01.01.457,Surprise recog test,2023.1.3,60.15160611403226,
77,0,77,0,,,,,,,,,,,,,,,,,,,,,,,,,,,,,,,,,,629.0275560000446,630.0398838000838,625.4957799001131,625.4957799001131,625.4957799001131,625.4957799001131,old_stationery_49.png,78,4.0,3.5315364999696612,,061,11,2025-03-25_17h01.01.457,Surprise recog test,2023.1.3,60.15160611403226,
78,0,78,0,,,,,,,,,,,,,,,,,,,,,,,,,,,,,,,,,,631.5142840000335,632.5202357000671,630.0398838000838,630.0398838000838,630.0398838000838,630.0398838000838,old_fruit_42.png,79,1.0,1.4693006000015885,,061,11,2025-03-25_17h01.01.457,Surprise recog test,2023.1.3,60.15160611403226,
79,0,79,0,,,,,,,,,,,,,,,,,,,,,,,,,,,,,,,,,,636.4401005001273,637.4729846001137,632.5202357000671,632.5202357000671,632.5202357000671,632.5202357000671,old_stationery_18.png,80,4.0,3.9169199999887496,,061,11,2025-03-25_17h01.01.457,Surprise recog test,2023.1.3,60.15160611403226,
80,0,80,0,,,,,,,,,,,,,,,,,,,,,,,,,,,,,,,,,,639.7744015001226,,637.4729846001137,637.4729846001137,637.4729846001137,637.4729846001137,old_stationery_7.png,81,5.0,2.3034966001287103,,061,11,2025-03-25_17h01.01.457,Surprise recog test,2023.1.3,60.15160611403226,
81,0,81,0,,,,,,,,,,,,,,,,,,,,,,,,,,,,,,,,,,641.8244789999444,642.8458040000405,640.8053959999233,640.8053959999233,640.8053959999233,640.8053959999233,old_sceneIn_23.png,82,5.0,1.021920499857515,,061,11,2025-03-25_17h01.01.457,Surprise recog test,2023.1.3,60.15160611403226,
82,0,82,0,,,,,,,,,,,,,,,,,,,,,,,,,,,,,,,,,,643.7994862999767,644.8219335000031,642.8458040000405,642.8458040000405,642.8458040000405,642.8458040000405,new_stationery_8.png,83,5.0,0.9563408000394702,,061,11,2025-03-25_17h01.01.457,Surprise recog test,2023.1.3,60.15160611403226,
83,0,83,0,,,,,,,,,,,,,,,,,,,,,,,,,,,,,,,,,,647.5631917000283,,644.8219335000031,644.8219335000031,644.8219335000031,644.8219335000031,new_sceneOut_28.png,84,4.0,2.7409642999991775,,061,11,2025-03-25_17h01.01.457,Surprise recog test,2023.1.3,60.15160611403226,
84,0,84,0,,,,,,,,,,,,,,,,,,,,,,,,,,,,,,,,,,649.8114376000594,650.8218924000394,648.5924323999789,648.5924323999789,648.5924323999789,648.5924323999789,old_sceneOut_18.png,85,4.0,1.2202393999323249,,061,11,2025-03-25_17h01.01.457,Surprise recog test,2023.1.3,60.15160611403226,
85,0,85,0,,,,,,,,,,,,,,,,,,,,,,,,,,,,,,,,,,653.1085952001158,654.1377117999364,650.8218924000394,650.8218924000394,650.8218924000394,650.8218924000394,old_sceneIn_30.png,86,5.0,2.281633700011298,,061,11,2025-03-25_17h01.01.457,Surprise recog test,2023.1.3,60.15160611403226,
86,0,86,0,,,,,,,,,,,,,,,,,,,,,,,,,,,,,,,,,,656.5102202999406,657.5228226000909,654.1377117999364,654.1377117999364,654.1377117999364,654.1377117999364,old_fruit_25.png,87,1.0,2.3724410999566317,,061,11,2025-03-25_17h01.01.457,Surprise recog test,2023.1.3,60.15160611403226,
87,0,87,0,,,,,,,,,,,,,,,,,,,,,,,,,,,,,,,,,,659.8120673999656,660.8304314000998,657.5228226000909,657.5228226000909,657.5228226000909,657.5228226000909,new_sceneOut_44.png,88,5.0,2.2844694999512285,,061,11,2025-03-25_17h01.01.457,Surprise recog test,2023.1.3,60.15160611403226,
88,0,88,0,,,,,,,,,,,,,,,,,,,,,,,,,,,,,,,,,,661.9670714999083,662.991820700001,660.8304314000998,660.8304314000998,660.8304314000998,660.8304314000998,new_sceneIn_31.png,89,5.0,1.1316682999022305,,061,11,2025-03-25_17h01.01.457,Surprise recog test,2023.1.3,60.15160611403226,
89,0,89,0,,,,,,,,,,,,,,,,,,,,,,,,,,,,,,,,,,664.2226531999186,665.2454236000776,662.991820700001,662.991820700001,662.991820700001,662.991820700001,new_sceneOut_27.png,90,5.0,1.230298100039363,,061,11,2025-03-25_17h01.01.457,Surprise recog test,2023.1.3,60.15160611403226,
90,0,90,0,,,,,,,,,,,,,,,,,,,,,,,,,,,,,,,,,,668.4484661999159,,665.2454236000776,665.2454236000776,665.2454236000776,665.2454236000776,new_sceneOut_46.png,91,4.0,3.202717899810523,,061,11,2025-03-25_17h01.01.457,Surprise recog test,2023.1.3,60.15160611403226,
91,0,91,0,,,,,,,,,,,,,,,,,,,,,,,,,,,,,,,,,,671.9066650001332,672.9344971000683,669.4822982000187,669.4822982000187,669.4822982000187,669.4822982000187,old_sceneIn_42.png,92,5.0,2.4267432000488043,,061,11,2025-03-25_17h01.01.457,Surprise recog test,2023.1.3,60.15160611403226,
92,0,92,0,,,,,,,,,,,,,,,,,,,,,,,,,,,,,,,,,,675.4419446000829,676.4758446000051,672.9344971000683,672.9344971000683,672.9344971000683,672.9344971000683,new_sceneOut_32.png,93,4.0,2.509029099950567,,061,11,2025-03-25_17h01.01.457,Surprise recog test,2023.1.3,60.15160611403226,
93,0,93,0,,,,,,,,,,,,,,,,,,,,,,,,,,,,,,,,,,678.3366082001012,679.3625399000011,676.4758446000051,676.4758446000051,676.4758446000051,676.4758446000051,new_stationery_48.png,94,4.0,1.8602560998406261,,061,11,2025-03-25_17h01.01.457,Surprise recog test,2023.1.3,60.15160611403226,
94,0,94,0,,,,,,,,,,,,,,,,,,,,,,,,,,,,,,,,,,682.2009684001096,683.2244470999576,679.3625399000011,679.3625399000011,679.3625399000011,679.3625399000011,old_fruit_21.png,95,2.0,2.841068100184202,,061,11,2025-03-25_17h01.01.457,Surprise recog test,2023.1.3,60.15160611403226,
95,0,95,0,,,,,,,,,,,,,,,,,,,,,,,,,,,,,,,,,,685.5459481999278,,683.2244470999576,683.2244470999576,683.2244470999576,683.2244470999576,new_stationery_46.png,96,4.0,2.3228976000100374,,061,11,2025-03-25_17h01.01.457,Surprise recog test,2023.1.3,60.15160611403226,
96,0,96,0,,,,,,,,,,,,,,,,,,,,,,,,,,,,,,,,,,688.520132600097,689.5333491000347,686.5782876999583,686.5782876999583,686.5782876999583,686.5782876999583,new_stationery_42.png,97,5.0,1.9416716999839991,,061,11,2025-03-25_17h01.01.457,Surprise recog test,2023.1.3,60.15160611403226,
97,0,97,0,,,,,,,,,,,,,,,,,,,,,,,,,,,,,,,,,,691.3570691999048,692.3732740001287,689.5333491000347,689.5333491000347,689.5333491000347,689.5333491000347,old_sceneOut_17.png,98,5.0,1.8194432000163943,,061,11,2025-03-25_17h01.01.457,Surprise recog test,2023.1.3,60.15160611403226,
98,0,98,0,,,,,,,,,,,,,,,,,,,,,,,,,,,,,,,,,,693.8832573001273,694.8924324000254,692.3732740001287,692.3732740001287,692.3732740001287,692.3732740001287,new_sceneIn_45.png,99,5.0,1.5049006999470294,,061,11,2025-03-25_17h01.01.457,Surprise recog test,2023.1.3,60.15160611403226,
99,0,99,0,,,,,,,,,,,,,,,,,,,,,,,,,,,,,,,,,,696.9603752999101,697.9846187999938,694.8924324000254,694.8924324000254,694.8924324000254,694.8924324000254,new_fruit_25.png,100,2.0,2.060534799937159,,061,11,2025-03-25_17h01.01.457,Surprise recog test,2023.1.3,60.15160611403226,
100,0,100,0,,,,,,,,,,,,,,,,,,,,,,,,,,,,,,,,,,700.7184753001202,701.7419140001293,697.9846187999938,697.9846187999938,697.9846187999938,697.9846187999938,old_stationery_9.png,101,3.0,2.731094599934295,,061,11,2025-03-25_17h01.01.457,Surprise recog test,2023.1.3,60.15160611403226,
101,0,101,0,,,,,,,,,,,,,,,,,,,,,,,,,,,,,,,,,,703.9446032000706,,701.7419140001293,701.7419140001293,701.7419140001293,701.7419140001293,new_fruit_40.png,102,3.0,2.20478229993023,,061,11,2025-03-25_17h01.01.457,Surprise recog test,2023.1.3,60.15160611403226,
102,0,102,0,,,,,,,,,,,,,,,,,,,,,,,,,,,,,,,,,,706.6378653000575,707.6599373000208,704.9786374999676,704.9786374999676,704.9786374999676,704.9786374999676,new_sceneIn_13.png,103,4.0,1.6603139999788254,,061,11,2025-03-25_17h01.01.457,Surprise recog test,2023.1.3,60.15160611403226,
103,0,103,0,,,,,,,,,,,,,,,,,,,,,,,,,,,,,,,,,,709.6628716001287,710.6847288999707,707.6599373000208,707.6599373000208,707.6599373000208,707.6599373000208,old_sceneIn_26.png,104,5.0,2.004348299931735,,061,11,2025-03-25_17h01.01.457,Surprise recog test,2023.1.3,60.15160611403226,
104,0,104,0,,,,,,,,,,,,,,,,,,,,,,,,,,,,,,,,,,712.8896530999336,713.9059834999498,710.6847288999707,710.6847288999707,710.6847288999707,710.6847288999707,new_sceneIn_17.png,105,5.0,2.208660800009966,,061,11,2025-03-25_17h01.01.457,Surprise recog test,2023.1.3,60.15160611403226,
105,0,105,0,,,,,,,,,,,,,,,,,,,,,,,,,,,,,,,,,,715.5628223000094,716.5918586000334,713.9059834999498,713.9059834999498,713.9059834999498,713.9059834999498,new_sceneOut_42.png,106,4.0,1.652585200034082,,061,11,2025-03-25_17h01.01.457,Surprise recog test,2023.1.3,60.15160611403226,
106,0,106,0,,,,,,,,,,,,,,,,,,,,,,,,,,,,,,,,,,719.8283879999071,720.8461708000395,716.5918586000334,716.5918586000334,716.5918586000334,716.5918586000334,old_fruit_38.png,107,1.0,3.2388321000616997,,061,11,2025-03-25_17h01.01.457,Surprise recog test,2023.1.3,60.15160611403226,
107,0,107,0,,,,,,,,,,,,,,,,,,,,,,,,,,,,,,,,,,722.9612887001131,,720.8461708000395,720.8461708000395,720.8461708000395,720.8461708000395,new_sceneIn_38.png,108,4.0,2.108954699942842,,061,11,2025-03-25_17h01.01.457,Surprise recog test,2023.1.3,60.15160611403226,
108,0,108,0,,,,,,,,,,,,,,,,,,,,,,,,,,,,,,,,,,724.9313616999425,725.950333799934,723.9819249000866,723.9819249000866,723.9819249000866,723.9819249000866,new_sceneOut_31.png,109,4.0,0.9454369000159204,,061,11,2025-03-25_17h01.01.457,Surprise recog test,2023.1.3,60.15160611403226,
109,0,109,0,,,,,,,,,,,,,,,,,,,,,,,,,,,,,,,,,,727.6469876000192,,725.950333799934,725.950333799934,725.950333799934,725.950333799934,old_fruit_18.png,110,1.0,1.6894606000278145,,061,11,2025-03-25_17h01.01.457,Surprise recog test,2023.1.3,60.15160611403226,
110,0,110,0,,,,,,,,,,,,,,,,,,,,,,,,,,,,,,,,,,732.5152161000296,733.5370060000569,728.6833931000438,728.6833931000438,728.6833931000438,728.6833931000438,new_sceneOut_2.png,111,3.0,3.8350568001624197,,061,11,2025-03-25_17h01.01.457,Surprise recog test,2023.1.3,60.15160611403226,
111,0,111,0,,,,,,,,,,,,,,,,,,,,,,,,,,,,,,,,,,735.6254720001016,736.6430637999438,733.5370060000569,733.5370060000569,733.5370060000569,733.5370060000569,new_stationery_35.png,112,1.0,2.0907769000623375,,061,11,2025-03-25_17h01.01.457,Surprise recog test,2023.1.3,60.15160611403226,
112,0,112,0,,,,,,,,,,,,,,,,,,,,,,,,,,,,,,,,,,738.7033442000393,739.7088482999243,736.6430637999438,736.6430637999438,736.6430637999438,736.6430637999438,new_fruit_32.png,113,2.0,2.050569500075653,,061,11,2025-03-25_17h01.01.457,Surprise recog test,2023.1.3,60.15160611403226,
113,0,113,0,,,,,,,,,,,,,,,,,,,,,,,,,,,,,,,,,,742.1114535001107,743.1412514001131,739.7088482999243,739.7088482999243,739.7088482999243,739.7088482999243,new_fruit_24.png,114,3.0,2.398909700103104,,061,11,2025-03-25_17h01.01.457,Surprise recog test,2023.1.3,60.15160611403226,
114,0,114,0,,,,,,,,,,,,,,,,,,,,,,,,,,,,,,,,,,744.6645462999586,745.6968002000358,743.1412514001131,743.1412514001131,743.1412514001131,743.1412514001131,new_fruit_2.png,115,3.0,1.5266754000913352,,061,11,2025-03-25_17h01.01.457,Surprise recog test,2023.1.3,60.15160611403226,
115,0,115,0,,,,,,,,,,,,,,,,,,,,,,,,,,,,,,,,,,748.2204738999717,749.2502508999314,745.6968002000358,745.6968002000358,745.6968002000358,745.6968002000358,old_sceneIn_12.png,116,5.0,2.5231722998432815,,061,11,2025-03-25_17h01.01.457,Surprise recog test,2023.1.3,60.15160611403226,
116,0,116,0,,,,,,,,,,,,,,,,,,,,,,,,,,,,,,,,,,752.9039441999048,753.9248734000139,749.2502508999314,749.2502508999314,749.2502508999314,749.2502508999314,new_fruit_35.png,117,3.0,3.6552465001586825,,061,11,2025-03-25_17h01.01.457,Surprise recog test,2023.1.3,60.15160611403226,
117,0,117,0,,,,,,,,,,,,,,,,,,,,,,,,,,,,,,,,,,756.2358862999827,757.2524985999335,753.9248734000139,753.9248734000139,753.9248734000139,753.9248734000139,new_sceneOut_41.png,118,3.0,2.3070259999949485,,061,11,2025-03-25_17h01.01.457,Surprise recog test,2023.1.3,60.15160611403226,
118,0,118,0,,,,,,,,,,,,,,,,,,,,,,,,,,,,,,,,,,758.7600746001117,759.7775147999637,757.2524985999335,757.2524985999335,757.2524985999335,757.2524985999335,new_sceneOut_33.png,119,4.0,1.5101815001107752,,061,11,2025-03-25_17h01.01.457,Surprise recog test,2023.1.3,60.15160611403226,
119,0,119,0,,,,,,,,,,,,,,,,,,,,,,,,,,,,,,,,,,761.353882699972,762.3747827000916,759.7775147999637,759.7775147999637,759.7775147999637,759.7775147999637,old_sceneIn_2.png,120,5.0,1.572172800078988,,061,11,2025-03-25_17h01.01.457,Surprise recog test,2023.1.3,60.15160611403226,
120,0,120,0,,,,,,,,,,,,,,,,,,,,,,,,,,,,,,,,,,764.3047336000018,765.3320090000052,762.3747827000916,762.3747827000916,762.3747827000916,762.3747827000916,new_fruit_50.png,121,1.0,1.9302647998556495,,061,11,2025-03-25_17h01.01.457,Surprise recog test,2023.1.3,60.15160611403226,
121,0,121,0,,,,,,,,,,,,,,,,,,,,,,,,,,,,,,,,,,767.2969190001022,,765.3320090000052,765.3320090000052,765.3320090000052,765.3320090000052,old_fruit_46.png,122,2.0,1.9668988999910653,,061,11,2025-03-25_17h01.01.457,Surprise recog test,2023.1.3,60.15160611403226,
122,0,122,0,,,,,,,,,,,,,,,,,,,,,,,,,,,,,,,,,,771.4224610000383,772.4521512999199,768.3299098000862,768.3299098000862,768.3299098000862,768.3299098000862,new_stationery_32.png,123,4.0,3.0939082999248058,,061,11,2025-03-25_17h01.01.457,Surprise recog test,2023.1.3,60.15160611403226,
123,0,123,0,,,,,,,,,,,,,,,,,,,,,,,,,,,,,,,,,,774.746967199957,775.7562333000824,772.4521512999199,772.4521512999199,772.4521512999199,772.4521512999199,new_fruit_13.png,124,2.0,2.29699830012396,,061,11,2025-03-25_17h01.01.457,Surprise recog test,2023.1.3,60.15160611403226,
124,0,124,0,,,,,,,,,,,,,,,,,,,,,,,,,,,,,,,,,,778.2643599999137,779.2777192001231,775.7562333000824,775.7562333000824,775.7562333000824,775.7562333000824,new_fruit_41.png,125,2.0,2.505656700115651,,061,11,2025-03-25_17h01.01.457,Surprise recog test,2023.1.3,60.15160611403226,
125,0,125,0,,,,,,,,,,,,,,,,,,,,,,,,,,,,,,,,,,781.0353675999213,782.0471296999604,779.2777192001231,779.2777192001231,779.2777192001231,779.2777192001231,old_fruit_14.png,126,1.0,1.752993700094521,,061,11,2025-03-25_17h01.01.457,Surprise recog test,2023.1.3,60.15160611403226,
126,0,126,0,,,,,,,,,,,,,,,,,,,,,,,,,,,,,,,,,,784.3501730000135,785.3792421999387,782.0471296999604,782.0471296999604,782.0471296999604,782.0471296999604,new_sceneIn_34.png,127,5.0,2.298553999979049,,061,11,2025-03-25_17h01.01.457,Surprise recog test,2023.1.3,60.15160611403226,
127,0,127,0,,,,,,,,,,,,,,,,,,,,,,,,,,,,,,,,,,787.551095200004,788.5790703000966,785.3792421999387,785.3792421999387,785.3792421999387,785.3792421999387,old_sceneOut_41.png,128,5.0,2.1745319000910968,,061,11,2025-03-25_17h01.01.457,Surprise recog test,2023.1.3,60.15160611403226,
128,0,128,0,,,,,,,,,,,,,,,,,,,,,,,,,,,,,,,,,,790.7137613999657,791.7317709999625,788.5790703000966,788.5790703000966,788.5790703000966,788.5790703000966,new_fruit_49.png,129,1.0,2.134163099806756,,061,11,2025-03-25_17h01.01.457,Surprise recog test,2023.1.3,60.15160611403226,
129,0,129,0,,,,,,,,,,,,,,,,,,,,,,,,,,,,,,,,,,793.8354958000127,,791.7317709999625,791.7317709999625,791.7317709999625,791.7317709999625,old_stationery_25.png,130,4.0,2.1044955998659134,,061,11,2025-03-25_17h01.01.457,Surprise recog test,2023.1.3,60.15160611403226,
130,0,130,0,,,,,,,,,,,,,,,,,,,,,,,,,,,,,,,,,,797.6986833000556,798.720751099987,794.870043199975,794.870043199975,794.870043199975,794.870043199975,new_stationery_17.png,131,5.0,2.829056000104174,,061,11,2025-03-25_17h01.01.457,Surprise recog test,2023.1.3,60.15160611403226,
131,0,131,0,,,,,,,,,,,,,,,,,,,,,,,,,,,,,,,,,,799.6678814000916,800.6919255000539,798.720751099987,798.720751099987,798.720751099987,798.720751099987,new_sceneIn_15.png,132,5.0,0.9407911000307649,,061,11,2025-03-25_17h01.01.457,Surprise recog test,2023.1.3,60.15160611403226,
132,0,132,0,,,,,,,,,,,,,,,,,,,,,,,,,,,,,,,,,,801.8508595000021,802.8775639999658,800.6919255000539,800.6919255000539,800.6919255000539,800.6919255000539,old_sceneIn_25.png,133,5.0,1.1609269001055509,,061,11,2025-03-25_17h01.01.457,Surprise recog test,2023.1.3,60.15160611403226,
133,0,133,0,,,,,,,,,,,,,,,,,,,,,,,,,,,,,,,,,,804.2951740999706,,802.8775639999658,802.8775639999658,802.8775639999658,802.8775639999658,old_stationery_3.png,134,5.0,1.4195484998635948,,061,11,2025-03-25_17h01.01.457,Surprise recog test,2023.1.3,60.15160611403226,
134,0,134,0,,,,,,,,,,,,,,,,,,,,,,,,,,,,,,,,,,806.400235200068,807.4311194000766,805.3161367999855,805.3161367999855,805.3161367999855,805.3161367999855,old_sceneIn_44.png,135,5.0,1.0779533002059907,,061,11,2025-03-25_17h01.01.457,Surprise recog test,2023.1.3,60.15160611403226,
135,0,135,0,,,,,,,,,,,,,,,,,,,,,,,,,,,,,,,,,,808.4154928999487,,807.4311194000766,807.4311194000766,807.4311194000766,807.4311194000766,new_sceneOut_16.png,136,5.0,0.9857700997963548,,061,11,2025-03-25_17h01.01.457,Surprise recog test,2023.1.3,60.15160611403226,
136,0,136,0,,,,,,,,,,,,,,,,,,,,,,,,,,,,,,,,,,811.6252764000092,812.6393510999624,809.4360062000342,809.4360062000342,809.4360062000342,809.4360062000342,old_fruit_12.png,137,1.0,2.1848377999849617,,061,11,2025-03-25_17h01.01.457,Surprise recog test,2023.1.3,60.15160611403226,
137,0,137,0,,,,,,,,,,,,,,,,,,,,,,,,,,,,,,,,,,814.6352927999105,,812.6393510999624,812.6393510999624,812.6393510999624,812.6393510999624,new_sceneOut_40.png,138,4.0,1.9910466999281198,,061,11,2025-03-25_17h01.01.457,Surprise recog test,2023.1.3,60.15160611403226,
138,0,138,0,,,,,,,,,,,,,,,,,,,,,,,,,,,,,,,,,,817.4451594001148,818.4733494000975,815.670881099999,815.670881099999,815.670881099999,815.670881099999,old_sceneIn_7.png,139,5.0,1.7769255999010056,,061,11,2025-03-25_17h01.01.457,Surprise recog test,2023.1.3,60.15160611403226,
139,0,139,0,,,,,,,,,,,,,,,,,,,,,,,,,,,,,,,,,,819.9017864000052,820.9259699000977,818.4733494000975,818.4733494000975,818.4733494000975,818.4733494000975,old_sceneOut_46.png,140,5.0,1.4310757999774069,,061,11,2025-03-25_17h01.01.457,Surprise recog test,2023.1.3,60.15160611403226,
140,0,140,0,,,,,,,,,,,,,,,,,,,,,,,,,,,,,,,,,,822.0421698999126,,820.9259699000977,820.9259699000977,820.9259699000977,820.9259699000977,old_sceneIn_33.png,141,5.0,1.1180183999240398,,061,11,2025-03-25_17h01.01.457,Surprise recog test,2023.1.3,60.15160611403226,
141,0,141,0,,,,,,,,,,,,,,,,,,,,,,,,,,,,,,,,,,826.5208282999229,827.5486302000936,823.0603803999256,823.0603803999256,823.0603803999256,823.0603803999256,new_fruit_16.png,142,4.0,3.4551043999381363,,061,11,2025-03-25_17h01.01.457,Surprise recog test,2023.1.3,60.15160611403226,
142,0,142,0,,,,,,,,,,,,,,,,,,,,,,,,,,,,,,,,,,829.676209700061,830.6877548999619,827.5486302000936,827.5486302000936,827.5486302000936,827.5486302000936,new_sceneOut_17.png,143,4.0,2.128453299868852,,061,11,2025-03-25_17h01.01.457,Surprise recog test,2023.1.3,60.15160611403226,
143,0,143,0,,,,,,,,,,,,,,,,,,,,,,,,,,,,,,,,,,832.0788702000864,833.10379069997,830.6877548999619,830.6877548999619,830.6877548999619,830.6877548999619,new_sceneIn_50.png,144,5.0,1.386947700055316,,061,11,2025-03-25_17h01.01.457,Surprise recog test,2023.1.3,60.15160611403226,
144,0,144,0,,,,,,,,,,,,,,,,,,,,,,,,,,,,,,,,,,836.5239546000957,837.5420411999803,833.10379069997,833.10379069997,833.10379069997,833.10379069997,new_stationery_12.png,145,4.0,3.4232395000290126,,061,11,2025-03-25_17h01.01.457,Surprise recog test,2023.1.3,60.15160611403226,
145,0,145,0,,,,,,,,,,,,,,,,,,,,,,,,,,,,,,,,,,842.0384498001076,843.0452288999222,837.5420411999803,837.5420411999803,837.5420411999803,837.5420411999803,new_sceneOut_7.png,146,4.0,4.4920673000160605,,061,11,2025-03-25_17h01.01.457,Surprise recog test,2023.1.3,60.15160611403226,
146,0,146,0,,,,,,,,,,,,,,,,,,,,,,,,,,,,,,,,,,845.2754379999824,846.2805914999917,843.0452288999222,843.0452288999222,843.0452288999222,843.0452288999222,new_fruit_42.png,147,3.0,2.2210826000664383,,061,11,2025-03-25_17h01.01.457,Surprise recog test,2023.1.3,60.15160611403226,
147,0,147,0,,,,,,,,,,,,,,,,,,,,,,,,,,,,,,,,,,848.9451389999595,849.9501420001034,846.2805914999917,846.2805914999917,846.2805914999917,846.2805914999917,old_fruit_13.png,148,1.0,2.654666499933228,,061,11,2025-03-25_17h01.01.457,Surprise recog test,2023.1.3,60.15160611403226,
148,0,148,0,,,,,,,,,,,,,,,,,,,,,,,,,,,,,,,,,,851.8809644000139,852.885913199978,849.9501420001034,849.9501420001034,849.9501420001034,849.9501420001034,new_sceneIn_6.png,149,5.0,1.9211364998482168,,061,11,2025-03-25_17h01.01.457,Surprise recog test,2023.1.3,60.15160611403226,
149,0,149,0,,,,,,,,,,,,,,,,,,,,,,,,,,,,,,,,,,853.9993897001259,855.0044410000555,852.885913199978,852.885913199978,852.885913199978,852.885913199978,new_fruit_43.png,150,5.0,1.103748699882999,,061,11,2025-03-25_17h01.01.457,Surprise recog test,2023.1.3,60.15160611403226,
150,0,150,0,,,,,,,,,,,,,,,,,,,,,,,,,,,,,,,,,,855.8675867000129,856.8728070999496,855.0044410000555,855.0044410000555,855.0044410000555,855.0044410000555,old_sceneIn_11.png,151,5.0,0.8533885001670569,,061,11,2025-03-25_17h01.01.457,Surprise recog test,2023.1.3,60.15160611403226,
151,0,151,0,,,,,,,,,,,,,,,,,,,,,,,,,,,,,,,,,,857.7191417999566,858.7248380999081,856.8728070999496,856.8728070999496,856.8728070999496,856.8728070999496,old_sceneOut_20.png,152,5.0,0.836402399931103,,061,11,2025-03-25_17h01.01.457,Surprise recog test,2023.1.3,60.15160611403226,
152,0,152,0,,,,,,,,,,,,,,,,,,,,,,,,,,,,,,,,,,859.6707222999539,860.6753893999849,858.7248380999081,858.7248380999081,858.7248380999081,858.7248380999081,old_stationery_30.png,153,5.0,0.936415100004524,,061,11,2025-03-25_17h01.01.457,Surprise recog test,2023.1.3,60.15160611403226,
153,0,153,0,,,,,,,,,,,,,,,,,,,,,,,,,,,,,,,,,,863.2737255000975,864.2784045001026,860.6753893999849,860.6753893999849,860.6753893999849,860.6753893999849,old_fruit_41.png,154,1.0,2.588448799913749,,061,11,2025-03-25_17h01.01.457,Surprise recog test,2023.1.3,60.15160611403226,
154,0,154,0,,,,,,,,,,,,,,,,,,,,,,,,,,,,,,,,,,866.6264669999946,867.6315548999701,864.2784045001026,864.2784045001026,864.2784045001026,864.2784045001026,new_fruit_4.png,155,2.0,2.339216500055045,,061,11,2025-03-25_17h01.01.457,Surprise recog test,2023.1.3,60.15160611403226,
155,0,155,0,,,,,,,,,,,,,,,,,,,,,,,,,,,,,,,,,,869.2620721000712,870.2688867999241,867.6315548999701,867.6315548999701,867.6315548999701,867.6315548999701,old_sceneIn_47.png,156,5.0,1.6204216999467462,,061,11,2025-03-25_17h01.01.457,Surprise recog test,2023.1.3,60.15160611403226,
156,0,156,0,,,,,,,,,,,,,,,,,,,,,,,,,,,,,,,,,,871.9309290000238,872.9358095999341,870.2688867999241,870.2688867999241,870.2688867999241,870.2688867999241,new_sceneOut_45.png,157,5.0,1.6534221000038087,,061,11,2025-03-25_17h01.01.457,Surprise recog test,2023.1.3,60.15160611403226,
157,0,157,0,,,,,,,,,,,,,,,,,,,,,,,,,,,,,,,,,,874.4164831999224,875.4223857999314,872.9358095999341,872.9358095999341,872.9358095999341,872.9358095999341,old_fruit_48.png,158,1.0,1.470170000102371,,061,11,2025-03-25_17h01.01.457,Surprise recog test,2023.1.3,60.15160611403226,
158,0,158,0,,,,,,,,,,,,,,,,,,,,,,,,,,,,,,,,,,877.4189438999165,878.4241128000431,875.4223857999314,875.4223857999314,875.4223857999314,875.4223857999314,new_sceneIn_11.png,159,5.0,1.987840099958703,,061,11,2025-03-25_17h01.01.457,Surprise recog test,2023.1.3,60.15160611403226,
159,0,159,0,,,,,,,,,,,,,,,,,,,,,,,,,,,,,,,,,,879.4371738999616,880.4422941000666,878.4241128000431,878.4241128000431,878.4241128000431,878.4241128000431,new_sceneIn_1.png,160,5.0,1.004232400096953,,061,11,2025-03-25_17h01.01.457,Surprise recog test,2023.1.3,60.15160611403226,
160,0,160,0,,,,,,,,,,,,,,,,,,,,,,,,,,,,,,,,,,881.3554875000846,882.359933400061,880.4422941000666,880.4422941000666,880.4422941000666,880.4422941000666,new_sceneIn_35.png,161,5.0,0.9044222000520676,,061,11,2025-03-25_17h01.01.457,Surprise recog test,2023.1.3,60.15160611403226,
161,0,161,0,,,,,,,,,,,,,,,,,,,,,,,,,,,,,,,,,,884.5081279999577,885.5133895999752,882.359933400061,882.359933400061,882.359933400061,882.359933400061,old_fruit_15.png,162,1.0,2.1373028999660164,,061,11,2025-03-25_17h01.01.457,Surprise recog test,2023.1.3,60.15160611403226,
162,0,162,0,,,,,,,,,,,,,,,,,,,,,,,,,,,,,,,,,,887.7149296000134,888.7339395999443,885.5133895999752,885.5133895999752,885.5133895999752,885.5133895999752,old_sceneOut_31.png,163,5.0,2.1979412001091987,,061,11,2025-03-25_17h01.01.457,Surprise recog test,2023.1.3,60.15160611403226,
163,0,163,0,,,,,,,,,,,,,,,,,,,,,,,,,,,,,,,,,,891.7702717001084,892.8086445000954,888.7339395999443,888.7339395999443,888.7339395999443,888.7339395999443,new_fruit_20.png,164,3.0,3.0341455000452697,,061,11,2025-03-25_17h01.01.457,Surprise recog test,2023.1.3,60.15160611403226,
164,0,164,0,,,,,,,,,,,,,,,,,,,,,,,,,,,,,,,,,,893.8333614000585,894.837581000058,892.8086445000954,892.8086445000954,892.8086445000954,892.8086445000954,new_fruit_19.png,165,3.0,1.0260596999432892,,061,11,2025-03-25_17h01.01.457,Surprise recog test,2023.1.3,60.15160611403226,
165,0,165,0,,,,,,,,,,,,,,,,,,,,,,,,,,,,,,,,,,897.2353398001287,898.2578980999533,894.837581000058,894.837581000058,894.837581000058,894.837581000058,old_fruit_3.png,166,1.0,2.39373439992778,,061,11,2025-03-25_17h01.01.457,Surprise recog test,2023.1.3,60.15160611403226,
166,0,166,0,,,,,,,,,,,,,,,,,,,,,,,,,,,,,,,,,,900.4540719001088,901.4804535000585,898.2578980999533,898.2578980999533,898.2578980999533,898.2578980999533,new_stationery_4.png,167,4.0,2.2007057000882924,,061,11,2025-03-25_17h01.01.457,Surprise recog test,2023.1.3,60.15160611403226,
167,0,167,0,,,,,,,,,,,,,,,,,,,,,,,,,,,,,,,,,,903.1710751999635,904.1894294999074,901.4804535000585,901.4804535000585,901.4804535000585,901.4804535000585,old_sceneOut_50.png,168,5.0,1.6951754000037909,,061,11,2025-03-25_17h01.01.457,Surprise recog test,2023.1.3,60.15160611403226,
168,0,168,0,,,,,,,,,,,,,,,,,,,,,,,,,,,,,,,,,,906.2930707000196,907.30100210011,904.1894294999074,904.1894294999074,904.1894294999074,904.1894294999074,old_fruit_37.png,169,1.0,2.101516100112349,,061,11,2025-03-25_17h01.01.457,Surprise recog test,2023.1.3,60.15160611403226,
169,0,169,0,,,,,,,,,,,,,,,,,,,,,,,,,,,,,,,,,,908.3206750000827,909.3542718000244,907.30100210011,907.30100210011,907.30100210011,907.30100210011,old_fruit_34.png,170,1.0,1.0143065000884235,,061,11,2025-03-25_17h01.01.457,Surprise recog test,2023.1.3,60.15160611403226,
170,0,170,0,,,,,,,,,,,,,,,,,,,,,,,,,,,,,,,,,,911.1904714000411,912.2180421999656,909.3542718000244,909.3542718000244,909.3542718000244,909.3542718000244,new_sceneIn_7.png,171,5.0,1.8412067000754178,,061,11,2025-03-25_17h01.01.457,Surprise recog test,2023.1.3,60.15160611403226,
171,0,171,0,,,,,,,,,,,,,,,,,,,,,,,,,,,,,,,,,,912.9145990000106,913.929450500058,912.2180421999656,912.2180421999656,912.2180421999656,912.2180421999656,new_sceneIn_8.png,172,5.0,0.6974270001519471,,061,11,2025-03-25_17h01.01.457,Surprise recog test,2023.1.3,60.15160611403226,
172,0,172,0,,,,,,,,,,,,,,,,,,,,,,,,,,,,,,,,,,915.583997500129,916.6060518999584,913.929450500058,913.929450500058,913.929450500058,913.929450500058,new_fruit_17.png,173,1.0,1.6514053998980671,,061,11,2025-03-25_17h01.01.457,Surprise recog test,2023.1.3,60.15160611403226,
173,0,173,0,,,,,,,,,,,,,,,,,,,,,,,,,,,,,,,,,,919.6819831000175,920.7086175999139,916.6060518999584,916.6060518999584,916.6060518999584,916.6060518999584,new_sceneOut_39.png,174,4.0,3.0761628998443484,,061,11,2025-03-25_17h01.01.457,Surprise recog test,2023.1.3,60.15160611403226,
174,0,174,0,,,,,,,,,,,,,,,,,,,,,,,,,,,,,,,,,,924.6168825000059,925.6490424000658,920.7086175999139,920.7086175999139,920.7086175999139,920.7086175999139,old_sceneOut_19.png,175,5.0,3.9091322999447584,,061,11,2025-03-25_17h01.01.457,Surprise recog test,2023.1.3,60.15160611403226,
175,0,175,0,,,,,,,,,,,,,,,,,,,,,,,,,,,,,,,,,,929.3744314999785,930.3873517999891,925.6490424000658,925.6490424000658,925.6490424000658,925.6490424000658,new_fruit_38.png,176,4.0,3.728371299803257,,061,11,2025-03-25_17h01.01.457,Surprise recog test,2023.1.3,60.15160611403226,
176,0,176,0,,,,,,,,,,,,,,,,,,,,,,,,,,,,,,,,,,934.3251195999328,935.3543438999914,930.3873517999891,930.3873517999891,930.3873517999891,930.3873517999891,old_sceneIn_36.png,177,5.0,3.9338760999962687,,061,11,2025-03-25_17h01.01.457,Surprise recog test,2023.1.3,60.15160611403226,
177,0,177,0,,,,,,,,,,,,,,,,,,,,,,,,,,,,,,,,,,937.3483893000521,938.3670058001298,935.3543438999914,935.3543438999914,935.3543438999914,935.3543438999914,old_fruit_19.png,178,1.0,1.996363200014457,,061,11,2025-03-25_17h01.01.457,Surprise recog test,2023.1.3,60.15160611403226,
178,0,178,0,,,,,,,,,,,,,,,,,,,,,,,,,,,,,,,,,,939.7136671000626,940.7419141000137,938.3670058001298,938.3670058001298,938.3670058001298,938.3670058001298,old_fruit_47.png,179,1.0,1.3467069999314845,,061,11,2025-03-25_17h01.01.457,Surprise recog test,2023.1.3,60.15160611403226,
179,0,179,0,,,,,,,,,,,,,,,,,,,,,,,,,,,,,,,,,,944.0109399000648,,940.7419141000137,940.7419141000137,940.7419141000137,940.7419141000137,new_stationery_36.png,180,4.0,3.2701716001611203,,061,11,2025-03-25_17h01.01.457,Surprise recog test,2023.1.3,60.15160611403226,
180,0,180,0,,,,,,,,,,,,,,,,,,,,,,,,,,,,,,,,,,946.4796677001286,,945.0453309000004,945.0453309000004,945.0453309000004,945.0453309000004,old_sceneIn_10.png,181,5.0,1.434760499978438,,061,11,2025-03-25_17h01.01.457,Surprise recog test,2023.1.3,60.15160611403226,
181,0,181,0,,,,,,,,,,,,,,,,,,,,,,,,,,,,,,,,,,949.2098717999179,950.2319034999236,947.4999637999572,947.4999637999572,947.4999637999572,947.4999637999572,old_stationery_42.png,182,4.0,1.705846400000155,,061,11,2025-03-25_17h01.01.457,Surprise recog test,2023.1.3,60.15160611403226,
182,0,182,0,,,,,,,,,,,,,,,,,,,,,,,,,,,,,,,,,,952.3614928000607,953.3730742000043,950.2319034999236,950.2319034999236,950.2319034999236,950.2319034999236,old_sceneOut_16.png,183,5.0,2.133970799855888,,061,11,2025-03-25_17h01.01.457,Surprise recog test,2023.1.3,60.15160611403226,
183,0,183,0,,,,,,,,,,,,,,,,,,,,,,,,,,,,,,,,,,955.1945972999092,956.2260102001019,953.3730742000043,953.3730742000043,953.3730742000043,953.3730742000043,old_stationery_31.png,184,5.0,1.814940100070089,,061,11,2025-03-25_17h01.01.457,Surprise recog test,2023.1.3,60.15160611403226,
184,0,184,0,,,,,,,,,,,,,,,,,,,,,,,,,,,,,,,,,,957.0593439000659,958.0832952999044,956.2260102001019,956.2260102001019,956.2260102001019,956.2260102001019,new_sceneIn_25.png,185,5.0,0.8374124998226762,,061,11,2025-03-25_17h01.01.457,Surprise recog test,2023.1.3,60.15160611403226,
185,0,185,0,,,,,,,,,,,,,,,,,,,,,,,,,,,,,,,,,,959.9547393999528,960.9704686999321,958.0832952999044,958.0832952999044,958.0832952999044,958.0832952999044,old_sceneOut_45.png,186,5.0,1.8724752999842167,,061,11,2025-03-25_17h01.01.457,Surprise recog test,2023.1.3,60.15160611403226,
186,0,186,0,,,,,,,,,,,,,,,,,,,,,,,,,,,,,,,,,,962.8489139999729,963.8797325999476,960.9704686999321,960.9704686999321,960.9704686999321,960.9704686999321,new_sceneOut_21.png,187,4.0,1.8810204998590052,,061,11,2025-03-25_17h01.01.457,Surprise recog test,2023.1.3,60.15160611403226,
187,0,187,0,,,,,,,,,,,,,,,,,,,,,,,,,,,,,,,,,,966.1489460000303,967.1791318999603,963.8797325999476,963.8797325999476,963.8797325999476,963.8797325999476,old_stationery_16.png,188,5.0,2.2726057001855224,,061,11,2025-03-25_17h01.01.457,Surprise recog test,2023.1.3,60.15160611403226,
188,0,188,0,,,,,,,,,,,,,,,,,,,,,,,,,,,,,,,,,,968.7489561000839,,967.1791318999603,967.1791318999603,967.1791318999603,967.1791318999603,old_sceneIn_6.png,189,5.0,1.5687599999364465,,061,11,2025-03-25_17h01.01.457,Surprise recog test,2023.1.3,60.15160611403226,
189,0,189,0,,,,,,,,,,,,,,,,,,,,,,,,,,,,,,,,,,972.1839091000147,,969.7831512000412,969.7831512000412,969.7831512000412,969.7831512000412,new_fruit_29.png,190,3.0,2.4009312000125647,,061,11,2025-03-25_17h01.01.457,Surprise recog test,2023.1.3,60.15160611403226,
190,0,190,0,,,,,,,,,,,,,,,,,,,,,,,,,,,,,,,,,,976.838762700092,,973.2030454999767,973.2030454999767,973.2030454999767,973.2030454999767,new_stationery_25.png,191,5.0,3.632244799984619,,061,11,2025-03-25_17h01.01.457,Surprise recog test,2023.1.3,60.15160611403226,
191,0,191,0,,,,,,,,,,,,,,,,,,,,,,,,,,,,,,,,,,980.780396600021,981.7971556999255,977.8770500000101,977.8770500000101,977.8770500000101,977.8770500000101,new_fruit_44.png,192,3.0,2.9085254000965506,,061,11,2025-03-25_17h01.01.457,Surprise recog test,2023.1.3,60.15160611403226,
192,0,192,0,,,,,,,,,,,,,,,,,,,,,,,,,,,,,,,,,,983.9269232000224,,981.7971556999255,981.7971556999255,981.7971556999255,981.7971556999255,old_fruit_22.png,193,1.0,2.1246227000374347,,061,11,2025-03-25_17h01.01.457,Surprise recog test,2023.1.3,60.15160611403226,
193,0,193,0,,,,,,,,,,,,,,,,,,,,,,,,,,,,,,,,,,986.7945223001298,987.8110255000647,984.9579141000286,984.9579141000286,984.9579141000286,984.9579141000286,new_sceneIn_22.png,194,5.0,1.8386703999713063,,061,11,2025-03-25_17h01.01.457,Surprise recog test,2023.1.3,60.15160611403226,
194,0,194,0,,,,,,,,,,,,,,,,,,,,,,,,,,,,,,,,,,989.7394958999939,990.7629826001357,987.8110255000647,987.8110255000647,987.8110255000647,987.8110255000647,old_fruit_9.png,195,3.0,1.9307619000319391,,061,11,2025-03-25_17h01.01.457,Surprise recog test,2023.1.3,60.15160611403226,
195,0,195,0,,,,,,,,,,,,,,,,,,,,,,,,,,,,,,,,,,992.4010115999263,,990.7629826001357,990.7629826001357,990.7629826001357,990.7629826001357,old_sceneOut_12.png,196,5.0,1.6403185001108795,,061,11,2025-03-25_17h01.01.457,Surprise recog test,2023.1.3,60.15160611403226,
196,0,196,0,,,,,,,,,,,,,,,,,,,,,,,,,,,,,,,,,,994.1488662001211,995.1709489000496,993.4399794000201,993.4399794000201,993.4399794000201,993.4399794000201,old_sceneIn_32.png,197,5.0,0.7128292000852525,,061,11,2025-03-25_17h01.01.457,Surprise recog test,2023.1.3,60.15160611403226,
197,0,197,0,,,,,,,,,,,,,,,,,,,,,,,,,,,,,,,,,,996.0237857999746,997.0417134000454,995.1709489000496,995.1709489000496,995.1709489000496,995.1709489000496,old_sceneIn_37.png,198,5.0,0.8555064001120627,,061,11,2025-03-25_17h01.01.457,Surprise recog test,2023.1.3,60.15160611403226,
198,0,198,0,,,,,,,,,,,,,,,,,,,,,,,,,,,,,,,,,,1000.019780700095,1001.0289139000233,997.0417134000454,997.0417134000454,997.0417134000454,997.0417134000454,new_stationery_27.png,199,3.0,2.973515500081703,,061,11,2025-03-25_17h01.01.457,Surprise recog test,2023.1.3,60.15160611403226,
199,0,199,0,,,,,,,,,,,,,,,,,,,,,,,,,,,,,,,,,,1002.3711485001259,1003.3939064999577,1001.0289139000233,1001.0289139000233,1001.0289139000233,1001.0289139000233,new_stationery_2.png,200,3.0,1.337444999953732,,061,11,2025-03-25_17h01.01.457,Surprise recog test,2023.1.3,60.15160611403226,
200,0,200,0,,,,,,,,,,,,,,,,,,,,,,,,,,,,,,,,,,1005.194189999951,,1003.3939064999577,1003.3939064999577,1003.3939064999577,1003.3939064999577,new_stationery_49.png,201,4.0,1.8018829999491572,,061,11,2025-03-25_17h01.01.457,Surprise recog test,2023.1.3,60.15160611403226,
201,0,201,0,,,,,,,,,,,,,,,,,,,,,,,,,,,,,,,,,,1008.1777560000774,1009.1991008000914,1006.2166152000427,1006.2166152000427,1006.2166152000427,1006.2166152000427,old_stationery_33.png,202,5.0,1.9561219001188874,,061,11,2025-03-25_17h01.01.457,Surprise recog test,2023.1.3,60.15160611403226,
202,0,202,0,,,,,,,,,,,,,,,,,,,,,,,,,,,,,,,,,,1010.4628771999851,1011.4838201999664,1009.1991008000914,1009.1991008000914,1009.1991008000914,1009.1991008000914,new_sceneOut_9.png,203,5.0,1.2622167998924851,,061,11,2025-03-25_17h01.01.457,Surprise recog test,2023.1.3,60.15160611403226,
203,0,203,0,,,,,,,,,,,,,,,,,,,,,,,,,,,,,,,,,,1012.3880998000968,1013.4167086000089,1011.4838201999664,1011.4838201999664,1011.4838201999664,1011.4838201999664,new_stationery_11.png,204,5.0,0.9025238000322133,,061,11,2025-03-25_17h01.01.457,Surprise recog test,2023.1.3,60.15160611403226,
204,0,204,0,,,,,,,,,,,,,,,,,,,,,,,,,,,,,,,,,,1014.2745380001143,1015.3028796999715,1013.4167086000089,1013.4167086000089,1013.4167086000089,1013.4167086000089,new_sceneIn_44.png,205,5.0,0.8575170999392867,,061,11,2025-03-25_17h01.01.457,Surprise recog test,2023.1.3,60.15160611403226,
205,0,205,0,,,,,,,,,,,,,,,,,,,,,,,,,,,,,,,,,,1017.5006162000354,1018.5141738001257,1015.3028796999715,1015.3028796999715,1015.3028796999715,1015.3028796999715,new_fruit_14.png,206,1.0,2.1970917999278754,,061,11,2025-03-25_17h01.01.457,Surprise recog test,2023.1.3,60.15160611403226,
206,0,206,0,,,,,,,,,,,,,,,,,,,,,,,,,,,,,,,,,,1020.1774788000621,1021.1925447999965,1018.5141738001257,1018.5141738001257,1018.5141738001257,1018.5141738001257,old_sceneOut_23.png,207,5.0,1.6617727000266314,,061,11,2025-03-25_17h01.01.457,Surprise recog test,2023.1.3,60.15160611403226,
207,0,207,0,,,,,,,,,,,,,,,,,,,,,,,,,,,,,,,,,,1023.3168520999607,1024.3445836999454,1021.1925447999965,1021.1925447999965,1021.1925447999965,1021.1925447999965,new_fruit_15.png,208,2.0,2.1203940000850707,,061,11,2025-03-25_17h01.01.457,Surprise recog test,2023.1.3,60.15160611403226,
208,0,208,0,,,,,,,,,,,,,,,,,,,,,,,,,,,,,,,,,,1025.9592713001184,1026.975220900029,1024.3445836999454,1024.3445836999454,1024.3445836999454,1024.3445836999454,old_fruit_35.png,209,1.0,1.6132618999108672,,061,11,2025-03-25_17h01.01.457,Surprise recog test,2023.1.3,60.15160611403226,
209,0,209,0,,,,,,,,,,,,,,,,,,,,,,,,,,,,,,,,,,1029.4455540000927,1030.4674408000428,1026.975220900029,1026.975220900029,1026.975220900029,1026.975220900029,new_fruit_11.png,210,3.0,2.4646759999450296,,061,11,2025-03-25_17h01.01.457,Surprise recog test,2023.1.3,60.15160611403226,
210,0,210,0,,,,,,,,,,,,,,,,,,,,,,,,,,,,,,,,,,1032.4149217999075,1033.4232083000243,1030.4674408000428,1030.4674408000428,1030.4674408000428,1030.4674408000428,old_sceneOut_13.png,211,4.0,1.9504372000228614,,061,11,2025-03-25_17h01.01.457,Surprise recog test,2023.1.3,60.15160611403226,
211,0,211,0,,,,,,,,,,,,,,,,,,,,,,,,,,,,,,,,,,1034.8938804001082,1035.9194545999635,1033.4232083000243,1033.4232083000243,1033.4232083000243,1033.4232083000243,old_sceneOut_1.png,212,5.0,1.4665171999949962,,061,11,2025-03-25_17h01.01.457,Surprise recog test,2023.1.3,60.15160611403226,
212,0,212,0,,,,,,,,,,,,,,,,,,,,,,,,,,,,,,,,,,1038.6192123999353,1039.6284171000589,1035.9194545999635,1035.9194545999635,1035.9194545999635,1035.9194545999635,old_stationery_20.png,213,3.0,2.7001112001016736,,061,11,2025-03-25_17h01.01.457,Surprise recog test,2023.1.3,60.15160611403226,
213,0,213,0,,,,,,,,,,,,,,,,,,,,,,,,,,,,,,,,,,1041.4964391000103,1042.5268282000907,1039.6284171000589,1039.6284171000589,1039.6284171000589,1039.6284171000589,new_sceneOut_5.png,214,5.0,1.8622357998974621,,061,11,2025-03-25_17h01.01.457,Surprise recog test,2023.1.3,60.15160611403226,
214,0,214,0,,,,,,,,,,,,,,,,,,,,,,,,,,,,,,,,,,1045.1863945000805,1046.2091403000522,1042.5268282000907,1042.5268282000907,1042.5268282000907,1042.5268282000907,new_fruit_5.png,215,3.0,2.6616068999283016,,061,11,2025-03-25_17h01.01.457,Surprise recog test,2023.1.3,60.15160611403226,
215,0,215,0,,,,,,,,,,,,,,,,,,,,,,,,,,,,,,,,,,1049.3112616001163,1050.3268832000904,1046.2091403000522,1046.2091403000522,1046.2091403000522,1046.2091403000522,new_sceneOut_43.png,216,5.0,3.1001858001109213,,061,11,2025-03-25_17h01.01.457,Surprise recog test,2023.1.3,60.15160611403226,
216,0,216,0,,,,,,,,,,,,,,,,,,,,,,,,,,,,,,,,,,1051.0300271001179,1052.0372890001163,1050.3268832000904,1050.3268832000904,1050.3268832000904,1050.3268832000904,old_sceneIn_48.png,217,5.0,0.7016664000693709,,061,11,2025-03-25_17h01.01.457,Surprise recog test,2023.1.3,60.15160611403226,
217,0,217,0,,,,,,,,,,,,,,,,,,,,,,,,,,,,,,,,,,1052.787906399928,1053.8203867000993,1052.0372890001163,1052.0372890001163,1052.0372890001163,1052.0372890001163,old_sceneOut_38.png,218,5.0,0.7463980000466108,,061,11,2025-03-25_17h01.01.457,Surprise recog test,2023.1.3,60.15160611403226,
218,0,218,0,,,,,,,,,,,,,,,,,,,,,,,,,,,,,,,,,,1056.586177600082,1057.5955871001352,1053.8203867000993,1053.8203867000993,1053.8203867000993,1053.8203867000993,old_stationery_40.png,219,1.0,2.7674581999890506,,061,11,2025-03-25_17h01.01.457,Surprise recog test,2023.1.3,60.15160611403226,
219,0,219,0,,,,,,,,,,,,,,,,,,,,,,,,,,,,,,,,,,1059.3042415999807,1060.3215604999568,1057.5955871001352,1057.5955871001352,1057.5955871001352,1057.5955871001352,old_stationery_38.png,220,3.0,1.704922700067982,,061,11,2025-03-25_17h01.01.457,Surprise recog test,2023.1.3,60.15160611403226,
220,0,220,0,,,,,,,,,,,,,,,,,,,,,,,,,,,,,,,,,,1062.209762700135,,1060.3215604999568,1060.3215604999568,1060.3215604999568,1060.3215604999568,old_sceneOut_22.png,221,5.0,1.8900517001748085,,061,11,2025-03-25_17h01.01.457,Surprise recog test,2023.1.3,60.15160611403226,
221,0,221,0,,,,,,,,,,,,,,,,,,,,,,,,,,,,,,,,,,1065.2726380000822,1066.296551699983,1063.230173900025,1063.230173900025,1063.230173900025,1063.230173900025,old_fruit_31.png,222,3.0,2.037949400022626,,061,11,2025-03-25_17h01.01.457,Surprise recog test,2023.1.3,60.15160611403226,
222,0,222,0,,,,,,,,,,,,,,,,,,,,,,,,,,,,,,,,,,1068.4807436000556,,1066.296551699983,1066.296551699983,1066.296551699983,1066.296551699983,old_sceneOut_9.png,223,4.0,2.183158200001344,,061,11,2025-03-25_17h01.01.457,Surprise recog test,2023.1.3,60.15160611403226,
223,0,223,0,,,,,,,,,,,,,,,,,,,,,,,,,,,,,,,,,,1071.0183109999634,1072.0373702999204,1069.5142497001216,1069.5142497001216,1069.5142497001216,1069.5142497001216,old_stationery_1.png,224,4.0,1.5070150000974536,,061,11,2025-03-25_17h01.01.457,Surprise recog test,2023.1.3,60.15160611403226,
224,0,224,0,,,,,,,,,,,,,,,,,,,,,,,,,,,,,,,,,,1074.364247099962,1075.3880898000207,1072.0373702999204,1072.0373702999204,1072.0373702999204,1072.0373702999204,old_sceneOut_3.png,225,4.0,2.3198830999899656,,061,11,2025-03-25_17h01.01.457,Surprise recog test,2023.1.3,60.15160611403226,
225,0,225,0,,,,,,,,,,,,,,,,,,,,,,,,,,,,,,,,,,1077.1615180000663,1078.190610300051,1075.3880898000207,1075.3880898000207,1075.3880898000207,1075.3880898000207,old_sceneIn_9.png,226,5.0,1.7741392001044005,,061,11,2025-03-25_17h01.01.457,Surprise recog test,2023.1.3,60.15160611403226,
226,0,226,0,,,,,,,,,,,,,,,,,,,,,,,,,,,,,,,,,,1080.1382069999818,1081.1507228000555,1078.190610300051,1078.190610300051,1078.190610300051,1078.190610300051,new_stationery_29.png,227,5.0,1.9523052999284118,,061,11,2025-03-25_17h01.01.457,Surprise recog test,2023.1.3,60.15160611403226,
227,0,227,0,,,,,,,,,,,,,,,,,,,,,,,,,,,,,,,,,,1082.761325800093,1083.7945564000402,1081.1507228000555,1081.1507228000555,1081.1507228000555,1081.1507228000555,new_stationery_13.png,228,4.0,1.6070667998865247,,061,11,2025-03-25_17h01.01.457,Surprise recog test,2023.1.3,60.15160611403226,
228,0,228,0,,,,,,,,,,,,,,,,,,,,,,,,,,,,,,,,,,1085.0666863999795,1086.0840497000609,1083.7945564000402,1083.7945564000402,1083.7945564000402,1083.7945564000402,new_sceneOut_19.png,229,5.0,1.2735169001389295,,061,11,2025-03-25_17h01.01.457,Surprise recog test,2023.1.3,60.15160611403226,
229,0,229,0,,,,,,,,,,,,,,,,,,,,,,,,,,,,,,,,,,1088.010922400048,1089.0307295001112,1086.0840497000609,1086.0840497000609,1086.0840497000609,1086.0840497000609,new_fruit_33.png,230,2.0,1.9158429000526667,,061,11,2025-03-25_17h01.01.457,Surprise recog test,2023.1.3,60.15160611403226,
230,0,230,0,,,,,,,,,,,,,,,,,,,,,,,,,,,,,,,,,,1091.4870341001078,1092.508656400023,1089.0307295001112,1089.0307295001112,1089.0307295001112,1089.0307295001112,old_stationery_4.png,231,4.0,2.4572211001068354,,061,11,2025-03-25_17h01.01.457,Surprise recog test,2023.1.3,60.15160611403226,
231,0,231,0,,,,,,,,,,,,,,,,,,,,,,,,,,,,,,,,,,1094.9041723001283,,1092.508656400023,1092.508656400023,1092.508656400023,1092.508656400023,old_sceneOut_49.png,232,5.0,2.392142500029877,,061,11,2025-03-25_17h01.01.457,Surprise recog test,2023.1.3,60.15160611403226,
232,0,232,0,,,,,,,,,,,,,,,,,,,,,,,,,,,,,,,,,,1098.9064422000665,,1095.9242698999587,1095.9242698999587,1095.9242698999587,1095.9242698999587,new_stationery_41.png,233,4.0,2.9762439001351595,,061,11,2025-03-25_17h01.01.457,Surprise recog test,2023.1.3,60.15160611403226,
233,0,233,0,,,,,,,,,,,,,,,,,,,,,,,,,,,,,,,,,,1101.6451250999235,1102.6765956999734,1099.9280996001326,1099.9280996001326,1099.9280996001326,1099.9280996001326,old_sceneOut_43.png,234,5.0,1.7123727998696268,,061,11,2025-03-25_17h01.01.457,Surprise recog test,2023.1.3,60.15160611403226,
234,0,234,0,,,,,,,,,,,,,,,,,,,,,,,,,,,,,,,,,,1103.6591825000942,1104.678116899915,1102.6765956999734,1102.6765956999734,1102.6765956999734,1102.6765956999734,old_sceneOut_6.png,235,5.0,0.982171299867332,,061,11,2025-03-25_17h01.01.457,Surprise recog test,2023.1.3,60.15160611403226,
235,0,235,0,,,,,,,,,,,,,,,,,,,,,,,,,,,,,,,,,,1105.5244458001107,1106.5342677000444,1104.678116899915,1104.678116899915,1104.678116899915,1104.678116899915,old_sceneIn_21.png,236,5.0,0.8491923999972641,,061,11,2025-03-25_17h01.01.457,Surprise recog test,2023.1.3,60.15160611403226,
236,0,236,0,,,,,,,,,,,,,,,,,,,,,,,,,,,,,,,,,,1108.3114889999852,1109.332272700034,1106.5342677000444,1106.5342677000444,1106.5342677000444,1106.5342677000444,new_fruit_23.png,237,2.0,1.772627400001511,,061,11,2025-03-25_17h01.01.457,Surprise recog test,2023.1.3,60.15160611403226,
237,0,237,0,,,,,,,,,,,,,,,,,,,,,,,,,,,,,,,,,,1111.3728390999604,1112.3945711001288,1109.332272700034,1109.332272700034,1109.332272700034,1109.332272700034,new_fruit_47.png,238,1.0,2.0429869000799954,,061,11,2025-03-25_17h01.01.457,Surprise recog test,2023.1.3,60.15160611403226,
238,0,238,0,,,,,,,,,,,,,,,,,,,,,,,,,,,,,,,,,,1113.9470581999049,1114.9573878000956,1112.3945711001288,1112.3945711001288,1112.3945711001288,1112.3945711001288,new_fruit_36.png,239,2.0,1.5522301001474261,,061,11,2025-03-25_17h01.01.457,Surprise recog test,2023.1.3,60.15160611403226,
239,0,239,0,,,,,,,,,,,,,,,,,,,,,,,,,,,,,,,,,,1117.3711578999646,,1114.9573878000956,1114.9573878000956,1114.9573878000956,1114.9573878000956,new_sceneOut_12.png,240,5.0,2.408886000048369,,061,11,2025-03-25_17h01.01.457,Surprise recog test,2023.1.3,60.15160611403226,
240,0,240,0,,,,,,,,,,,,,,,,,,,,,,,,,,,,,,,,,,1119.1265215999447,1120.1444904000964,1118.4066395999398,1118.4066395999398,1118.4066395999398,1118.4066395999398,new_sceneOut_47.png,241,5.0,0.720373900141567,,061,11,2025-03-25_17h01.01.457,Surprise recog test,2023.1.3,60.15160611403226,
241,0,241,0,,,,,,,,,,,,,,,,,,,,,,,,,,,,,,,,,,1120.9061841999646,1121.9257583001163,1120.1444904000964,1120.1444904000964,1120.1444904000964,1120.1444904000964,old_sceneOut_11.png,242,5.0,0.7550766998901963,,061,11,2025-03-25_17h01.01.457,Surprise recog test,2023.1.3,60.15160611403226,
242,0,242,0,,,,,,,,,,,,,,,,,,,,,,,,,,,,,,,,,,1122.761612399947,1123.7943508001044,1121.9257583001163,1121.9257583001163,1121.9257583001163,1121.9257583001163,new_sceneIn_18.png,243,5.0,0.8344249001238495,,061,11,2025-03-25_17h01.01.457,Surprise recog test,2023.1.3,60.15160611403226,
243,0,243,0,,,,,,,,,,,,,,,,,,,,,,,,,,,,,,,,,,1124.728244900005,,1123.7943508001044,1123.7943508001044,1123.7943508001044,1123.7943508001044,old_sceneIn_50.png,244,5.0,0.935954799875617,,061,11,2025-03-25_17h01.01.457,Surprise recog test,2023.1.3,60.15160611403226,
244,0,244,0,,,,,,,,,,,,,,,,,,,,,,,,,,,,,,,,,,1127.961592799984,1128.9710514000617,1125.7607056999113,1125.7607056999113,1125.7607056999113,1125.7607056999113,new_fruit_31.png,245,2.0,2.198161599924788,,061,11,2025-03-25_17h01.01.457,Surprise recog test,2023.1.3,60.15160611403226,
245,0,245,0,,,,,,,,,,,,,,,,,,,,,,,,,,,,,,,,,,1131.9546151999384,1132.98918829998,1128.9710514000617,1128.9710514000617,1128.9710514000617,1128.9710514000617,new_stationery_39.png,246,4.0,2.9813518000300974,,061,11,2025-03-25_17h01.01.457,Surprise recog test,2023.1.3,60.15160611403226,
246,0,246,0,,,,,,,,,,,,,,,,,,,,,,,,,,,,,,,,,,1135.8699231001083,,1132.98918829998,1132.98918829998,1132.98918829998,1132.98918829998,new_stationery_38.png,247,3.0,2.883151700021699,,061,11,2025-03-25_17h01.01.457,Surprise recog test,2023.1.3,60.15160611403226,
247,0,247,0,,,,,,,,,,,,,,,,,,,,,,,,,,,,,,,,,,1138.9062898999546,,1136.903934800066,1136.903934800066,1136.903934800066,1136.903934800066,new_sceneIn_48.png,248,5.0,2.0022029001265764,,061,11,2025-03-25_17h01.01.457,Surprise recog test,2023.1.3,60.15160611403226,
248,0,248,0,,,,,,,,,,,,,,,,,,,,,,,,,,,,,,,,,,1142.1518258999567,1143.1644649000373,1139.946465499932,1139.946465499932,1139.946465499932,1139.946465499932,old_stationery_24.png,249,4.0,2.2099387999624014,,061,11,2025-03-25_17h01.01.457,Surprise recog test,2023.1.3,60.15160611403226,
249,0,249,0,,,,,,,,,,,,,,,,,,,,,,,,,,,,,,,,,,1144.729320900049,1145.7645322999451,1143.1644649000373,1143.1644649000373,1143.1644649000373,1143.1644649000373,new_sceneOut_20.png,250,5.0,1.5605609000194818,,061,11,2025-03-25_17h01.01.457,Surprise recog test,2023.1.3,60.15160611403226,
250,0,250,0,,,,,,,,,,,,,,,,,,,,,,,,,,,,,,,,,,1146.3506472001318,1147.3694714999292,1145.7645322999451,1145.7645322999451,1145.7645322999451,1145.7645322999451,old_sceneIn_41.png,251,5.0,0.5896563001442701,,061,11,2025-03-25_17h01.01.457,Surprise recog test,2023.1.3,60.15160611403226,
251,0,251,0,,,,,,,,,,,,,,,,,,,,,,,,,,,,,,,,,,1149.1475502001122,,1147.3694714999292,1147.3694714999292,1147.3694714999292,1147.3694714999292,new_fruit_27.png,252,2.0,1.7728258001152426,,061,11,2025-03-25_17h01.01.457,Surprise recog test,2023.1.3,60.15160611403226,
252,0,252,0,,,,,,,,,,,,,,,,,,,,,,,,,,,,,,,,,,1151.813920200104,1152.8340990999714,1150.1795799999963,1150.1795799999963,1150.1795799999963,1150.1795799999963,new_fruit_3.png,253,1.0,1.6310337001923472,,061,11,2025-03-25_17h01.01.457,Surprise recog test,2023.1.3,60.15160611403226,
253,0,253,0,,,,,,,,,,,,,,,,,,,,,,,,,,,,,,,,,,1154.9499320001341,1155.970582100097,1152.8340990999714,1152.8340990999714,1152.8340990999714,1152.8340990999714,new_fruit_34.png,254,3.0,2.113117099972442,,061,11,2025-03-25_17h01.01.457,Surprise recog test,2023.1.3,60.15160611403226,
254,0,254,0,,,,,,,,,,,,,,,,,,,,,,,,,,,,,,,,,,1158.0442612001207,1159.0622632000595,1155.970582100097,1155.970582100097,1155.970582100097,1155.970582100097,old_stationery_46.png,255,5.0,2.0749804000370204,,061,11,2025-03-25_17h01.01.457,Surprise recog test,2023.1.3,60.15160611403226,
255,0,255,0,,,,,,,,,,,,,,,,,,,,,,,,,,,,,,,,,,1160.4425417000894,1161.4759599000681,1159.0622632000595,1159.0622632000595,1159.0622632000595,1159.0622632000595,old_sceneIn_13.png,256,5.0,1.3759769001044333,,061,11,2025-03-25_17h01.01.457,Surprise recog test,2023.1.3,60.15160611403226,
256,0,256,0,,,,,,,,,,,,,,,,,,,,,,,,,,,,,,,,,,1162.0666662999429,1163.0825454001315,1161.4759599000681,1161.4759599000681,1161.4759599000681,1161.4759599000681,old_sceneIn_16.png,257,5.0,0.5929463999345899,,061,11,2025-03-25_17h01.01.457,Surprise recog test,2023.1.3,60.15160611403226,
257,0,257,0,,,,,,,,,,,,,,,,,,,,,,,,,,,,,,,,,,1165.0716170000378,1166.0825060999487,1163.0825454001315,1163.0825454001315,1163.0825454001315,1163.0825454001315,new_fruit_26.png,258,2.0,1.984792600153014,,061,11,2025-03-25_17h01.01.457,Surprise recog test,2023.1.3,60.15160611403226,
258,0,258,0,,,,,,,,,,,,,,,,,,,,,,,,,,,,,,,,,,1168.3220879000146,1169.3492139000446,1166.0825060999487,1166.0825060999487,1166.0825060999487,1166.0825060999487,new_stationery_18.png,259,4.0,2.233399200020358,,061,11,2025-03-25_17h01.01.457,Surprise recog test,2023.1.3,60.15160611403226,
259,0,259,0,,,,,,,,,,,,,,,,,,,,,,,,,,,,,,,,,,1171.1300934001338,1172.1506463999394,1169.3492139000446,1169.3492139000446,1169.3492139000446,1169.3492139000446,old_fruit_39.png,260,1.0,1.7834107999224216,,061,11,2025-03-25_17h01.01.457,Surprise recog test,2023.1.3,60.15160611403226,
260,0,260,0,,,,,,,,,,,,,,,,,,,,,,,,,,,,,,,,,,1174.1649744000752,1175.1909330999479,1172.1506463999394,1172.1506463999394,1172.1506463999394,1172.1506463999394,new_stationery_50.png,261,5.0,2.0164501999970526,,061,11,2025-03-25_17h01.01.457,Surprise recog test,2023.1.3,60.15160611403226,
261,0,261,0,,,,,,,,,,,,,,,,,,,,,,,,,,,,,,,,,,1176.619541299995,1177.6392628999893,1175.1909330999479,1175.1909330999479,1175.1909330999479,1175.1909330999479,old_stationery_23.png,262,5.0,1.4326424999162555,,061,11,2025-03-25_17h01.01.457,Surprise recog test,2023.1.3,60.15160611403226,
262,0,262,0,,,,,,,,,,,,,,,,,,,,,,,,,,,,,,,,,,1179.5107257000636,1180.5415550000034,1177.6392628999893,1177.6392628999893,1177.6392628999893,1177.6392628999893,old_fruit_20.png,263,2.0,1.8714276000391692,,061,11,2025-03-25_17h01.01.457,Surprise recog test,2023.1.3,60.15160611403226,
263,0,263,0,,,,,,,,,,,,,,,,,,,,,,,,,,,,,,,,,,1182.3148399000056,1183.331775400089,1180.5415550000034,1180.5415550000034,1180.5415550000034,1180.5415550000034,new_sceneIn_42.png,264,5.0,1.7735465997830033,,061,11,2025-03-25_17h01.01.457,Surprise recog test,2023.1.3,60.15160611403226,
264,0,264,0,,,,,,,,,,,,,,,,,,,,,,,,,,,,,,,,,,1184.1214145999402,1185.141286799917,1183.331775400089,1183.331775400089,1183.331775400089,1183.331775400089,new_sceneOut_8.png,265,5.0,0.7821572998072952,,061,11,2025-03-25_17h01.01.457,Surprise recog test,2023.1.3,60.15160611403226,
265,0,265,0,,,,,,,,,,,,,,,,,,,,,,,,,,,,,,,,,,1187.0619149999693,,1185.141286799917,1185.141286799917,1185.141286799917,1185.141286799917,new_fruit_45.png,266,2.0,1.9229969000443816,,061,11,2025-03-25_17h01.01.457,Surprise recog test,2023.1.3,60.15160611403226,
266,0,266,0,,,,,,,,,,,,,,,,,,,,,,,,,,,,,,,,,,1189.8361981001217,1190.8666274999268,1188.0972802999895,1188.0972802999895,1188.0972802999895,1188.0972802999895,old_sceneIn_19.png,267,5.0,1.741914900019765,,061,11,2025-03-25_17h01.01.457,Surprise recog test,2023.1.3,60.15160611403226,
267,0,267,0,,,,,,,,,,,,,,,,,,,,,,,,,,,,,,,,,,1191.4865401000716,1192.5137511999346,1190.8666274999268,1190.8666274999268,1190.8666274999268,1190.8666274999268,new_sceneOut_29.png,268,5.0,0.6221358999609947,,061,11,2025-03-25_17h01.01.457,Surprise recog test,2023.1.3,60.15160611403226,
268,0,268,0,,,,,,,,,,,,,,,,,,,,,,,,,,,,,,,,,,1194.6683519999497,,1192.5137511999346,1192.5137511999346,1192.5137511999346,1192.5137511999346,old_stationery_14.png,269,4.0,2.156789700035006,,061,11,2025-03-25_17h01.01.457,Surprise recog test,2023.1.3,60.15160611403226,
269,0,269,0,,,,,,,,,,,,,,,,,,,,,,,,,,,,,,,,,,1197.374910700135,1198.3941508000717,1195.69006980001,1195.69006980001,1195.69006980001,1195.69006980001,old_sceneIn_8.png,270,5.0,1.6801253999583423,,061,11,2025-03-25_17h01.01.457,Surprise recog test,2023.1.3,60.15160611403226,
270,0,270,0,,,,,,,,,,,,,,,,,,,,,,,,,,,,,,,,,,1199.50183510012,1200.5181466001086,1198.3941508000717,1198.3941508000717,1198.3941508000717,1198.3941508000717,new_stationery_20.png,271,5.0,1.1021324000321329,,061,11,2025-03-25_17h01.01.457,Surprise recog test,2023.1.3,60.15160611403226,
271,0,271,0,,,,,,,,,,,,,,,,,,,,,,,,,,,,,,,,,,1201.1999882999808,1202.213182900101,1200.5181466001086,1200.5181466001086,1200.5181466001086,1200.5181466001086,old_sceneOut_28.png,272,5.0,0.6792853998485953,,061,11,2025-03-25_17h01.01.457,Surprise recog test,2023.1.3,60.15160611403226,
272,0,272,0,,,,,,,,,,,,,,,,,,,,,,,,,,,,,,,,,,1202.9460040000267,1203.976788500091,1202.213182900101,1202.213182900101,1202.213182900101,1202.213182900101,new_sceneIn_39.png,273,5.0,0.7265566999558359,,061,11,2025-03-25_17h01.01.457,Surprise recog test,2023.1.3,60.15160611403226,
273,0,273,0,,,,,,,,,,,,,,,,,,,,,,,,,,,,,,,,,,1206.1833460000344,1207.2112801000476,1203.976788500091,1203.976788500091,1203.976788500091,1203.976788500091,old_fruit_7.png,274,1.0,2.2072879001498222,,061,11,2025-03-25_17h01.01.457,Surprise recog test,2023.1.3,60.15160611403226,
274,0,274,0,,,,,,,,,,,,,,,,,,,,,,,,,,,,,,,,,,1209.0470545999706,,1207.2112801000476,1207.2112801000476,1207.2112801000476,1207.2112801000476,old_sceneIn_15.png,275,5.0,1.8287066998891532,,061,11,2025-03-25_17h01.01.457,Surprise recog test,2023.1.3,60.15160611403226,
275,0,275,0,,,,,,,,,,,,,,,,,,,,,,,,,,,,,,,,,,1210.8625380999874,1211.8675866001286,1210.0800989000127,1210.0800989000127,1210.0800989000127,1210.0800989000127,old_stationery_50.png,276,5.0,0.7847178999800235,,061,11,2025-03-25_17h01.01.457,Surprise recog test,2023.1.3,60.15160611403226,
276,0,276,0,,,,,,,,,,,,,,,,,,,,,,,,,,,,,,,,,,1212.4926309001166,1213.5204362999648,1211.8675866001286,1211.8675866001286,1211.8675866001286,1211.8675866001286,new_sceneIn_9.png,277,5.0,0.6213901001028717,,061,11,2025-03-25_17h01.01.457,Surprise recog test,2023.1.3,60.15160611403226,
277,0,277,0,,,,,,,,,,,,,,,,,,,,,,,,,,,,,,,,,,1214.1390120999422,1215.1692761001177,1213.5204362999648,1213.5204362999648,1213.5204362999648,1213.5204362999648,old_sceneOut_10.png,278,5.0,0.621066200081259,,061,11,2025-03-25_17h01.01.457,Surprise recog test,2023.1.3,60.15160611403226,
278,0,278,0,,,,,,,,,,,,,,,,,,,,,,,,,,,,,,,,,,1216.050338699948,1217.0721577999648,1215.1692761001177,1215.1692761001177,1215.1692761001177,1215.1692761001177,new_stationery_21.png,279,5.0,0.8829493999946862,,061,11,2025-03-25_17h01.01.457,Surprise recog test,2023.1.3,60.15160611403226,
279,0,279,0,,,,,,,,,,,,,,,,,,,,,,,,,,,,,,,,,,1218.197058300022,1219.2068135999143,1217.0721577999648,1217.0721577999648,1217.0721577999648,1217.0721577999648,old_sceneOut_40.png,280,5.0,1.1273785000666976,,061,11,2025-03-25_17h01.01.457,Surprise recog test,2023.1.3,60.15160611403226,
280,0,280,0,,,,,,,,,,,,,,,,,,,,,,,,,,,,,,,,,,1219.9139084999915,1220.940486599924,1219.2068135999143,1219.2068135999143,1219.2068135999143,1219.2068135999143,new_stationery_30.png,281,5.0,0.7031988999806345,,061,11,2025-03-25_17h01.01.457,Surprise recog test,2023.1.3,60.15160611403226,
281,0,281,0,,,,,,,,,,,,,,,,,,,,,,,,,,,,,,,,,,1221.5726556999143,1222.5798738000449,1220.940486599924,1220.940486599924,1220.940486599924,1220.940486599924,old_sceneOut_7.png,282,5.0,0.634252900024876,,061,11,2025-03-25_17h01.01.457,Surprise recog test,2023.1.3,60.15160611403226,
282,0,282,0,,,,,,,,,,,,,,,,,,,,,,,,,,,,,,,,,,1224.6086132999044,1225.6286754000466,1222.5798738000449,1222.5798738000449,1222.5798738000449,1222.5798738000449,old_fruit_43.png,283,2.0,2.024620500160381,,061,11,2025-03-25_17h01.01.457,Surprise recog test,2023.1.3,60.15160611403226,
283,0,283,0,,,,,,,,,,,,,,,,,,,,,,,,,,,,,,,,,,1227.2731101999525,1228.2909176999237,1225.6286754000466,1225.6286754000466,1225.6286754000466,1225.6286754000466,new_sceneOut_10.png,284,5.0,1.6477129000704736,,061,11,2025-03-25_17h01.01.457,Surprise recog test,2023.1.3,60.15160611403226,
284,0,284,0,,,,,,,,,,,,,,,,,,,,,,,,,,,,,,,,,,1228.9755434999242,1230.0014089001343,1228.2909176999237,1228.2909176999237,1228.2909176999237,1228.2909176999237,new_sceneOut_3.png,285,5.0,0.6842493999283761,,061,11,2025-03-25_17h01.01.457,Surprise recog test,2023.1.3,60.15160611403226,
285,0,285,0,,,,,,,,,,,,,,,,,,,,,,,,,,,,,,,,,,1231.0514793000184,1232.087692100089,1230.0014089001343,1230.0014089001343,1230.0014089001343,1230.0014089001343,new_sceneIn_41.png,286,5.0,1.050434400094673,,061,11,2025-03-25_17h01.01.457,Surprise recog test,2023.1.3,60.15160611403226,
286,0,286,0,,,,,,,,,,,,,,,,,,,,,,,,,,,,,,,,,,1234.5311312000267,1235.5501051999163,1232.087692100089,1232.087692100089,1232.087692100089,1232.087692100089,old_stationery_44.png,287,3.0,2.443572400137782,,061,11,2025-03-25_17h01.01.457,Surprise recog test,2023.1.3,60.15160611403226,
287,0,287,0,,,,,,,,,,,,,,,,,,,,,,,,,,,,,,,,,,1237.6872910999227,,1235.5501051999163,1235.5501051999163,1235.5501051999163,1235.5501051999163,old_sceneOut_25.png,288,5.0,2.1355698998086154,,061,11,2025-03-25_17h01.01.457,Surprise recog test,2023.1.3,60.15160611403226,
288,0,288,0,,,,,,,,,,,,,,,,,,,,,,,,,,,,,,,,,,1240.6161038000137,1241.625457199989,1238.7105465999339,1238.7105465999339,1238.7105465999339,1238.7105465999339,new_fruit_18.png,289,1.0,1.9014304999727756,,061,11,2025-03-25_17h01.01.457,Surprise recog test,2023.1.3,60.15160611403226,
289,0,289,0,,,,,,,,,,,,,,,,,,,,,,,,,,,,,,,,,,1243.5068807001226,1244.5272051000502,1241.625457199989,1241.625457199989,1241.625457199989,1241.625457199989,old_stationery_47.png,290,4.0,1.8758413000032306,,061,11,2025-03-25_17h01.01.457,Surprise recog test,2023.1.3,60.15160611403226,
290,0,290,0,,,,,,,,,,,,,,,,,,,,,,,,,,,,,,,,,,1246.5413474999368,1247.5635913999286,1244.5272051000502,1244.5272051000502,1244.5272051000502,1244.5272051000502,old_stationery_6.png,291,5.0,2.0160846998915076,,061,11,2025-03-25_17h01.01.457,Surprise recog test,2023.1.3,60.15160611403226,
291,0,291,0,,,,,,,,,,,,,,,,,,,,,,,,,,,,,,,,,,1248.7052108000498,1249.7312656000722,1247.5635913999286,1247.5635913999286,1247.5635913999286,1247.5635913999286,old_stationery_15.png,292,5.0,1.1434118000324816,,061,11,2025-03-25_17h01.01.457,Surprise recog test,2023.1.3,60.15160611403226,
292,0,292,0,,,,,,,,,,,,,,,,,,,,,,,,,,,,,,,,,,1250.4528519001324,1251.4793819999322,1249.7312656000722,1249.7312656000722,1249.7312656000722,1249.7312656000722,old_sceneOut_32.png,293,5.0,0.7235313998535275,,061,11,2025-03-25_17h01.01.457,Surprise recog test,2023.1.3,60.15160611403226,
293,0,293,0,,,,,,,,,,,,,,,,,,,,,,,,,,,,,,,,,,1252.1884949000087,1253.2079690000974,1251.4793819999322,1251.4793819999322,1251.4793819999322,1251.4793819999322,new_sceneOut_26.png,294,5.0,0.7108169000130147,,061,11,2025-03-25_17h01.01.457,Surprise recog test,2023.1.3,60.15160611403226,
294,0,294,0,,,,,,,,,,,,,,,,,,,,,,,,,,,,,,,,,,1253.8567150000017,1254.8776819000486,1253.2079690000974,1253.2079690000974,1253.2079690000974,1253.2079690000974,new_sceneIn_46.png,295,5.0,0.6460307999514043,,061,11,2025-03-25_17h01.01.457,Surprise recog test,2023.1.3,60.15160611403226,
295,0,295,0,,,,,,,,,,,,,,,,,,,,,,,,,,,,,,,,,,1255.4748279000632,1256.5034127999097,1254.8776819000486,1254.8776819000486,1254.8776819000486,1254.8776819000486,old_sceneOut_8.png,296,5.0,0.5939381998032331,,061,11,2025-03-25_17h01.01.457,Surprise recog test,2023.1.3,60.15160611403226,
296,0,296,0,,,,,,,,,,,,,,,,,,,,,,,,,,,,,,,,,,1258.8951576999389,1259.9086657001171,1256.5034127999097,1256.5034127999097,1256.5034127999097,1256.5034127999097,old_stationery_48.png,297,3.0,2.393312499858439,,061,11,2025-03-25_17h01.01.457,Surprise recog test,2023.1.3,60.15160611403226,
297,0,297,0,,,,,,,,,,,,,,,,,,,,,,,,,,,,,,,,,,1261.2383479999844,1262.2581668000203,1259.9086657001171,1259.9086657001171,1259.9086657001171,1259.9086657001171,old_fruit_24.png,298,1.0,1.3200222000014037,,061,11,2025-03-25_17h01.01.457,Surprise recog test,2023.1.3,60.15160611403226,
298,0,298,0,,,,,,,,,,,,,,,,,,,,,,,,,,,,,,,,,,1264.237082600128,1265.2496154000983,1262.2581668000203,1262.2581668000203,1262.2581668000203,1262.2581668000203,old_stationery_26.png,299,2.0,1.9802888000849634,,061,11,2025-03-25_17h01.01.457,Surprise recog test,2023.1.3,60.15160611403226,
299,0,299,0,,,,,,,,,,,,,,,,,,,,,,,,,,,,,,,,,,1267.076595599996,1268.0971866999753,1265.2496154000983,1265.2496154000983,1265.2496154000983,1265.2496154000983,old_stationery_5.png,300,4.0,1.8208521001506597,,061,11,2025-03-25_17h01.01.457,Surprise recog test,2023.1.3,60.15160611403226,
300,0,300,0,,,,,,,,,,,,,,,,,,,,,,,,,,,,,,,,,,1270.0985008000862,,1268.0971866999753,1268.0971866999753,1268.0971866999753,1268.0971866999753,new_fruit_37.png,301,1.0,2.00092830020003,,061,11,2025-03-25_17h01.01.457,Surprise recog test,2023.1.3,60.15160611403226,
301,0,301,0,,,,,,,,,,,,,,,,,,,,,,,,,,,,,,,,,,1273.0332557999063,1274.0564747001044,1271.1202919001225,1271.1202919001225,1271.1202919001225,1271.1202919001225,old_sceneOut_4.png,302,5.0,1.9081321000121534,,061,11,2025-03-25_17h01.01.457,Surprise recog test,2023.1.3,60.15160611403226,
302,0,302,0,,,,,,,,,,,,,,,,,,,,,,,,,,,,,,,,,,1274.8018457000144,,1274.0564747001044,1274.0564747001044,1274.0564747001044,1274.0564747001044,old_stationery_32.png,303,5.0,0.7489440999925137,,061,11,2025-03-25_17h01.01.457,Surprise recog test,2023.1.3,60.15160611403226,
303,0,303,0,,,,,,,,,,,,,,,,,,,,,,,,,,,,,,,,,,1277.0975896001328,1278.1213068000507,1275.837508900091,1275.837508900091,1275.837508900091,1275.837508900091,new_sceneIn_30.png,304,5.0,1.2640716000460088,,061,11,2025-03-25_17h01.01.457,Surprise recog test,2023.1.3,60.15160611403226,
304,0,304,0,,,,,,,,,,,,,,,,,,,,,,,,,,,,,,,,,,1278.8449872001074,1279.861656300025,1278.1213068000507,1278.1213068000507,1278.1213068000507,1278.1213068000507,old_sceneIn_43.png,305,5.0,0.7251024001743644,,061,11,2025-03-25_17h01.01.457,Surprise recog test,2023.1.3,60.15160611403226,
305,0,305,0,,,,,,,,,,,,,,,,,,,,,,,,,,,,,,,,,,1282.0750561999157,,1279.861656300025,1279.861656300025,1279.861656300025,1279.861656300025,old_fruit_36.png,306,2.0,2.207719699945301,,061,11,2025-03-25_17h01.01.457,Surprise recog test,2023.1.3,60.15160611403226,
306,0,306,0,,,,,,,,,,,,,,,,,,,,,,,,,,,,,,,,,,1285.2981541000772,1286.3291307999752,1283.1080503999256,1283.1080503999256,1283.1080503999256,1283.1080503999256,new_stationery_31.png,307,4.0,2.189802500186488,,061,11,2025-03-25_17h01.01.457,Surprise recog test,2023.1.3,60.15160611403226,
307,0,307,0,,,,,,,,,,,,,,,,,,,,,,,,,,,,,,,,,,1288.2902259000111,1289.302401300054,1286.3291307999752,1286.3291307999752,1286.3291307999752,1286.3291307999752,old_fruit_32.png,308,1.0,1.9609614999499172,,061,11,2025-03-25_17h01.01.457,Surprise recog test,2023.1.3,60.15160611403226,
308,0,308,0,,,,,,,,,,,,,,,,,,,,,,,,,,,,,,,,,,1291.1895747000817,1292.205327700125,1289.302401300054,1289.302401300054,1289.302401300054,1289.302401300054,old_sceneOut_2.png,309,5.0,1.8829814000055194,,061,11,2025-03-25_17h01.01.457,Surprise recog test,2023.1.3,60.15160611403226,
309,0,309,0,,,,,,,,,,,,,,,,,,,,,,,,,,,,,,,,,,1294.63694570004,,1292.205327700125,1292.205327700125,1292.205327700125,1292.205327700125,new_fruit_21.png,310,3.0,2.4278768999502063,,061,11,2025-03-25_17h01.01.457,Surprise recog test,2023.1.3,60.15160611403226,
310,0,310,0,,,,,,,,,,,,,,,,,,,,,,,,,,,,,,,,,,1297.3420118000358,1298.3661269999575,1295.661911400035,1295.661911400035,1295.661911400035,1295.661911400035,new_stationery_3.png,311,5.0,1.680242900038138,,061,11,2025-03-25_17h01.01.457,Surprise recog test,2023.1.3,60.15160611403226,
311,0,311,0,,,,,,,,,,,,,,,,,,,,,,,,,,,,,,,,,,1299.3046403001063,1300.3256330001168,1298.3661269999575,1298.3661269999575,1298.3661269999575,1298.3661269999575,old_sceneIn_5.png,312,5.0,0.9365421999245882,,061,11,2025-03-25_17h01.01.457,Surprise recog test,2023.1.3,60.15160611403226,
312,0,312,0,,,,,,,,,,,,,,,,,,,,,,,,,,,,,,,,,,1301.121618000092,1302.1374141001143,1300.3256330001168,1300.3256330001168,1300.3256330001168,1300.3256330001168,new_sceneOut_23.png,313,5.0,0.7965245000086725,,061,11,2025-03-25_17h01.01.457,Surprise recog test,2023.1.3,60.15160611403226,
313,0,313,0,,,,,,,,,,,,,,,,,,,,,,,,,,,,,,,,,,1303.1696194999386,1304.1815492000896,1302.1374141001143,1302.1374141001143,1302.1374141001143,1302.1374141001143,old_stationery_45.png,314,5.0,1.030211400007829,,061,11,2025-03-25_17h01.01.457,Surprise recog test,2023.1.3,60.15160611403226,
314,0,314,0,,,,,,,,,,,,,,,,,,,,,,,,,,,,,,,,,,1306.1211105999537,1307.1403586999513,1304.1815492000896,1304.1815492000896,1304.1815492000896,1304.1815492000896,old_fruit_30.png,315,1.0,1.9362341999076307,,061,11,2025-03-25_17h01.01.457,Surprise recog test,2023.1.3,60.15160611403226,
315,0,315,0,,,,,,,,,,,,,,,,,,,,,,,,,,,,,,,,,,1310.080378399929,1311.1002344000153,1307.1403586999513,1307.1403586999513,1307.1403586999513,1307.1403586999513,old_stationery_39.png,316,5.0,2.9360531999263912,,061,11,2025-03-25_17h01.01.457,Surprise recog test,2023.1.3,60.15160611403226,
316,0,316,0,,,,,,,,,,,,,,,,,,,,,,,,,,,,,,,,,,1312.7653995000292,1313.7838665000163,1311.1002344000153,1311.1002344000153,1311.1002344000153,1311.1002344000153,new_sceneOut_36.png,317,5.0,1.6662916000932455,,061,11,2025-03-25_17h01.01.457,Surprise recog test,2023.1.3,60.15160611403226,
317,0,317,0,,,,,,,,,,,,,,,,,,,,,,,,,,,,,,,,,,1314.5070658000186,1315.5392046000343,1313.7838665000163,1313.7838665000163,1313.7838665000163,1313.7838665000163,old_sceneOut_39.png,318,5.0,0.7221442998852581,,061,11,2025-03-25_17h01.01.457,Surprise recog test,2023.1.3,60.15160611403226,
318,0,318,0,,,,,,,,,,,,,,,,,,,,,,,,,,,,,,,,,,1316.7526404999662,1317.7676458000205,1315.5392046000343,1315.5392046000343,1315.5392046000343,1315.5392046000343,old_sceneIn_29.png,319,5.0,1.2160660000517964,,061,11,2025-03-25_17h01.01.457,Surprise recog test,2023.1.3,60.15160611403226,
319,0,319,0,,,,,,,,,,,,,,,,,,,,,,,,,,,,,,,,,,1319.8537721000612,1320.861521099927,1317.7676458000205,1317.7676458000205,1317.7676458000205,1317.7676458000205,old_fruit_16.png,320,2.0,2.076869999989867,,061,11,2025-03-25_17h01.01.457,Surprise recog test,2023.1.3,60.15160611403226,
320,0,320,0,,,,,,,,,,,,,,,,,,,,,,,,,,,,,,,,,,1322.58304710011,1323.6116860001348,1320.861521099927,1320.861521099927,1320.861521099927,1320.861521099927,new_sceneIn_5.png,321,5.0,1.7171128999907523,,061,11,2025-03-25_17h01.01.457,Surprise recog test,2023.1.3,60.15160611403226,
321,0,321,0,,,,,,,,,,,,,,,,,,,,,,,,,,,,,,,,,,1324.245206499938,,1323.6116860001348,1323.6116860001348,1323.6116860001348,1323.6116860001348,new_sceneIn_47.png,322,5.0,0.6364348998758942,,061,11,2025-03-25_17h01.01.457,Surprise recog test,2023.1.3,60.15160611403226,
322,0,322,0,,,,,,,,,,,,,,,,,,,,,,,,,,,,,,,,,,1325.9555476999376,1326.9799206999596,1325.2784053001087,1325.2784053001087,1325.2784053001087,1325.2784053001087,old_sceneOut_47.png,323,5.0,0.6767666998784989,,061,11,2025-03-25_17h01.01.457,Surprise recog test,2023.1.3,60.15160611403226,
323,0,323,0,,,,,,,,,,,,,,,,,,,,,,,,,,,,,,,,,,1327.547847900074,,1326.9799206999596,1326.9799206999596,1326.9799206999596,1326.9799206999596,new_sceneIn_16.png,324,5.0,0.5636465998832136,,061,11,2025-03-25_17h01.01.457,Surprise recog test,2023.1.3,60.15160611403226,
324,0,324,0,,,,,,,,,,,,,,,,,,,,,,,,,,,,,,,,,,1329.3946172001306,1330.4159959000535,1328.5800705000293,1328.5800705000293,1328.5800705000293,1328.5800705000293,old_sceneIn_27.png,325,5.0,0.8161901999264956,,061,11,2025-03-25_17h01.01.457,Surprise recog test,2023.1.3,60.15160611403226,
325,0,325,0,,,,,,,,,,,,,,,,,,,,,,,,,,,,,,,,,,1332.4824053000193,1333.502034300007,1330.4159959000535,1330.4159959000535,1330.4159959000535,1330.4159959000535,new_fruit_9.png,326,2.0,2.0660828000400215,,061,11,2025-03-25_17h01.01.457,Surprise recog test,2023.1.3,60.15160611403226,
326,0,326,0,,,,,,,,,,,,,,,,,,,,,,,,,,,,,,,,,,1335.5931911000516,1336.608501000097,1333.502034300007,1333.502034300007,1333.502034300007,1333.502034300007,new_stationery_9.png,327,3.0,2.0933443000540137,,061,11,2025-03-25_17h01.01.457,Surprise recog test,2023.1.3,60.15160611403226,
327,0,327,0,,,,,,,,,,,,,,,,,,,,,,,,,,,,,,,,,,1337.9815340000205,1339.002583600115,1336.608501000097,1336.608501000097,1336.608501000097,1336.608501000097,old_sceneIn_39.png,328,5.0,1.3689631999004632,,061,11,2025-03-25_17h01.01.457,Surprise recog test,2023.1.3,60.15160611403226,
328,0,328,0,,,,,,,,,,,,,,,,,,,,,,,,,,,,,,,,,,1339.4711758000776,1340.4909800000023,1339.002583600115,1339.002583600115,1339.002583600115,1339.002583600115,new_sceneOut_1.png,329,5.0,0.4705308999400586,,061,11,2025-03-25_17h01.01.457,Surprise recog test,2023.1.3,60.15160611403226,
329,0,329,0,,,,,,,,,,,,,,,,,,,,,,,,,,,,,,,,,,1342.4588262999896,,1340.4909800000023,1340.4909800000023,1340.4909800000023,1340.4909800000023,old_fruit_5.png,330,2.0,1.970972100039944,,061,11,2025-03-25_17h01.01.457,Surprise recog test,2023.1.3,60.15160611403226,
330,0,330,0,,,,,,,,,,,,,,,,,,,,,,,,,,,,,,,,,,1345.3133064000867,1346.3443583000917,1343.4881666,1343.4881666,1343.4881666,1343.4881666,old_fruit_23.png,331,1.0,1.8257324998266995,,061,11,2025-03-25_17h01.01.457,Surprise recog test,2023.1.3,60.15160611403226,
331,0,331,0,,,,,,,,,,,,,,,,,,,,,,,,,,,,,,,,,,1348.328062799992,1349.3481364999898,1346.3443583000917,1346.3443583000917,1346.3443583000917,1346.3443583000917,old_fruit_17.png,332,2.0,1.975825000088662,,061,11,2025-03-25_17h01.01.457,Surprise recog test,2023.1.3,60.15160611403226,
332,0,332,0,,,,,,,,,,,,,,,,,,,,,,,,,,,,,,,,,,1351.2209689000156,1352.251794999931,1349.3481364999898,1349.3481364999898,1349.3481364999898,1349.3481364999898,old_sceneIn_4.png,333,5.0,1.8727531000040472,,061,11,2025-03-25_17h01.01.457,Surprise recog test,2023.1.3,60.15160611403226,
333,0,333,0,,,,,,,,,,,,,,,,,,,,,,,,,,,,,,,,,,1353.0197415999137,1354.0389882000163,1352.251794999931,1352.251794999931,1352.251794999931,1352.251794999931,new_stationery_22.png,334,5.0,0.7712282999418676,,061,11,2025-03-25_17h01.01.457,Surprise recog test,2023.1.3,60.15160611403226,
334,0,334,0,,,,,,,,,,,,,,,,,,,,,,,,,,,,,,,,,,1355.7889777000528,1356.8203312999103,1354.0389882000163,1354.0389882000163,1354.0389882000163,1354.0389882000163,new_fruit_22.png,335,3.0,1.745968900155276,,061,11,2025-03-25_17h01.01.457,Surprise recog test,2023.1.3,60.15160611403226,
335,0,335,0,,,,,,,,,,,,,,,,,,,,,,,,,,,,,,,,,,1359.559972899966,1360.5904691999312,1356.8203312999103,1356.8203312999103,1356.8203312999103,1356.8203312999103,old_stationery_41.png,336,4.0,2.740512700052932,,061,11,2025-03-25_17h01.01.457,Surprise recog test,2023.1.3,60.15160611403226,
336,0,336,0,,,,,,,,,,,,,,,,,,,,,,,,,,,,,,,,,,1362.8569732001051,1363.867755400017,1360.5904691999312,1360.5904691999312,1360.5904691999312,1360.5904691999312,new_fruit_10.png,337,5.0,2.2699472000822425,,061,11,2025-03-25_17h01.01.457,Surprise recog test,2023.1.3,60.15160611403226,
337,0,337,0,,,,,,,,,,,,,,,,,,,,,,,,,,,,,,,,,,1364.6080569000915,1365.6260951000731,1363.867755400017,1363.867755400017,1363.867755400017,1363.867755400017,new_stationery_16.png,338,5.0,0.7408002000302076,,061,11,2025-03-25_17h01.01.457,Surprise recog test,2023.1.3,60.15160611403226,
338,0,338,0,,,,,,,,,,,,,,,,,,,,,,,,,,,,,,,,,,1366.460217700107,1367.482705600094,1365.6260951000731,1365.6260951000731,1365.6260951000731,1365.6260951000731,new_sceneOut_15.png,339,5.0,0.8310742999892682,,061,11,2025-03-25_17h01.01.457,Surprise recog test,2023.1.3,60.15160611403226,
339,0,339,0,,,,,,,,,,,,,,,,,,,,,,,,,,,,,,,,,,1368.0384565999266,1369.0641016999725,1367.482705600094,1367.482705600094,1367.482705600094,1367.482705600094,new_sceneIn_26.png,340,5.0,0.5580982000101358,,061,11,2025-03-25_17h01.01.457,Surprise recog test,2023.1.3,60.15160611403226,
340,0,340,0,,,,,,,,,,,,,,,,,,,,,,,,,,,,,,,,,,1371.5771465001162,1372.60358240013,1369.0641016999725,1369.0641016999725,1369.0641016999725,1369.0641016999725,old_fruit_28.png,341,1.0,2.5153348001185805,,061,11,2025-03-25_17h01.01.457,Surprise recog test,2023.1.3,60.15160611403226,
341,0,341,0,,,,,,,,,,,,,,,,,,,,,,,,,,,,,,,,,,1374.4996956000105,1375.5092889000662,1372.60358240013,1372.60358240013,1372.60358240013,1372.60358240013,old_fruit_44.png,342,2.0,1.8997397001367062,,061,11,2025-03-25_17h01.01.457,Surprise recog test,2023.1.3,60.15160611403226,
342,0,342,0,,,,,,,,,,,,,,,,,,,,,,,,,,,,,,,,,,1377.0790486999322,1378.0896171000786,1375.5092889000662,1375.5092889000662,1375.5092889000662,1375.5092889000662,new_sceneOut_11.png,343,5.0,1.565237999893725,,061,11,2025-03-25_17h01.01.457,Surprise recog test,2023.1.3,60.15160611403226,
343,0,343,0,,,,,,,,,,,,,,,,,,,,,,,,,,,,,,,,,,1378.811743899947,1379.837918800069,1378.0896171000786,1378.0896171000786,1378.0896171000786,1378.0896171000786,old_stationery_11.png,344,5.0,0.7181748999282718,,061,11,2025-03-25_17h01.01.457,Surprise recog test,2023.1.3,60.15160611403226,
344,0,344,0,,,,,,,,,,,,,,,,,,,,,,,,,,,,,,,,,,1380.5120000001043,1381.53842170001,1379.837918800069,1379.837918800069,1379.837918800069,1379.837918800069,old_sceneOut_33.png,345,5.0,0.6736647000070661,,061,11,2025-03-25_17h01.01.457,Surprise recog test,2023.1.3,60.15160611403226,
345,0,345,0,,,,,,,,,,,,,,,,,,,,,,,,,,,,,,,,,,1384.1738595999777,1385.1896490999497,1381.53842170001,1381.53842170001,1381.53842170001,1381.53842170001,new_stationery_23.png,346,3.0,2.633722700178623,,061,11,2025-03-25_17h01.01.457,Surprise recog test,2023.1.3,60.15160611403226,
346,0,346,0,,,,,,,,,,,,,,,,,,,,,,,,,,,,,,,,,,1386.6817240000237,1387.7148790999781,1385.1896490999497,1385.1896490999497,1385.1896490999497,1385.1896490999497,new_stationery_14.png,347,4.0,1.4903082998935133,,061,11,2025-03-25_17h01.01.457,Surprise recog test,2023.1.3,60.15160611403226,
347,0,347,0,,,,,,,,,,,,,,,,,,,,,,,,,,,,,,,,,,1389.0315294999164,,1387.7148790999781,1387.7148790999781,1387.7148790999781,1387.7148790999781,old_sceneIn_3.png,348,5.0,1.3194808999542147,,061,11,2025-03-25_17h01.01.457,Surprise recog test,2023.1.3,60.15160611403226,
348,0,348,0,,,,,,,,,,,,,,,,,,,,,,,,,,,,,,,,,,1391.900625300128,,1390.0523322999943,1390.0523322999943,1390.0523322999943,1390.0523322999943,new_fruit_46.png,349,2.0,1.8444866999052465,,061,11,2025-03-25_17h01.01.457,Surprise recog test,2023.1.3,60.15160611403226,
349,0,349,0,,,,,,,,,,,,,,,,,,,,,,,,,,,,,,,,,,1394.550273800036,1395.5728408000432,1392.9334132999647,1392.9334132999647,1392.9334132999647,1392.9334132999647,old_sceneOut_24.png,350,5.0,1.6191633001435548,,061,11,2025-03-25_17h01.01.457,Surprise recog test,2023.1.3,60.15160611403226,
350,0,350,0,,,,,,,,,,,,,,,,,,,,,,,,,,,,,,,,,,1397.8099273999687,1398.825587700121,1395.5728408000432,1395.5728408000432,1395.5728408000432,1395.5728408000432,old_stationery_36.png,351,3.0,2.236352200154215,,061,11,2025-03-25_17h01.01.457,Surprise recog test,2023.1.3,60.15160611403226,
351,0,351,0,,,,,,,,,,,,,,,,,,,,,,,,,,,,,,,,,,1400.4992132999469,1401.5272355000488,1398.825587700121,1398.825587700121,1398.825587700121,1398.825587700121,old_stationery_10.png,352,5.0,1.6695578000508249,,061,11,2025-03-25_17h01.01.457,Surprise recog test,2023.1.3,60.15160611403226,
352,0,352,0,,,,,,,,,,,,,,,,,,,,,,,,,,,,,,,,,,1402.9652949001174,1403.9816960000899,1401.5272355000488,1401.5272355000488,1401.5272355000488,1401.5272355000488,new_sceneIn_19.png,353,5.0,1.4407870001159608,,061,11,2025-03-25_17h01.01.457,Surprise recog test,2023.1.3,60.15160611403226,
353,0,353,0,,,,,,,,,,,,,,,,,,,,,,,,,,,,,,,,,,1405.2469999000896,1406.2726606999058,1403.9816960000899,1403.9816960000899,1403.9816960000899,1403.9816960000899,old_sceneIn_45.png,354,5.0,1.2613671000581235,,061,11,2025-03-25_17h01.01.457,Surprise recog test,2023.1.3,60.15160611403226,
