trial_loop.thisRepN,trial_loop.thisTrialN,trial_loop.thisN,trial_loop.thisIndex,VAS_slider.started,VAS_text.started,VAS_notstressed_text.started,VAS_stressed_text.started,continue_input.started,continue_text.started,label0.started,label10.started,label20.started,label30.started,label40.started,label50.started,label60.started,label70.started,label80.started,label90.started,label100.started,VAS_slider.response,VAS_slider.rt,VAS_slider.history,Answer_VAS,continue_input.keys,instruction_text.started,continue_text_2.started,continue_input_2.started,continue_input_2.keys,continue_input_2.rt,continue_input_2.duration,example_text.started,example_slider_2.started,example_image.started,example_slider_2.response,example_slider_2.rt,fixcross.started,fixcross.stopped,front_square.started,stim_images.started,trial_inst_images.started,slider_images.started,slider_images.stopped,thisImg,trial_count,slider_images.response,slider_images.rt,outro.started,participant,condition,date,expName,psychopyVersion,frameRate,
,,,,783.8430315000005,783.8430315000005,783.8430315000005,783.8430315000005,783.8430315000005,783.8430315000005,783.8430315000005,783.8430315000005,783.8430315000005,783.8430315000005,783.8430315000005,783.8430315000005,783.8430315000005,783.8430315000005,783.8430315000005,783.8430315000005,783.8430315000005,3.005555555555555,36.231817099964246,"[(3.005555555555555, 36.231817099964246)]",3.005555555555555,None,,,,,,,,,,,,,,,,,,,,,,,,062,01,2025-03-20_14h02.18.808,Surprise recog test,2023.1.3,59.995164422770365,
,,,,,,,,,,,,,,,,,,,,,,,,,,820.1143768001348,820.1143768001348,820.1143768001348,space,22.076979500008747,None,,,,,,,,,,,,,,,,,,062,01,2025-03-20_14h02.18.808,Surprise recog test,2023.1.3,59.995164422770365,
0,0,0,0,,,,,,,,,,,,,,,,,,,,,,,,,,,,,842.3229235999752,842.3229235999752,842.3229235999752,5.0,7.132604299811646,855.3947284999304,850.4048689999618,850.4048689999618,850.4048689999618,850.4048689999618,850.4048689999618,855.3795620999299,old_fruit_15.png,1,None,None,,062,01,2025-03-20_14h02.18.808,Surprise recog test,2023.1.3,59.995164422770365,
1,0,1,0,,,,,,,,,,,,,,,,,,,,,,,,,,,,,,,,,,860.0820858001243,861.087239400018,856.3998951001558,856.3998951001558,856.3998951001558,856.3998951001558,,new_sceneOut_39.png,2,3.0,3.6738418999593705,,062,01,2025-03-20_14h02.18.808,Surprise recog test,2023.1.3,59.995164422770365,
2,0,2,0,,,,,,,,,,,,,,,,,,,,,,,,,,,,,,,,,,864.1855944001582,865.1899906999897,861.087239400018,861.087239400018,861.087239400018,861.087239400018,,old_sceneIn_10.png,3,1.0,3.08916710014455,,062,01,2025-03-20_14h02.18.808,Surprise recog test,2023.1.3,59.995164422770365,
3,0,3,0,,,,,,,,,,,,,,,,,,,,,,,,,,,,,,,,,,867.7217719999608,868.7261139000766,865.1899906999897,865.1899906999897,865.1899906999897,865.1899906999897,,new_stationery_33.png,4,5.0,2.5210484999697655,,062,01,2025-03-20_14h02.18.808,Surprise recog test,2023.1.3,59.995164422770365,
4,0,4,0,,,,,,,,,,,,,,,,,,,,,,,,,,,,,,,,,,870.8411757000722,871.8471441001166,868.7261139000766,868.7261139000766,868.7261139000766,868.7261139000766,,new_stationery_9.png,5,1.0,2.104065999854356,,062,01,2025-03-20_14h02.18.808,Surprise recog test,2023.1.3,59.995164422770365,
5,0,5,0,,,,,,,,,,,,,,,,,,,,,,,,,,,,,,,,,,873.8768802001141,874.8842241000384,871.8471441001166,871.8471441001166,871.8471441001166,871.8471441001166,,new_stationery_13.png,6,3.0,2.020204999949783,,062,01,2025-03-20_14h02.18.808,Surprise recog test,2023.1.3,59.995164422770365,
6,0,6,0,,,,,,,,,,,,,,,,,,,,,,,,,,,,,,,,,,877.3299068999477,878.3380273999646,874.8842241000384,874.8842241000384,874.8842241000384,874.8842241000384,,new_sceneIn_35.png,7,4.0,2.441856399876997,,062,01,2025-03-20_14h02.18.808,Surprise recog test,2023.1.3,59.995164422770365,
7,0,7,0,,,,,,,,,,,,,,,,,,,,,,,,,,,,,,,,,,879.7361824000254,,878.3380273999646,878.3380273999646,878.3380273999646,878.3380273999646,,new_sceneIn_47.png,8,4.0,1.3924160001333803,,062,01,2025-03-20_14h02.18.808,Surprise recog test,2023.1.3,59.995164422770365,
8,0,8,0,,,,,,,,,,,,,,,,,,,,,,,,,,,,,,,,,,882.4549346000422,,880.7556982000824,880.7556982000824,880.7556982000824,880.7556982000824,,old_sceneOut_2.png,9,2.0,1.6926291000563651,,062,01,2025-03-20_14h02.18.808,Surprise recog test,2023.1.3,59.995164422770365,
9,0,9,0,,,,,,,,,,,,,,,,,,,,,,,,,,,,,,,,,,885.141922699986,886.1574438000098,883.4875173000619,883.4875173000619,883.4875173000619,883.4875173000619,,old_sceneIn_36.png,10,5.0,1.6569360999856144,,062,01,2025-03-20_14h02.18.808,Surprise recog test,2023.1.3,59.995164422770365,
10,0,10,0,,,,,,,,,,,,,,,,,,,,,,,,,,,,,,,,,,887.8397248999681,888.8551120001357,886.1574438000098,886.1574438000098,886.1574438000098,886.1574438000098,,old_stationery_13.png,11,1.0,1.677901600021869,,062,01,2025-03-20_14h02.18.808,Surprise recog test,2023.1.3,59.995164422770365,
11,0,11,0,,,,,,,,,,,,,,,,,,,,,,,,,,,,,,,,,,890.535459500039,891.5594178999308,888.8551120001357,888.8551120001357,888.8551120001357,888.8551120001357,,new_stationery_3.png,12,3.0,1.6811120000202209,,062,01,2025-03-20_14h02.18.808,Surprise recog test,2023.1.3,59.995164422770365,
12,0,12,0,,,,,,,,,,,,,,,,,,,,,,,,,,,,,,,,,,893.2169625000097,894.243321100017,891.5594178999308,891.5594178999308,891.5594178999308,891.5594178999308,,old_sceneIn_26.png,13,4.0,1.6591597001533955,,062,01,2025-03-20_14h02.18.808,Surprise recog test,2023.1.3,59.995164422770365,
13,0,13,0,,,,,,,,,,,,,,,,,,,,,,,,,,,,,,,,,,895.6562405999284,896.6779813000467,894.243321100017,894.243321100017,894.243321100017,894.243321100017,,new_sceneIn_26.png,14,1.0,1.4098576998803765,,062,01,2025-03-20_14h02.18.808,Surprise recog test,2023.1.3,59.995164422770365,
14,0,14,0,,,,,,,,,,,,,,,,,,,,,,,,,,,,,,,,,,898.7237770999782,899.7404006000143,896.6779813000467,896.6779813000467,896.6779813000467,896.6779813000467,,new_fruit_9.png,15,2.0,2.0501993999350816,,062,01,2025-03-20_14h02.18.808,Surprise recog test,2023.1.3,59.995164422770365,
15,0,15,0,,,,,,,,,,,,,,,,,,,,,,,,,,,,,,,,,,900.9007188000251,901.9072780001443,899.7404006000143,899.7404006000143,899.7404006000143,899.7404006000143,,new_sceneOut_19.png,16,1.0,1.1571184999775141,,062,01,2025-03-20_14h02.18.808,Surprise recog test,2023.1.3,59.995164422770365,
16,0,16,0,,,,,,,,,,,,,,,,,,,,,,,,,,,,,,,,,,903.5609530999791,904.5764840999618,901.9072780001443,901.9072780001443,901.9072780001443,901.9072780001443,,new_sceneIn_39.png,17,3.0,1.6487023998051882,,062,01,2025-03-20_14h02.18.808,Surprise recog test,2023.1.3,59.995164422770365,
17,0,17,0,,,,,,,,,,,,,,,,,,,,,,,,,,,,,,,,,,906.0226168001536,,904.5764840999618,904.5764840999618,904.5764840999618,904.5764840999618,,new_fruit_10.png,18,4.0,1.442261700052768,,062,01,2025-03-20_14h02.18.808,Surprise recog test,2023.1.3,59.995164422770365,
18,0,18,0,,,,,,,,,,,,,,,,,,,,,,,,,,,,,,,,,,908.2807879999746,909.3070533999708,907.0451648000162,907.0451648000162,907.0451648000162,907.0451648000162,,new_stationery_30.png,19,4.0,1.231524399947375,,062,01,2025-03-20_14h02.18.808,Surprise recog test,2023.1.3,59.995164422770365,
19,0,19,0,,,,,,,,,,,,,,,,,,,,,,,,,,,,,,,,,,911.0373100999277,912.0496068999637,909.3070533999708,909.3070533999708,909.3070533999708,909.3070533999708,,old_sceneOut_1.png,20,5.0,1.7307639000937343,,062,01,2025-03-20_14h02.18.808,Surprise recog test,2023.1.3,59.995164422770365,
20,0,20,0,,,,,,,,,,,,,,,,,,,,,,,,,,,,,,,,,,914.1491028000601,915.1826677001081,912.0496068999637,912.0496068999637,912.0496068999637,912.0496068999637,,new_fruit_27.png,21,3.0,2.094699499895796,,062,01,2025-03-20_14h02.18.808,Surprise recog test,2023.1.3,59.995164422770365,
21,0,21,0,,,,,,,,,,,,,,,,,,,,,,,,,,,,,,,,,,916.414832000155,,915.1826677001081,915.1826677001081,915.1826677001081,915.1826677001081,,new_sceneIn_14.png,22,3.0,1.2320173000916839,,062,01,2025-03-20_14h02.18.808,Surprise recog test,2023.1.3,59.995164422770365,
22,0,22,0,,,,,,,,,,,,,,,,,,,,,,,,,,,,,,,,,,918.7326126999687,919.7489179000258,917.4493030000012,917.4493030000012,917.4493030000012,917.4493030000012,,old_stationery_23.png,23,1.0,1.2856270000338554,,062,01,2025-03-20_14h02.18.808,Surprise recog test,2023.1.3,59.995164422770365,
23,0,23,0,,,,,,,,,,,,,,,,,,,,,,,,,,,,,,,,,,921.2509866000619,922.2581156000961,919.7489179000258,919.7489179000258,919.7489179000258,919.7489179000258,,old_sceneOut_41.png,24,1.0,1.4988977999892086,,062,01,2025-03-20_14h02.18.808,Surprise recog test,2023.1.3,59.995164422770365,
24,0,24,0,,,,,,,,,,,,,,,,,,,,,,,,,,,,,,,,,,924.2258020001464,925.2468710001558,922.2581156000961,922.2581156000961,922.2581156000961,922.2581156000961,,new_sceneOut_44.png,25,3.0,1.9637347999960184,,062,01,2025-03-20_14h02.18.808,Surprise recog test,2023.1.3,59.995164422770365,
25,0,25,0,,,,,,,,,,,,,,,,,,,,,,,,,,,,,,,,,,926.7877339001279,927.7969579999335,925.2468710001558,925.2468710001558,925.2468710001558,925.2468710001558,,new_sceneIn_41.png,26,4.0,1.5400958999525756,,062,01,2025-03-20_14h02.18.808,Surprise recog test,2023.1.3,59.995164422770365,
26,0,26,0,,,,,,,,,,,,,,,,,,,,,,,,,,,,,,,,,,929.0085638000164,,927.7969579999335,927.7969579999335,927.7969579999335,927.7969579999335,,new_fruit_6.png,27,2.0,1.2056710999459028,,062,01,2025-03-20_14h02.18.808,Surprise recog test,2023.1.3,59.995164422770365,
27,0,27,0,,,,,,,,,,,,,,,,,,,,,,,,,,,,,,,,,,931.1761769999284,932.1969078001566,930.0300441000145,930.0300441000145,930.0300441000145,930.0300441000145,,old_sceneOut_38.png,28,5.0,1.1395851001143456,,062,01,2025-03-20_14h02.18.808,Surprise recog test,2023.1.3,59.995164422770365,
28,0,28,0,,,,,,,,,,,,,,,,,,,,,,,,,,,,,,,,,,934.2308867000975,,932.1969078001566,932.1969078001566,932.1969078001566,932.1969078001566,,new_stationery_42.png,29,5.0,2.037925199838355,,062,01,2025-03-20_14h02.18.808,Surprise recog test,2023.1.3,59.995164422770365,
29,0,29,0,,,,,,,,,,,,,,,,,,,,,,,,,,,,,,,,,,937.5687331000809,938.599211800145,935.2517876999918,935.2517876999918,935.2517876999918,935.2517876999918,,new_sceneOut_43.png,30,3.0,2.312393300002441,,062,01,2025-03-20_14h02.18.808,Surprise recog test,2023.1.3,59.995164422770365,
30,0,30,0,,,,,,,,,,,,,,,,,,,,,,,,,,,,,,,,,,939.6797681001481,940.698673899984,938.599211800145,938.599211800145,938.599211800145,938.599211800145,,old_sceneIn_22.png,31,3.0,1.081577300094068,,062,01,2025-03-20_14h02.18.808,Surprise recog test,2023.1.3,59.995164422770365,
31,0,31,0,,,,,,,,,,,,,,,,,,,,,,,,,,,,,,,,,,941.9383738001343,942.9748265000526,940.698673899984,940.698673899984,940.698673899984,940.698673899984,,new_sceneOut_26.png,32,2.0,1.2387784000020474,,062,01,2025-03-20_14h02.18.808,Surprise recog test,2023.1.3,59.995164422770365,
32,0,32,0,,,,,,,,,,,,,,,,,,,,,,,,,,,,,,,,,,944.1126323000062,945.1352955999319,942.9748265000526,942.9748265000526,942.9748265000526,942.9748265000526,,old_fruit_11.png,33,1.0,1.138028500135988,,062,01,2025-03-20_14h02.18.808,Surprise recog test,2023.1.3,59.995164422770365,
33,0,33,0,,,,,,,,,,,,,,,,,,,,,,,,,,,,,,,,,,946.4409320000559,,945.1352955999319,945.1352955999319,945.1352955999319,945.1352955999319,,new_stationery_44.png,34,4.0,1.3047152000945061,,062,01,2025-03-20_14h02.18.808,Surprise recog test,2023.1.3,59.995164422770365,
34,0,34,0,,,,,,,,,,,,,,,,,,,,,,,,,,,,,,,,,,948.8119260000531,949.8406408000737,947.4617008999921,947.4617008999921,947.4617008999921,947.4617008999921,,old_sceneOut_31.png,35,4.0,1.3453529998660088,,062,01,2025-03-20_14h02.18.808,Surprise recog test,2023.1.3,59.995164422770365,
35,0,35,0,,,,,,,,,,,,,,,,,,,,,,,,,,,,,,,,,,951.2505864000414,952.2652299001347,949.8406408000737,949.8406408000737,949.8406408000737,949.8406408000737,,old_sceneOut_19.png,36,3.0,1.4121274999342859,,062,01,2025-03-20_14h02.18.808,Surprise recog test,2023.1.3,59.995164422770365,
36,0,36,0,,,,,,,,,,,,,,,,,,,,,,,,,,,,,,,,,,953.4115699001122,954.4292164000217,952.2652299001347,952.2652299001347,952.2652299001347,952.2652299001347,,old_fruit_49.png,37,2.0,1.1385685000568628,,062,01,2025-03-20_14h02.18.808,Surprise recog test,2023.1.3,59.995164422770365,
37,0,37,0,,,,,,,,,,,,,,,,,,,,,,,,,,,,,,,,,,956.4962377999909,957.5036353000905,954.4292164000217,954.4292164000217,954.4292164000217,954.4292164000217,,old_sceneIn_24.png,38,4.0,2.0684773998800665,,062,01,2025-03-20_14h02.18.808,Surprise recog test,2023.1.3,59.995164422770365,
38,0,38,0,,,,,,,,,,,,,,,,,,,,,,,,,,,,,,,,,,958.5301328999922,959.5499673001468,957.5036353000905,957.5036353000905,957.5036353000905,957.5036353000905,,new_stationery_29.png,39,5.0,1.0213026001583785,,062,01,2025-03-20_14h02.18.808,Surprise recog test,2023.1.3,59.995164422770365,
39,0,39,0,,,,,,,,,,,,,,,,,,,,,,,,,,,,,,,,,,961.216347400099,962.2379405000247,959.5499673001468,959.5499673001468,959.5499673001468,959.5499673001468,,old_fruit_32.png,40,3.0,1.6608752999454737,,062,01,2025-03-20_14h02.18.808,Surprise recog test,2023.1.3,59.995164422770365,
40,0,40,0,,,,,,,,,,,,,,,,,,,,,,,,,,,,,,,,,,963.8729664999992,,962.2379405000247,962.2379405000247,962.2379405000247,962.2379405000247,,old_sceneIn_43.png,41,4.0,1.6366077000275254,,062,01,2025-03-20_14h02.18.808,Surprise recog test,2023.1.3,59.995164422770365,
41,0,41,0,,,,,,,,,,,,,,,,,,,,,,,,,,,,,,,,,,965.8777751000598,966.9052381000947,964.9020126999822,964.9020126999822,964.9020126999822,964.9020126999822,,new_sceneOut_22.png,42,4.0,0.9742019001860172,,062,01,2025-03-20_14h02.18.808,Surprise recog test,2023.1.3,59.995164422770365,
42,0,42,0,,,,,,,,,,,,,,,,,,,,,,,,,,,,,,,,,,967.9606620999984,968.9822205000091,966.9052381000947,966.9052381000947,966.9052381000947,966.9052381000947,,old_fruit_47.png,43,1.0,1.0560695000458509,,062,01,2025-03-20_14h02.18.808,Surprise recog test,2023.1.3,59.995164422770365,
43,0,43,0,,,,,,,,,,,,,,,,,,,,,,,,,,,,,,,,,,969.9664888000116,970.9813968001399,968.9822205000091,968.9822205000091,968.9822205000091,968.9822205000091,,new_fruit_22.png,44,2.0,0.980310499900952,,062,01,2025-03-20_14h02.18.808,Surprise recog test,2023.1.3,59.995164422770365,
44,0,44,0,,,,,,,,,,,,,,,,,,,,,,,,,,,,,,,,,,972.067253800109,973.0984390999656,970.9813968001399,970.9813968001399,970.9813968001399,970.9813968001399,,old_fruit_3.png,45,1.0,1.081347200088203,,062,01,2025-03-20_14h02.18.808,Surprise recog test,2023.1.3,59.995164422770365,
45,0,45,0,,,,,,,,,,,,,,,,,,,,,,,,,,,,,,,,,,974.4654097999446,975.4966708000284,973.0984390999656,973.0984390999656,973.0984390999656,973.0984390999656,,old_sceneOut_44.png,46,4.0,1.3686201001983136,,062,01,2025-03-20_14h02.18.808,Surprise recog test,2023.1.3,59.995164422770365,
46,0,46,0,,,,,,,,,,,,,,,,,,,,,,,,,,,,,,,,,,977.1795942001045,978.2059814000968,975.4966708000284,975.4966708000284,975.4966708000284,975.4966708000284,,new_stationery_17.png,47,4.0,1.679913300089538,,062,01,2025-03-20_14h02.18.808,Surprise recog test,2023.1.3,59.995164422770365,
47,0,47,0,,,,,,,,,,,,,,,,,,,,,,,,,,,,,,,,,,979.331041000085,980.3393991999328,978.2059814000968,978.2059814000968,978.2059814000968,978.2059814000968,,old_sceneOut_26.png,48,2.0,1.128597900038585,,062,01,2025-03-20_14h02.18.808,Surprise recog test,2023.1.3,59.995164422770365,
48,0,48,0,,,,,,,,,,,,,,,,,,,,,,,,,,,,,,,,,,982.6275552001316,983.6388718001544,980.3393991999328,980.3393991999328,980.3393991999328,980.3393991999328,,old_sceneOut_37.png,49,2.0,2.2815558000002056,,062,01,2025-03-20_14h02.18.808,Surprise recog test,2023.1.3,59.995164422770365,
49,0,49,0,,,,,,,,,,,,,,,,,,,,,,,,,,,,,,,,,,985.9534932000097,986.9580949000083,983.6388718001544,983.6388718001544,983.6388718001544,983.6388718001544,,new_stationery_34.png,50,3.0,2.307507200166583,,062,01,2025-03-20_14h02.18.808,Surprise recog test,2023.1.3,59.995164422770365,
50,0,50,0,,,,,,,,,,,,,,,,,,,,,,,,,,,,,,,,,,988.6145022001583,989.6423502999824,986.9580949000083,986.9580949000083,986.9580949000083,986.9580949000083,,old_fruit_21.png,51,4.0,1.6499562000390142,,062,01,2025-03-20_14h02.18.808,Surprise recog test,2023.1.3,59.995164422770365,
51,0,51,0,,,,,,,,,,,,,,,,,,,,,,,,,,,,,,,,,,991.2977911999915,992.3325581001118,989.6423502999824,989.6423502999824,989.6423502999824,989.6423502999824,,old_sceneOut_17.png,52,2.0,1.6571756000630558,,062,01,2025-03-20_14h02.18.808,Surprise recog test,2023.1.3,59.995164422770365,
52,0,52,0,,,,,,,,,,,,,,,,,,,,,,,,,,,,,,,,,,993.9611103001516,994.9662304001395,992.3325581001118,992.3325581001118,992.3325581001118,992.3325581001118,,old_fruit_29.png,53,1.0,1.6284963998477906,,062,01,2025-03-20_14h02.18.808,Surprise recog test,2023.1.3,59.995164422770365,
53,0,53,0,,,,,,,,,,,,,,,,,,,,,,,,,,,,,,,,,,996.2175442001317,997.2414035000838,994.9662304001395,994.9662304001395,994.9662304001395,994.9662304001395,,old_sceneIn_23.png,54,5.0,1.2472719000652432,,062,01,2025-03-20_14h02.18.808,Surprise recog test,2023.1.3,59.995164422770365,
54,0,54,0,,,,,,,,,,,,,,,,,,,,,,,,,,,,,,,,,,999.1476831999607,1000.1558395000175,997.2414035000838,997.2414035000838,997.2414035000838,997.2414035000838,,new_fruit_47.png,55,4.0,1.9067448999267071,,062,01,2025-03-20_14h02.18.808,Surprise recog test,2023.1.3,59.995164422770365,
55,0,55,0,,,,,,,,,,,,,,,,,,,,,,,,,,,,,,,,,,1001.6601607999764,1002.6890944000334,1000.1558395000175,1000.1558395000175,1000.1558395000175,1000.1558395000175,,old_stationery_21.png,56,1.0,1.5003661999944597,,062,01,2025-03-20_14h02.18.808,Surprise recog test,2023.1.3,59.995164422770365,
56,0,56,0,,,,,,,,,,,,,,,,,,,,,,,,,,,,,,,,,,1003.9959480001125,1005.0162097001448,1002.6890944000334,1002.6890944000334,1002.6890944000334,1002.6890944000334,,new_sceneIn_36.png,57,4.0,1.30796859995462,,062,01,2025-03-20_14h02.18.808,Surprise recog test,2023.1.3,59.995164422770365,
57,0,57,0,,,,,,,,,,,,,,,,,,,,,,,,,,,,,,,,,,1006.3924306000117,1007.4126011999324,1005.0162097001448,1005.0162097001448,1005.0162097001448,1005.0162097001448,,old_stationery_28.png,58,1.0,1.3772640000097454,,062,01,2025-03-20_14h02.18.808,Surprise recog test,2023.1.3,59.995164422770365,
58,0,58,0,,,,,,,,,,,,,,,,,,,,,,,,,,,,,,,,,,1009.5564218000509,1010.5735400000121,1007.4126011999324,1007.4126011999324,1007.4126011999324,1007.4126011999324,,new_stationery_1.png,59,3.0,2.133084800094366,,062,01,2025-03-20_14h02.18.808,Surprise recog test,2023.1.3,59.995164422770365,
59,0,59,0,,,,,,,,,,,,,,,,,,,,,,,,,,,,,,,,,,1012.2801541001536,,1010.5735400000121,1010.5735400000121,1010.5735400000121,1010.5735400000121,,new_stationery_20.png,60,4.0,1.706292900023982,,062,01,2025-03-20_14h02.18.808,Surprise recog test,2023.1.3,59.995164422770365,
60,0,60,0,,,,,,,,,,,,,,,,,,,,,,,,,,,,,,,,,,1014.3545300001279,1015.3852109999862,1013.3159258000087,1013.3159258000087,1013.3159258000087,1013.3159258000087,,old_stationery_14.png,61,1.0,1.0393850000109524,,062,01,2025-03-20_14h02.18.808,Surprise recog test,2023.1.3,59.995164422770365,
61,0,61,0,,,,,,,,,,,,,,,,,,,,,,,,,,,,,,,,,,1016.5532152000815,1017.5824015000835,1015.3852109999862,1015.3852109999862,1015.3852109999862,1015.3852109999862,,new_sceneIn_42.png,62,4.0,1.1724010000471026,,062,01,2025-03-20_14h02.18.808,Surprise recog test,2023.1.3,59.995164422770365,
62,0,62,0,,,,,,,,,,,,,,,,,,,,,,,,,,,,,,,,,,1018.6649404999334,1019.6892361999489,1017.5824015000835,1017.5824015000835,1017.5824015000835,1017.5824015000835,,new_stationery_50.png,63,4.0,1.0843706999439746,,062,01,2025-03-20_14h02.18.808,Surprise recog test,2023.1.3,59.995164422770365,
63,0,63,0,,,,,,,,,,,,,,,,,,,,,,,,,,,,,,,,,,1020.3577423000243,1021.3884246000089,1019.6892361999489,1019.6892361999489,1019.6892361999489,1019.6892361999489,,new_sceneOut_17.png,64,4.0,0.6732663000002503,,062,01,2025-03-20_14h02.18.808,Surprise recog test,2023.1.3,59.995164422770365,
64,0,64,0,,,,,,,,,,,,,,,,,,,,,,,,,,,,,,,,,,1022.2133037000895,1023.2377969999798,1021.3884246000089,1021.3884246000089,1021.3884246000089,1021.3884246000089,,new_sceneOut_4.png,65,4.0,0.8278077999129891,,062,01,2025-03-20_14h02.18.808,Surprise recog test,2023.1.3,59.995164422770365,
65,0,65,0,,,,,,,,,,,,,,,,,,,,,,,,,,,,,,,,,,1024.2751285000704,1025.304435200058,1023.2377969999798,1023.2377969999798,1023.2377969999798,1023.2377969999798,,old_fruit_36.png,66,2.0,1.0402604001574218,,062,01,2025-03-20_14h02.18.808,Surprise recog test,2023.1.3,59.995164422770365,
66,0,66,0,,,,,,,,,,,,,,,,,,,,,,,,,,,,,,,,,,1027.3431782999542,1028.3730286001228,1025.304435200058,1025.304435200058,1025.304435200058,1025.304435200058,,old_fruit_1.png,67,4.0,2.041139499982819,,062,01,2025-03-20_14h02.18.808,Surprise recog test,2023.1.3,59.995164422770365,
67,0,67,0,,,,,,,,,,,,,,,,,,,,,,,,,,,,,,,,,,1029.3398653999902,1030.359007500112,1028.3730286001228,1028.3730286001228,1028.3730286001228,1028.3730286001228,,old_fruit_12.png,68,2.0,0.9669041000306606,,062,01,2025-03-20_14h02.18.808,Surprise recog test,2023.1.3,59.995164422770365,
68,0,68,0,,,,,,,,,,,,,,,,,,,,,,,,,,,,,,,,,,1031.4197782999836,1032.4290809000377,1030.359007500112,1030.359007500112,1030.359007500112,1030.359007500112,,old_sceneIn_8.png,69,5.0,1.062546500004828,,062,01,2025-03-20_14h02.18.808,Surprise recog test,2023.1.3,59.995164422770365,
69,0,69,0,,,,,,,,,,,,,,,,,,,,,,,,,,,,,,,,,,1033.4849996999837,1034.5017903000116,1032.4290809000377,1032.4290809000377,1032.4290809000377,1032.4290809000377,,old_stationery_15.png,70,1.0,1.051913799950853,,062,01,2025-03-20_14h02.18.808,Surprise recog test,2023.1.3,59.995164422770365,
70,0,70,0,,,,,,,,,,,,,,,,,,,,,,,,,,,,,,,,,,1036.4279438001104,1037.4379849999677,1034.5017903000116,1034.5017903000116,1034.5017903000116,1034.5017903000116,,old_sceneOut_49.png,71,3.0,1.921182599849999,,062,01,2025-03-20_14h02.18.808,Surprise recog test,2023.1.3,59.995164422770365,
71,0,71,0,,,,,,,,,,,,,,,,,,,,,,,,,,,,,,,,,,1038.2449696999975,1039.2616749000736,1037.4379849999677,1037.4379849999677,1037.4379849999677,1037.4379849999677,,new_sceneOut_36.png,72,3.0,0.8027425999753177,,062,01,2025-03-20_14h02.18.808,Surprise recog test,2023.1.3,59.995164422770365,
72,0,72,0,,,,,,,,,,,,,,,,,,,,,,,,,,,,,,,,,,1041.9319589999504,1042.9528045000043,1039.2616749000736,1039.2616749000736,1039.2616749000736,1039.2616749000736,,new_sceneIn_10.png,73,3.0,2.6703653999138623,,062,01,2025-03-20_14h02.18.808,Surprise recog test,2023.1.3,59.995164422770365,
73,0,73,0,,,,,,,,,,,,,,,,,,,,,,,,,,,,,,,,,,1044.2576695000753,1045.2867695000023,1042.9528045000043,1042.9528045000043,1042.9528045000043,1042.9528045000043,,new_sceneOut_40.png,74,3.0,1.3072070002090186,,062,01,2025-03-20_14h02.18.808,Surprise recog test,2023.1.3,59.995164422770365,
74,0,74,0,,,,,,,,,,,,,,,,,,,,,,,,,,,,,,,,,,1046.5375576999504,1047.5539849000052,1045.2867695000023,1045.2867695000023,1045.2867695000023,1045.2867695000023,,old_sceneIn_27.png,75,1.0,1.250028199981898,,062,01,2025-03-20_14h02.18.808,Surprise recog test,2023.1.3,59.995164422770365,
75,0,75,0,,,,,,,,,,,,,,,,,,,,,,,,,,,,,,,,,,1049.974628600059,1050.984589900123,1047.5539849000052,1047.5539849000052,1047.5539849000052,1047.5539849000052,,new_stationery_37.png,76,4.0,2.421741900034249,,062,01,2025-03-20_14h02.18.808,Surprise recog test,2023.1.3,59.995164422770365,
76,0,76,0,,,,,,,,,,,,,,,,,,,,,,,,,,,,,,,,,,1052.292532700114,1053.3025112999603,1050.984589900123,1050.984589900123,1050.984589900123,1050.984589900123,,old_sceneOut_10.png,77,3.0,1.305043299915269,,062,01,2025-03-20_14h02.18.808,Surprise recog test,2023.1.3,59.995164422770365,
77,0,77,0,,,,,,,,,,,,,,,,,,,,,,,,,,,,,,,,,,1055.8378399000503,1056.8617611001246,1053.3025112999603,1053.3025112999603,1053.3025112999603,1053.3025112999603,,new_stationery_31.png,78,2.0,2.5311997001990676,,062,01,2025-03-20_14h02.18.808,Surprise recog test,2023.1.3,59.995164422770365,
78,0,78,0,,,,,,,,,,,,,,,,,,,,,,,,,,,,,,,,,,1059.3107902000193,1060.320687700063,1056.8617611001246,1056.8617611001246,1056.8617611001246,1056.8617611001246,,new_fruit_21.png,79,1.0,2.4493180999998003,,062,01,2025-03-20_14h02.18.808,Surprise recog test,2023.1.3,59.995164422770365,
79,0,79,0,,,,,,,,,,,,,,,,,,,,,,,,,,,,,,,,,,1062.010256000096,1063.0372355999425,1060.320687700063,1060.320687700063,1060.320687700063,1060.320687700063,,old_stationery_40.png,80,1.0,1.6856753001920879,,062,01,2025-03-20_14h02.18.808,Surprise recog test,2023.1.3,59.995164422770365,
80,0,80,0,,,,,,,,,,,,,,,,,,,,,,,,,,,,,,,,,,1064.4522794000804,1065.4662655999418,1063.0372355999425,1063.0372355999425,1063.0372355999425,1063.0372355999425,,new_fruit_2.png,81,1.0,1.410043900134042,,062,01,2025-03-20_14h02.18.808,Surprise recog test,2023.1.3,59.995164422770365,
81,0,81,0,,,,,,,,,,,,,,,,,,,,,,,,,,,,,,,,,,1067.2035892999265,1068.2285283000674,1065.4662655999418,1065.4662655999418,1065.4662655999418,1065.4662655999418,,new_stationery_23.png,82,1.0,1.7374850001651794,,062,01,2025-03-20_14h02.18.808,Surprise recog test,2023.1.3,59.995164422770365,
82,0,82,0,,,,,,,,,,,,,,,,,,,,,,,,,,,,,,,,,,1069.6740476000123,1070.6816488001496,1068.2285283000674,1068.2285283000674,1068.2285283000674,1068.2285283000674,,new_sceneOut_50.png,83,1.0,1.4475251999683678,,062,01,2025-03-20_14h02.18.808,Surprise recog test,2023.1.3,59.995164422770365,
83,0,83,0,,,,,,,,,,,,,,,,,,,,,,,,,,,,,,,,,,1073.0034018000588,1074.0305584999733,1070.6816488001496,1070.6816488001496,1070.6816488001496,1070.6816488001496,,new_sceneOut_42.png,84,2.0,2.317865499993786,,062,01,2025-03-20_14h02.18.808,Surprise recog test,2023.1.3,59.995164422770365,
84,0,84,0,,,,,,,,,,,,,,,,,,,,,,,,,,,,,,,,,,1076.566809100099,,1074.0305584999733,1074.0305584999733,1074.0305584999733,1074.0305584999733,,old_fruit_25.png,85,3.0,2.5381781000178307,,062,01,2025-03-20_14h02.18.808,Surprise recog test,2023.1.3,59.995164422770365,
85,0,85,0,,,,,,,,,,,,,,,,,,,,,,,,,,,,,,,,,,1080.7455603999551,1081.769162000157,1077.5865502001252,1077.5865502001252,1077.5865502001252,1077.5865502001252,,old_fruit_18.png,86,1.0,3.1528505000751466,,062,01,2025-03-20_14h02.18.808,Surprise recog test,2023.1.3,59.995164422770365,
86,0,86,0,,,,,,,,,,,,,,,,,,,,,,,,,,,,,,,,,,1084.148476399947,1085.1565533000976,1081.769162000157,1081.769162000157,1081.769162000157,1081.769162000157,,old_fruit_26.png,87,1.0,2.381982099963352,,062,01,2025-03-20_14h02.18.808,Surprise recog test,2023.1.3,59.995164422770365,
87,0,87,0,,,,,,,,,,,,,,,,,,,,,,,,,,,,,,,,,,1088.5783840001095,1089.6056456000078,1085.1565533000976,1085.1565533000976,1085.1565533000976,1085.1565533000976,,new_sceneOut_33.png,88,2.0,3.41672969982028,,062,01,2025-03-20_14h02.18.808,Surprise recog test,2023.1.3,59.995164422770365,
88,0,88,0,,,,,,,,,,,,,,,,,,,,,,,,,,,,,,,,,,1091.306137500098,1092.3269005001057,1089.6056456000078,1089.6056456000078,1089.6056456000078,1089.6056456000078,,old_fruit_41.png,89,3.0,1.6990666999481618,,062,01,2025-03-20_14h02.18.808,Surprise recog test,2023.1.3,59.995164422770365,
89,0,89,0,,,,,,,,,,,,,,,,,,,,,,,,,,,,,,,,,,1097.1866789001506,1098.2244194999803,1092.3269005001057,1092.3269005001057,1092.3269005001057,1092.3269005001057,,new_fruit_31.png,90,2.0,4.861582200042903,,062,01,2025-03-20_14h02.18.808,Surprise recog test,2023.1.3,59.995164422770365,
90,0,90,0,,,,,,,,,,,,,,,,,,,,,,,,,,,,,,,,,,1102.6957974999677,1103.7228739000857,1098.2244194999803,1098.2244194999803,1098.2244194999803,1098.2244194999803,,new_sceneIn_15.png,91,3.0,4.47489900002256,,062,01,2025-03-20_14h02.18.808,Surprise recog test,2023.1.3,59.995164422770365,
91,0,91,0,,,,,,,,,,,,,,,,,,,,,,,,,,,,,,,,,,1106.9642475000583,1107.9759842001367,1103.7228739000857,1103.7228739000857,1103.7228739000857,1103.7228739000857,,old_stationery_24.png,92,1.0,3.2445336000528187,,062,01,2025-03-20_14h02.18.808,Surprise recog test,2023.1.3,59.995164422770365,
92,0,92,0,,,,,,,,,,,,,,,,,,,,,,,,,,,,,,,,,,1110.4377639000304,1111.4595133999828,1107.9759842001367,1107.9759842001367,1107.9759842001367,1107.9759842001367,,old_fruit_30.png,93,1.0,2.4577872999943793,,062,01,2025-03-20_14h02.18.808,Surprise recog test,2023.1.3,59.995164422770365,
93,0,93,0,,,,,,,,,,,,,,,,,,,,,,,,,,,,,,,,,,1114.5432051001117,1115.5727504999377,1111.4595133999828,1111.4595133999828,1111.4595133999828,1111.4595133999828,,old_sceneIn_40.png,94,4.0,3.085826100083068,,062,01,2025-03-20_14h02.18.808,Surprise recog test,2023.1.3,59.995164422770365,
94,0,94,0,,,,,,,,,,,,,,,,,,,,,,,,,,,,,,,,,,1119.7394501001108,1120.7721188999712,1115.5727504999377,1115.5727504999377,1115.5727504999377,1115.5727504999377,,new_stationery_35.png,95,1.0,4.170035200193524,,062,01,2025-03-20_14h02.18.808,Surprise recog test,2023.1.3,59.995164422770365,
95,0,95,0,,,,,,,,,,,,,,,,,,,,,,,,,,,,,,,,,,1123.646541400114,1124.6725397999398,1120.7721188999712,1120.7721188999712,1120.7721188999712,1120.7721188999712,,old_sceneOut_21.png,96,3.0,2.8779752000700682,,062,01,2025-03-20_14h02.18.808,Surprise recog test,2023.1.3,59.995164422770365,
96,0,96,0,,,,,,,,,,,,,,,,,,,,,,,,,,,,,,,,,,1125.5705258999951,1126.590642800089,1124.6725397999398,1124.6725397999398,1124.6725397999398,1124.6725397999398,,old_sceneOut_40.png,97,3.0,0.8981059000361711,,062,01,2025-03-20_14h02.18.808,Surprise recog test,2023.1.3,59.995164422770365,
97,0,97,0,,,,,,,,,,,,,,,,,,,,,,,,,,,,,,,,,,1130.1332938999403,1131.1479736000765,1126.590642800089,1126.590642800089,1126.590642800089,1126.590642800089,,new_sceneOut_9.png,98,3.0,3.544155200012028,,062,01,2025-03-20_14h02.18.808,Surprise recog test,2023.1.3,59.995164422770365,
98,0,98,0,,,,,,,,,,,,,,,,,,,,,,,,,,,,,,,,,,1135.8700210000388,1136.8856887000147,1131.1479736000765,1131.1479736000765,1131.1479736000765,1131.1479736000765,,new_fruit_33.png,99,2.0,4.717716300161555,,062,01,2025-03-20_14h02.18.808,Surprise recog test,2023.1.3,59.995164422770365,
99,0,99,0,,,,,,,,,,,,,,,,,,,,,,,,,,,,,,,,,,1140.6428674999624,1141.6636421999428,1136.8856887000147,1136.8856887000147,1136.8856887000147,1136.8856887000147,,old_sceneIn_7.png,100,3.0,3.75241980003193,,062,01,2025-03-20_14h02.18.808,Surprise recog test,2023.1.3,59.995164422770365,
100,0,100,0,,,,,,,,,,,,,,,,,,,,,,,,,,,,,,,,,,1143.1829385000747,1144.2063146999571,1141.6636421999428,1141.6636421999428,1141.6636421999428,1141.6636421999428,,new_sceneIn_21.png,101,4.0,1.5205333000048995,,062,01,2025-03-20_14h02.18.808,Surprise recog test,2023.1.3,59.995164422770365,
101,0,101,0,,,,,,,,,,,,,,,,,,,,,,,,,,,,,,,,,,1147.4937446000986,1148.5241791999433,1144.2063146999571,1144.2063146999571,1144.2063146999571,1144.2063146999571,,new_fruit_42.png,102,2.0,3.2879582999739796,,062,01,2025-03-20_14h02.18.808,Surprise recog test,2023.1.3,59.995164422770365,
102,0,102,0,,,,,,,,,,,,,,,,,,,,,,,,,,,,,,,,,,1151.6214165999554,1152.6447012000717,1148.5241791999433,1148.5241791999433,1148.5241791999433,1148.5241791999433,,old_sceneOut_23.png,103,3.0,3.0959304000716656,,062,01,2025-03-20_14h02.18.808,Surprise recog test,2023.1.3,59.995164422770365,
103,0,103,0,,,,,,,,,,,,,,,,,,,,,,,,,,,,,,,,,,1157.6479708999395,,1152.6447012000717,1152.6447012000717,1152.6447012000717,1152.6447012000717,1157.6166769000702,old_sceneIn_13.png,104,None,None,,062,01,2025-03-20_14h02.18.808,Surprise recog test,2023.1.3,59.995164422770365,
104,0,104,0,,,,,,,,,,,,,,,,,,,,,,,,,,,,,,,,,,1161.2592011999805,1162.2820612001233,1158.665331199998,1158.665331199998,1158.665331199998,1158.665331199998,,new_sceneOut_12.png,105,3.0,2.5935356998816133,,062,01,2025-03-20_14h02.18.808,Surprise recog test,2023.1.3,59.995164422770365,
105,0,105,0,,,,,,,,,,,,,,,,,,,,,,,,,,,,,,,,,,1164.8703201001044,1165.8810004000552,1162.2820612001233,1162.2820612001233,1162.2820612001233,1162.2820612001233,,new_fruit_14.png,106,2.0,2.588970100041479,,062,01,2025-03-20_14h02.18.808,Surprise recog test,2023.1.3,59.995164422770365,
106,0,106,0,,,,,,,,,,,,,,,,,,,,,,,,,,,,,,,,,,1168.4401905999985,1169.460473800078,1165.8810004000552,1165.8810004000552,1165.8810004000552,1165.8810004000552,,old_fruit_10.png,107,4.0,2.558378100162372,,062,01,2025-03-20_14h02.18.808,Surprise recog test,2023.1.3,59.995164422770365,
107,0,107,0,,,,,,,,,,,,,,,,,,,,,,,,,,,,,,,,,,1171.741699000122,1172.7503911000676,1169.460473800078,1169.460473800078,1169.460473800078,1169.460473800078,,old_sceneIn_20.png,108,4.0,2.284906500019133,,062,01,2025-03-20_14h02.18.808,Surprise recog test,2023.1.3,59.995164422770365,
108,0,108,0,,,,,,,,,,,,,,,,,,,,,,,,,,,,,,,,,,1174.5014458999503,1175.5230004000477,1172.7503911000676,1172.7503911000676,1172.7503911000676,1172.7503911000676,,new_fruit_11.png,109,1.0,1.7458148999139667,,062,01,2025-03-20_14h02.18.808,Surprise recog test,2023.1.3,59.995164422770365,
109,0,109,0,,,,,,,,,,,,,,,,,,,,,,,,,,,,,,,,,,1177.1566302999854,1178.1761001001578,1175.5230004000477,1175.5230004000477,1175.5230004000477,1175.5230004000477,,new_sceneOut_32.png,110,3.0,1.6337435999885201,,062,01,2025-03-20_14h02.18.808,Surprise recog test,2023.1.3,59.995164422770365,
110,0,110,0,,,,,,,,,,,,,,,,,,,,,,,,,,,,,,,,,,1180.6070348999929,1181.6345828999765,1178.1761001001578,1178.1761001001578,1178.1761001001578,1178.1761001001578,,old_stationery_4.png,111,1.0,2.4313332000747323,,062,01,2025-03-20_14h02.18.808,Surprise recog test,2023.1.3,59.995164422770365,
111,0,111,0,,,,,,,,,,,,,,,,,,,,,,,,,,,,,,,,,,1184.9125439999625,1185.9408551999368,1181.6345828999765,1181.6345828999765,1181.6345828999765,1181.6345828999765,,new_stationery_19.png,112,4.0,3.2777550001628697,,062,01,2025-03-20_14h02.18.808,Surprise recog test,2023.1.3,59.995164422770365,
112,0,112,0,,,,,,,,,,,,,,,,,,,,,,,,,,,,,,,,,,1187.533394600032,1188.559918800136,1185.9408551999368,1185.9408551999368,1185.9408551999368,1185.9408551999368,,new_sceneIn_22.png,113,4.0,1.5914226998575032,,062,01,2025-03-20_14h02.18.808,Surprise recog test,2023.1.3,59.995164422770365,
113,0,113,0,,,,,,,,,,,,,,,,,,,,,,,,,,,,,,,,,,1190.285585799953,1191.3122950000688,1188.559918800136,1188.559918800136,1188.559918800136,1188.559918800136,,old_sceneOut_32.png,114,3.0,1.7278951001353562,,062,01,2025-03-20_14h02.18.808,Surprise recog test,2023.1.3,59.995164422770365,
114,0,114,0,,,,,,,,,,,,,,,,,,,,,,,,,,,,,,,,,,1192.3875984000042,1193.4074524999596,1191.3122950000688,1191.3122950000688,1191.3122950000688,1191.3122950000688,,new_fruit_17.png,115,1.0,1.0767282999586314,,062,01,2025-03-20_14h02.18.808,Surprise recog test,2023.1.3,59.995164422770365,
115,0,115,0,,,,,,,,,,,,,,,,,,,,,,,,,,,,,,,,,,1195.1513422001153,1196.1693770999555,1193.4074524999596,1193.4074524999596,1193.4074524999596,1193.4074524999596,,new_fruit_5.png,116,3.0,1.7448045001365244,,062,01,2025-03-20_14h02.18.808,Surprise recog test,2023.1.3,59.995164422770365,
116,0,116,0,,,,,,,,,,,,,,,,,,,,,,,,,,,,,,,,,,1198.9117260000203,1199.9396719001234,1196.1693770999555,1196.1693770999555,1196.1693770999555,1196.1693770999555,,old_sceneOut_46.png,117,3.0,2.738253600196913,,062,01,2025-03-20_14h02.18.808,Surprise recog test,2023.1.3,59.995164422770365,
117,0,117,0,,,,,,,,,,,,,,,,,,,,,,,,,,,,,,,,,,1201.8699221001007,,1199.9396719001234,1199.9396719001234,1199.9396719001234,1199.9396719001234,,new_fruit_23.png,118,4.0,1.9332224999088794,,062,01,2025-03-20_14h02.18.808,Surprise recog test,2023.1.3,59.995164422770365,
118,0,118,0,,,,,,,,,,,,,,,,,,,,,,,,,,,,,,,,,,1204.819129300071,1205.840527500026,1202.8990323001053,1202.8990323001053,1202.8990323001053,1202.8990323001053,,new_sceneIn_46.png,119,3.0,1.9162384001538157,,062,01,2025-03-20_14h02.18.808,Surprise recog test,2023.1.3,59.995164422770365,
119,0,119,0,,,,,,,,,,,,,,,,,,,,,,,,,,,,,,,,,,1209.3529195999727,1210.3641745001078,1205.840527500026,1205.840527500026,1205.840527500026,1205.840527500026,,new_stationery_27.png,120,5.0,3.5139917000196874,,062,01,2025-03-20_14h02.18.808,Surprise recog test,2023.1.3,59.995164422770365,
120,0,120,0,,,,,,,,,,,,,,,,,,,,,,,,,,,,,,,,,,1211.4663988000248,1212.4805370001122,1210.3641745001078,1210.3641745001078,1210.3641745001078,1210.3641745001078,,new_sceneIn_16.png,121,5.0,1.0982661999296397,,062,01,2025-03-20_14h02.18.808,Surprise recog test,2023.1.3,59.995164422770365,
121,0,121,0,,,,,,,,,,,,,,,,,,,,,,,,,,,,,,,,,,1213.7508620999288,1214.7797870000359,1212.4805370001122,1212.4805370001122,1212.4805370001122,1212.4805370001122,,new_stationery_28.png,122,1.0,1.2660344000905752,,062,01,2025-03-20_14h02.18.808,Surprise recog test,2023.1.3,59.995164422770365,
122,0,122,0,,,,,,,,,,,,,,,,,,,,,,,,,,,,,,,,,,1216.2049645001534,1217.2326022000052,1214.7797870000359,1214.7797870000359,1214.7797870000359,1214.7797870000359,,old_fruit_42.png,123,2.0,1.4282955001108348,,062,01,2025-03-20_14h02.18.808,Surprise recog test,2023.1.3,59.995164422770365,
123,0,123,0,,,,,,,,,,,,,,,,,,,,,,,,,,,,,,,,,,1219.5569480999839,1220.585120700067,1217.2326022000052,1217.2326022000052,1217.2326022000052,1217.2326022000052,,old_fruit_44.png,124,1.0,2.32783200009726,,062,01,2025-03-20_14h02.18.808,Surprise recog test,2023.1.3,59.995164422770365,
124,0,124,0,,,,,,,,,,,,,,,,,,,,,,,,,,,,,,,,,,1222.6332452001516,1223.6415730000008,1220.585120700067,1220.585120700067,1220.585120700067,1220.585120700067,,new_sceneOut_41.png,125,3.0,2.0486604999750853,,062,01,2025-03-20_14h02.18.808,Surprise recog test,2023.1.3,59.995164422770365,
125,0,125,0,,,,,,,,,,,,,,,,,,,,,,,,,,,,,,,,,,1224.5188647999894,1225.537852199981,1223.6415730000008,1223.6415730000008,1223.6415730000008,1223.6415730000008,,old_sceneOut_12.png,126,3.0,0.8709102000575513,,062,01,2025-03-20_14h02.18.808,Surprise recog test,2023.1.3,59.995164422770365,
126,0,126,0,,,,,,,,,,,,,,,,,,,,,,,,,,,,,,,,,,1227.046936800005,1228.061533200089,1225.537852199981,1225.537852199981,1225.537852199981,1225.537852199981,,old_sceneOut_8.png,127,2.0,1.5108805000782013,,062,01,2025-03-20_14h02.18.808,Surprise recog test,2023.1.3,59.995164422770365,
127,0,127,0,,,,,,,,,,,,,,,,,,,,,,,,,,,,,,,,,,1230.1841023000889,1231.203890700126,1228.061533200089,1228.061533200089,1228.061533200089,1228.061533200089,,new_stationery_25.png,128,4.0,2.1171116000041366,,062,01,2025-03-20_14h02.18.808,Surprise recog test,2023.1.3,59.995164422770365,
128,0,128,0,,,,,,,,,,,,,,,,,,,,,,,,,,,,,,,,,,1233.1718415000942,1234.1848701001145,1231.203890700126,1231.203890700126,1231.203890700126,1231.203890700126,,new_sceneIn_20.png,129,2.0,1.967343800002709,,062,01,2025-03-20_14h02.18.808,Surprise recog test,2023.1.3,59.995164422770365,
129,0,129,0,,,,,,,,,,,,,,,,,,,,,,,,,,,,,,,,,,1235.620128700044,1236.6349097001366,1234.1848701001145,1234.1848701001145,1234.1848701001145,1234.1848701001145,,old_sceneOut_9.png,130,3.0,1.431182699976489,,062,01,2025-03-20_14h02.18.808,Surprise recog test,2023.1.3,59.995164422770365,
130,0,130,0,,,,,,,,,,,,,,,,,,,,,,,,,,,,,,,,,,1237.8814559001476,1238.9001714999322,1236.6349097001366,1236.6349097001366,1236.6349097001366,1236.6349097001366,,old_fruit_28.png,131,1.0,1.2420493999961764,,062,01,2025-03-20_14h02.18.808,Surprise recog test,2023.1.3,59.995164422770365,
131,0,131,0,,,,,,,,,,,,,,,,,,,,,,,,,,,,,,,,,,1240.0477070000488,1241.0562176001258,1238.9001714999322,1238.9001714999322,1238.9001714999322,1238.9001714999322,,new_fruit_25.png,132,1.0,1.148722399957478,,062,01,2025-03-20_14h02.18.808,Surprise recog test,2023.1.3,59.995164422770365,
132,0,132,0,,,,,,,,,,,,,,,,,,,,,,,,,,,,,,,,,,1242.7120387000032,1243.7324330999982,1241.0562176001258,1241.0562176001258,1241.0562176001258,1241.0562176001258,,new_fruit_41.png,133,2.0,1.6507349000312388,,062,01,2025-03-20_14h02.18.808,Surprise recog test,2023.1.3,59.995164422770365,
133,0,133,0,,,,,,,,,,,,,,,,,,,,,,,,,,,,,,,,,,1244.772967300145,,1243.7324330999982,1243.7324330999982,1243.7324330999982,1243.7324330999982,,old_stationery_37.png,134,1.0,1.0420373000670224,,062,01,2025-03-20_14h02.18.808,Surprise recog test,2023.1.3,59.995164422770365,
134,0,134,0,,,,,,,,,,,,,,,,,,,,,,,,,,,,,,,,,,1247.9190648000222,1248.9384330001194,1245.7931923000142,1245.7931923000142,1245.7931923000142,1245.7931923000142,,old_sceneIn_2.png,135,2.0,2.1216331999748945,,062,01,2025-03-20_14h02.18.808,Surprise recog test,2023.1.3,59.995164422770365,
135,0,135,0,,,,,,,,,,,,,,,,,,,,,,,,,,,,,,,,,,1250.1364810001105,1251.1651512000244,1248.9384330001194,1248.9384330001194,1248.9384330001194,1248.9384330001194,,old_sceneIn_15.png,136,4.0,1.199934700038284,,062,01,2025-03-20_14h02.18.808,Surprise recog test,2023.1.3,59.995164422770365,
136,0,136,0,,,,,,,,,,,,,,,,,,,,,,,,,,,,,,,,,,1252.4776794000063,,1251.1651512000244,1251.1651512000244,1251.1651512000244,1251.1651512000244,,new_sceneOut_47.png,137,4.0,1.312480099964887,,062,01,2025-03-20_14h02.18.808,Surprise recog test,2023.1.3,59.995164422770365,
137,0,137,0,,,,,,,,,,,,,,,,,,,,,,,,,,,,,,,,,,1255.1358046000823,1256.1663037999533,1253.4999124000315,1253.4999124000315,1253.4999124000315,1253.4999124000315,,new_stationery_11.png,138,1.0,1.631438400130719,,062,01,2025-03-20_14h02.18.808,Surprise recog test,2023.1.3,59.995164422770365,
138,0,138,0,,,,,,,,,,,,,,,,,,,,,,,,,,,,,,,,,,1258.535077800043,1259.553967300104,1256.1663037999533,1256.1663037999533,1256.1663037999533,1256.1663037999533,,new_fruit_30.png,139,5.0,2.3711325000040233,,062,01,2025-03-20_14h02.18.808,Surprise recog test,2023.1.3,59.995164422770365,
139,0,139,0,,,,,,,,,,,,,,,,,,,,,,,,,,,,,,,,,,1262.3713563000783,,1259.553967300104,1259.553967300104,1259.553967300104,1259.553967300104,,old_fruit_22.png,140,2.0,2.8131617999169976,,062,01,2025-03-20_14h02.18.808,Surprise recog test,2023.1.3,59.995164422770365,
140,0,140,0,,,,,,,,,,,,,,,,,,,,,,,,,,,,,,,,,,1266.1933542999905,1267.2207539000083,1263.401961900061,1263.401961900061,1263.401961900061,1263.401961900061,,old_sceneOut_27.png,141,4.0,2.7908368001226336,,062,01,2025-03-20_14h02.18.808,Surprise recog test,2023.1.3,59.995164422770365,
141,0,141,0,,,,,,,,,,,,,,,,,,,,,,,,,,,,,,,,,,1268.166506400099,1269.1920750001445,1267.2207539000083,1267.2207539000083,1267.2207539000083,1267.2207539000083,,old_stationery_48.png,142,1.0,0.9470669999718666,,062,01,2025-03-20_14h02.18.808,Surprise recog test,2023.1.3,59.995164422770365,
142,0,142,0,,,,,,,,,,,,,,,,,,,,,,,,,,,,,,,,,,1270.0047774999402,1271.0149555001408,1269.1920750001445,1269.1920750001445,1269.1920750001445,1269.1920750001445,,old_stationery_3.png,143,1.0,0.8155291001312435,,062,01,2025-03-20_14h02.18.808,Surprise recog test,2023.1.3,59.995164422770365,
143,0,143,0,,,,,,,,,,,,,,,,,,,,,,,,,,,,,,,,,,1274.0028009000234,1275.0162076000124,1271.0149555001408,1271.0149555001408,1271.0149555001408,1271.0149555001408,,new_sceneIn_12.png,144,3.0,2.9834389998577535,,062,01,2025-03-20_14h02.18.808,Surprise recog test,2023.1.3,59.995164422770365,
144,0,144,0,,,,,,,,,,,,,,,,,,,,,,,,,,,,,,,,,,1276.693272399949,1277.72401060001,1275.0162076000124,1275.0162076000124,1275.0162076000124,1275.0162076000124,,new_fruit_40.png,145,3.0,1.6746714999899268,,062,01,2025-03-20_14h02.18.808,Surprise recog test,2023.1.3,59.995164422770365,
145,0,145,0,,,,,,,,,,,,,,,,,,,,,,,,,,,,,,,,,,1278.6806147000752,1279.6998741999269,1277.72401060001,1277.72401060001,1277.72401060001,1277.72401060001,,new_sceneOut_35.png,146,3.0,0.9561381000094116,,062,01,2025-03-20_14h02.18.808,Surprise recog test,2023.1.3,59.995164422770365,
146,0,146,0,,,,,,,,,,,,,,,,,,,,,,,,,,,,,,,,,,1281.1545057001058,1282.1831305001397,1279.6998741999269,1279.6998741999269,1279.6998741999269,1279.6998741999269,,new_stationery_21.png,147,5.0,1.457230599829927,,062,01,2025-03-20_14h02.18.808,Surprise recog test,2023.1.3,59.995164422770365,
147,0,147,0,,,,,,,,,,,,,,,,,,,,,,,,,,,,,,,,,,1284.1683549999725,1285.1894036000594,1282.1831305001397,1282.1831305001397,1282.1831305001397,1282.1831305001397,,old_sceneOut_50.png,148,3.0,1.9804970999248326,,062,01,2025-03-20_14h02.18.808,Surprise recog test,2023.1.3,59.995164422770365,
148,0,148,0,,,,,,,,,,,,,,,,,,,,,,,,,,,,,,,,,,1286.7809973999392,1287.7993431000505,1285.1894036000594,1285.1894036000594,1285.1894036000594,1285.1894036000594,,old_fruit_45.png,149,1.0,1.5915514999069273,,062,01,2025-03-20_14h02.18.808,Surprise recog test,2023.1.3,59.995164422770365,
149,0,149,0,,,,,,,,,,,,,,,,,,,,,,,,,,,,,,,,,,1289.0830357000232,1290.1080458001234,1287.7993431000505,1287.7993431000505,1287.7993431000505,1287.7993431000505,,new_sceneOut_8.png,150,3.0,1.2838346001226455,,062,01,2025-03-20_14h02.18.808,Surprise recog test,2023.1.3,59.995164422770365,
150,0,150,0,,,,,,,,,,,,,,,,,,,,,,,,,,,,,,,,,,1291.4244196999352,1292.428557800129,1290.1080458001234,1290.1080458001234,1290.1080458001234,1290.1080458001234,,old_sceneOut_13.png,151,4.0,1.3108569998294115,,062,01,2025-03-20_14h02.18.808,Surprise recog test,2023.1.3,59.995164422770365,
151,0,151,0,,,,,,,,,,,,,,,,,,,,,,,,,,,,,,,,,,1293.93190350011,1294.9581635999493,1292.428557800129,1292.428557800129,1292.428557800129,1292.428557800129,,old_sceneIn_21.png,152,2.0,1.4988028998486698,,062,01,2025-03-20_14h02.18.808,Surprise recog test,2023.1.3,59.995164422770365,
152,0,152,0,,,,,,,,,,,,,,,,,,,,,,,,,,,,,,,,,,1297.3552012001164,1298.3823365001008,1294.9581635999493,1294.9581635999493,1294.9581635999493,1294.9581635999493,,new_sceneIn_32.png,153,5.0,2.398431499954313,,062,01,2025-03-20_14h02.18.808,Surprise recog test,2023.1.3,59.995164422770365,
153,0,153,0,,,,,,,,,,,,,,,,,,,,,,,,,,,,,,,,,,1301.7449930999428,1302.7731445000973,1298.3823365001008,1298.3823365001008,1298.3823365001008,1298.3823365001008,,old_sceneIn_30.png,154,4.0,3.36367219989188,,062,01,2025-03-20_14h02.18.808,Surprise recog test,2023.1.3,59.995164422770365,
154,0,154,0,,,,,,,,,,,,,,,,,,,,,,,,,,,,,,,,,,1307.756970900111,,1302.7731445000973,1302.7731445000973,1302.7731445000973,1302.7731445000973,1307.7504780001473,new_fruit_4.png,155,None,None,,062,01,2025-03-20_14h02.18.808,Surprise recog test,2023.1.3,59.995164422770365,
155,0,155,0,,,,,,,,,,,,,,,,,,,,,,,,,,,,,,,,,,1310.1725329000037,1311.1902852000203,1308.7821039000992,1308.7821039000992,1308.7821039000992,1308.7821039000992,,old_fruit_19.png,156,1.0,1.387770100031048,,062,01,2025-03-20_14h02.18.808,Surprise recog test,2023.1.3,59.995164422770365,
156,0,156,0,,,,,,,,,,,,,,,,,,,,,,,,,,,,,,,,,,1313.2013860000297,1314.234924599994,1311.1902852000203,1311.1902852000203,1311.1902852000203,1311.1902852000203,,new_sceneOut_15.png,157,2.0,2.0131006999872625,,062,01,2025-03-20_14h02.18.808,Surprise recog test,2023.1.3,59.995164422770365,
157,0,157,0,,,,,,,,,,,,,,,,,,,,,,,,,,,,,,,,,,1316.5290471001063,1317.5475175001193,1314.234924599994,1314.234924599994,1314.234924599994,1314.234924599994,,old_fruit_6.png,158,3.0,2.2967264000326395,,062,01,2025-03-20_14h02.18.808,Surprise recog test,2023.1.3,59.995164422770365,
158,0,158,0,,,,,,,,,,,,,,,,,,,,,,,,,,,,,,,,,,1320.5839464000892,,1317.5475175001193,1317.5475175001193,1317.5475175001193,1317.5475175001193,,old_sceneIn_44.png,159,4.0,3.038534800056368,,062,01,2025-03-20_14h02.18.808,Surprise recog test,2023.1.3,59.995164422770365,
159,0,159,0,,,,,,,,,,,,,,,,,,,,,,,,,,,,,,,,,,1323.3422338000964,1324.3709241999313,1321.6180025001522,1321.6180025001522,1321.6180025001522,1321.6180025001522,,new_sceneIn_25.png,160,2.0,1.7257022000849247,,062,01,2025-03-20_14h02.18.808,Surprise recog test,2023.1.3,59.995164422770365,
160,0,160,0,,,,,,,,,,,,,,,,,,,,,,,,,,,,,,,,,,1325.7449406001251,1326.7661900001112,1324.3709241999313,1324.3709241999313,1324.3709241999313,1324.3709241999313,,old_fruit_27.png,161,3.0,1.376361700007692,,062,01,2025-03-20_14h02.18.808,Surprise recog test,2023.1.3,59.995164422770365,
161,0,161,0,,,,,,,,,,,,,,,,,,,,,,,,,,,,,,,,,,1327.9866033000872,1329.0087222000584,1326.7661900001112,1326.7661900001112,1326.7661900001112,1326.7661900001112,,new_sceneIn_2.png,162,5.0,1.2202640001196414,,062,01,2025-03-20_14h02.18.808,Surprise recog test,2023.1.3,59.995164422770365,
162,0,162,0,,,,,,,,,,,,,,,,,,,,,,,,,,,,,,,,,,1330.473694199929,1331.4958888001274,1329.0087222000584,1329.0087222000584,1329.0087222000584,1329.0087222000584,,old_stationery_50.png,163,1.0,1.4607651999685913,,062,01,2025-03-20_14h02.18.808,Surprise recog test,2023.1.3,59.995164422770365,
163,0,163,0,,,,,,,,,,,,,,,,,,,,,,,,,,,,,,,,,,1332.818415600108,1333.8393107000738,1331.4958888001274,1331.4958888001274,1331.4958888001274,1331.4958888001274,,old_stationery_41.png,164,1.0,1.3242391000967473,,062,01,2025-03-20_14h02.18.808,Surprise recog test,2023.1.3,59.995164422770365,
164,0,164,0,,,,,,,,,,,,,,,,,,,,,,,,,,,,,,,,,,1335.3444342000876,1336.3652453999966,1333.8393107000738,1333.8393107000738,1333.8393107000738,1333.8393107000738,,old_sceneIn_35.png,165,2.0,1.4988416999112815,,062,01,2025-03-20_14h02.18.808,Surprise recog test,2023.1.3,59.995164422770365,
165,0,165,0,,,,,,,,,,,,,,,,,,,,,,,,,,,,,,,,,,1338.0485648999456,1339.066796900006,1336.3652453999966,1336.3652453999966,1336.3652453999966,1336.3652453999966,,old_sceneOut_3.png,166,3.0,1.6831469999160618,,062,01,2025-03-20_14h02.18.808,Surprise recog test,2023.1.3,59.995164422770365,
166,0,166,0,,,,,,,,,,,,,,,,,,,,,,,,,,,,,,,,,,1339.868609300116,,1339.066796900006,1339.066796900006,1339.066796900006,1339.066796900006,,old_sceneOut_6.png,167,3.0,0.8038759999908507,,062,01,2025-03-20_14h02.18.808,Surprise recog test,2023.1.3,59.995164422770365,
167,0,167,0,,,,,,,,,,,,,,,,,,,,,,,,,,,,,,,,,,1342.2899613000918,1343.3212729000952,1340.8893287000246,1340.8893287000246,1340.8893287000246,1340.8893287000246,,old_stationery_20.png,168,1.0,1.3963671999517828,,062,01,2025-03-20_14h02.18.808,Surprise recog test,2023.1.3,59.995164422770365,
168,0,168,0,,,,,,,,,,,,,,,,,,,,,,,,,,,,,,,,,,1345.1548057999462,,1343.3212729000952,1343.3212729000952,1343.3212729000952,1343.3212729000952,,new_sceneIn_27.png,169,3.0,1.8361547999083996,,062,01,2025-03-20_14h02.18.808,Surprise recog test,2023.1.3,59.995164422770365,
169,0,169,0,,,,,,,,,,,,,,,,,,,,,,,,,,,,,,,,,,1347.68820770015,1348.711150499992,1346.1904279000591,1346.1904279000591,1346.1904279000591,1346.1904279000591,,new_stationery_36.png,170,2.0,1.5001032000873238,,062,01,2025-03-20_14h02.18.808,Surprise recog test,2023.1.3,59.995164422770365,
170,0,170,0,,,,,,,,,,,,,,,,,,,,,,,,,,,,,,,,,,1349.7778189999517,1350.7981885001063,1348.711150499992,1348.711150499992,1348.711150499992,1348.711150499992,,new_fruit_18.png,171,1.0,1.0694569998886436,,062,01,2025-03-20_14h02.18.808,Surprise recog test,2023.1.3,59.995164422770365,
171,0,171,0,,,,,,,,,,,,,,,,,,,,,,,,,,,,,,,,,,1353.4096745999996,1354.4248772000428,1350.7981885001063,1350.7981885001063,1350.7981885001063,1350.7981885001063,,old_stationery_1.png,172,4.0,2.605948399985209,,062,01,2025-03-20_14h02.18.808,Surprise recog test,2023.1.3,59.995164422770365,
172,0,172,0,,,,,,,,,,,,,,,,,,,,,,,,,,,,,,,,,,1355.9686561999843,1356.993607700104,1354.4248772000428,1354.4248772000428,1354.4248772000428,1354.4248772000428,,new_stationery_41.png,173,2.0,1.5444217999465764,,062,01,2025-03-20_14h02.18.808,Surprise recog test,2023.1.3,59.995164422770365,
173,0,173,0,,,,,,,,,,,,,,,,,,,,,,,,,,,,,,,,,,1358.3629836000036,1359.384670099942,1356.993607700104,1356.993607700104,1356.993607700104,1356.993607700104,,new_sceneIn_45.png,174,3.0,1.3713461000006646,,062,01,2025-03-20_14h02.18.808,Surprise recog test,2023.1.3,59.995164422770365,
174,0,174,0,,,,,,,,,,,,,,,,,,,,,,,,,,,,,,,,,,1361.1623858001549,1362.1739479999524,1359.384670099942,1359.384670099942,1359.384670099942,1359.384670099942,,new_sceneOut_48.png,175,4.0,1.7767169000580907,,062,01,2025-03-20_14h02.18.808,Surprise recog test,2023.1.3,59.995164422770365,
175,0,175,0,,,,,,,,,,,,,,,,,,,,,,,,,,,,,,,,,,1363.4304363001138,1364.4509831999894,1362.1739479999524,1362.1739479999524,1362.1739479999524,1362.1739479999524,,old_sceneIn_6.png,176,1.0,1.248917599907145,,062,01,2025-03-20_14h02.18.808,Surprise recog test,2023.1.3,59.995164422770365,
176,0,176,0,,,,,,,,,,,,,,,,,,,,,,,,,,,,,,,,,,1367.9127368000336,1368.9358155999798,1364.4509831999894,1364.4509831999894,1364.4509831999894,1364.4509831999894,,new_sceneOut_30.png,177,4.0,3.4587546999100596,,062,01,2025-03-20_14h02.18.808,Surprise recog test,2023.1.3,59.995164422770365,
177,0,177,0,,,,,,,,,,,,,,,,,,,,,,,,,,,,,,,,,,1371.1486204999965,1372.1644550000783,1368.9358155999798,1368.9358155999798,1368.9358155999798,1368.9358155999798,,new_sceneIn_33.png,178,1.0,2.2140006001573056,,062,01,2025-03-20_14h02.18.808,Surprise recog test,2023.1.3,59.995164422770365,
178,0,178,0,,,,,,,,,,,,,,,,,,,,,,,,,,,,,,,,,,1373.443495000014,1374.4588458000217,1372.1644550000783,1372.1644550000783,1372.1644550000783,1372.1644550000783,,old_stationery_49.png,179,1.0,1.2769340998493135,,062,01,2025-03-20_14h02.18.808,Surprise recog test,2023.1.3,59.995164422770365,
179,0,179,0,,,,,,,,,,,,,,,,,,,,,,,,,,,,,,,,,,1377.790846799966,1378.803448199993,1374.4588458000217,1374.4588458000217,1374.4588458000217,1374.4588458000217,,new_sceneIn_43.png,180,1.0,3.333103899843991,,062,01,2025-03-20_14h02.18.808,Surprise recog test,2023.1.3,59.995164422770365,
180,0,180,0,,,,,,,,,,,,,,,,,,,,,,,,,,,,,,,,,,1379.8590719001368,1380.88281859993,1378.803448199993,1378.803448199993,1378.803448199993,1378.803448199993,,new_sceneOut_46.png,181,3.0,1.0499189000111073,,062,01,2025-03-20_14h02.18.808,Surprise recog test,2023.1.3,59.995164422770365,
181,0,181,0,,,,,,,,,,,,,,,,,,,,,,,,,,,,,,,,,,1382.316971299937,1383.3329881001264,1380.88281859993,1380.88281859993,1380.88281859993,1380.88281859993,,new_stationery_10.png,182,4.0,1.434158799936995,,062,01,2025-03-20_14h02.18.808,Surprise recog test,2023.1.3,59.995164422770365,
182,0,182,0,,,,,,,,,,,,,,,,,,,,,,,,,,,,,,,,,,1384.3810121000279,1385.3927595999558,1383.3329881001264,1383.3329881001264,1383.3329881001264,1383.3329881001264,,old_sceneOut_30.png,183,4.0,1.0468197998125106,,062,01,2025-03-20_14h02.18.808,Surprise recog test,2023.1.3,59.995164422770365,
183,0,183,0,,,,,,,,,,,,,,,,,,,,,,,,,,,,,,,,,,1387.9610216000583,1388.9863416000735,1385.3927595999558,1385.3927595999558,1385.3927595999558,1385.3927595999558,,new_fruit_26.png,184,2.0,2.564384900033474,,062,01,2025-03-20_14h02.18.808,Surprise recog test,2023.1.3,59.995164422770365,
184,0,184,0,,,,,,,,,,,,,,,,,,,,,,,,,,,,,,,,,,1390.4694753999356,1391.4935169999953,1388.9863416000735,1388.9863416000735,1388.9863416000735,1388.9863416000735,,old_sceneOut_35.png,185,4.0,1.4810462999157608,,062,01,2025-03-20_14h02.18.808,Surprise recog test,2023.1.3,59.995164422770365,
185,0,185,0,,,,,,,,,,,,,,,,,,,,,,,,,,,,,,,,,,1393.8705677001271,1394.895339100156,1391.4935169999953,1391.4935169999953,1391.4935169999953,1391.4935169999953,,new_stationery_7.png,186,3.0,2.3766569001600146,,062,01,2025-03-20_14h02.18.808,Surprise recog test,2023.1.3,59.995164422770365,
186,0,186,0,,,,,,,,,,,,,,,,,,,,,,,,,,,,,,,,,,1396.3745353000704,1397.38721480011,1394.895339100156,1394.895339100156,1394.895339100156,1394.895339100156,,new_sceneIn_19.png,187,2.0,1.4777800000738353,,062,01,2025-03-20_14h02.18.808,Surprise recog test,2023.1.3,59.995164422770365,
187,0,187,0,,,,,,,,,,,,,,,,,,,,,,,,,,,,,,,,,,1400.1694315001369,,1397.38721480011,1397.38721480011,1397.38721480011,1397.38721480011,,new_stationery_38.png,188,1.0,2.7781823999248445,,062,01,2025-03-20_14h02.18.808,Surprise recog test,2023.1.3,59.995164422770365,
188,0,188,0,,,,,,,,,,,,,,,,,,,,,,,,,,,,,,,,,,1401.9887064001523,1403.011129599996,1401.1933085999917,1401.1933085999917,1401.1933085999917,1401.1933085999917,,new_sceneOut_23.png,189,3.0,0.7943001000676304,,062,01,2025-03-20_14h02.18.808,Surprise recog test,2023.1.3,59.995164422770365,
189,0,189,0,,,,,,,,,,,,,,,,,,,,,,,,,,,,,,,,,,1404.3915430000052,1405.4101762000937,1403.011129599996,1403.011129599996,1403.011129599996,1403.011129599996,,old_sceneOut_15.png,190,2.0,1.3793987999670208,,062,01,2025-03-20_14h02.18.808,Surprise recog test,2023.1.3,59.995164422770365,
190,0,190,0,,,,,,,,,,,,,,,,,,,,,,,,,,,,,,,,,,1406.6164367999882,1407.6397067999933,1405.4101762000937,1405.4101762000937,1405.4101762000937,1405.4101762000937,,old_fruit_34.png,191,2.0,1.2012344000395387,,062,01,2025-03-20_14h02.18.808,Surprise recog test,2023.1.3,59.995164422770365,
191,0,191,0,,,,,,,,,,,,,,,,,,,,,,,,,,,,,,,,,,1408.7609763001092,1409.7984313999768,1407.6397067999933,1407.6397067999933,1407.6397067999933,1407.6397067999933,,new_sceneOut_49.png,192,2.0,1.1226476000156254,,062,01,2025-03-20_14h02.18.808,Surprise recog test,2023.1.3,59.995164422770365,
192,0,192,0,,,,,,,,,,,,,,,,,,,,,,,,,,,,,,,,,,1410.8855986001436,1411.909475600114,1409.7984313999768,1409.7984313999768,1409.7984313999768,1409.7984313999768,,old_sceneOut_33.png,193,2.0,1.089196699904278,,062,01,2025-03-20_14h02.18.808,Surprise recog test,2023.1.3,59.995164422770365,
193,0,193,0,,,,,,,,,,,,,,,,,,,,,,,,,,,,,,,,,,1413.4271802001167,1414.4343375000171,1411.909475600114,1411.909475600114,1411.909475600114,1411.909475600114,,new_fruit_24.png,194,5.0,1.516908299876377,,062,01,2025-03-20_14h02.18.808,Surprise recog test,2023.1.3,59.995164422770365,
194,0,194,0,,,,,,,,,,,,,,,,,,,,,,,,,,,,,,,,,,1415.7839154000394,1416.81442900002,1414.4343375000171,1414.4343375000171,1414.4343375000171,1414.4343375000171,,old_stationery_47.png,195,1.0,1.344184200046584,,062,01,2025-03-20_14h02.18.808,Surprise recog test,2023.1.3,59.995164422770365,
195,0,195,0,,,,,,,,,,,,,,,,,,,,,,,,,,,,,,,,,,1418.4525248000864,1419.4798554999288,1416.81442900002,1416.81442900002,1416.81442900002,1416.81442900002,,old_sceneOut_34.png,196,3.0,1.6388213001191616,,062,01,2025-03-20_14h02.18.808,Surprise recog test,2023.1.3,59.995164422770365,
196,0,196,0,,,,,,,,,,,,,,,,,,,,,,,,,,,,,,,,,,1420.7193287000991,,1419.4798554999288,1419.4798554999288,1419.4798554999288,1419.4798554999288,,old_stationery_27.png,197,1.0,1.241116699995473,,062,01,2025-03-20_14h02.18.808,Surprise recog test,2023.1.3,59.995164422770365,
197,0,197,0,,,,,,,,,,,,,,,,,,,,,,,,,,,,,,,,,,1423.1345305999275,1424.1427669001278,1421.7578181000426,1421.7578181000426,1421.7578181000426,1421.7578181000426,,new_sceneOut_16.png,198,3.0,1.3802235999610275,,062,01,2025-03-20_14h02.18.808,Surprise recog test,2023.1.3,59.995164422770365,
198,0,198,0,,,,,,,,,,,,,,,,,,,,,,,,,,,,,,,,,,1425.631403699983,1426.6559651000425,1424.1427669001278,1424.1427669001278,1424.1427669001278,1424.1427669001278,,old_sceneOut_16.png,199,2.0,1.4857421000488102,,062,01,2025-03-20_14h02.18.808,Surprise recog test,2023.1.3,59.995164422770365,
199,0,199,0,,,,,,,,,,,,,,,,,,,,,,,,,,,,,,,,,,1427.456931099994,,1426.6559651000425,1426.6559651000425,1426.6559651000425,1426.6559651000425,,new_sceneOut_14.png,200,3.0,0.8009554999880493,,062,01,2025-03-20_14h02.18.808,Surprise recog test,2023.1.3,59.995164422770365,
200,0,200,0,,,,,,,,,,,,,,,,,,,,,,,,,,,,,,,,,,1429.538685000036,1430.5484563999344,1428.487363500055,1428.487363500055,1428.487363500055,1428.487363500055,,old_fruit_5.png,201,2.0,1.0472438998986036,,062,01,2025-03-20_14h02.18.808,Surprise recog test,2023.1.3,59.995164422770365,
201,0,201,0,,,,,,,,,,,,,,,,,,,,,,,,,,,,,,,,,,1432.1540403000545,1433.166579599958,1430.5484563999344,1430.5484563999344,1430.5484563999344,1430.5484563999344,,new_sceneOut_24.png,202,3.0,1.601362699875608,,062,01,2025-03-20_14h02.18.808,Surprise recog test,2023.1.3,59.995164422770365,
202,0,202,0,,,,,,,,,,,,,,,,,,,,,,,,,,,,,,,,,,1435.3992510000244,1436.435590900015,1433.166579599958,1433.166579599958,1433.166579599958,1433.166579599958,,old_stationery_44.png,203,1.0,2.2286185000557452,,062,01,2025-03-20_14h02.18.808,Surprise recog test,2023.1.3,59.995164422770365,
203,0,203,0,,,,,,,,,,,,,,,,,,,,,,,,,,,,,,,,,,1437.7629933001008,1438.7841455999296,1436.435590900015,1436.435590900015,1436.435590900015,1436.435590900015,,old_sceneIn_9.png,204,4.0,1.3293714998289943,,062,01,2025-03-20_14h02.18.808,Surprise recog test,2023.1.3,59.995164422770365,
204,0,204,0,,,,,,,,,,,,,,,,,,,,,,,,,,,,,,,,,,1440.1971084999386,1441.219449599972,1438.7841455999296,1438.7841455999296,1438.7841455999296,1438.7841455999296,,old_sceneOut_20.png,205,4.0,1.4126327000558376,,062,01,2025-03-20_14h02.18.808,Surprise recog test,2023.1.3,59.995164422770365,
205,0,205,0,,,,,,,,,,,,,,,,,,,,,,,,,,,,,,,,,,1443.993811600143,1445.008948800154,1441.219449599972,1441.219449599972,1441.219449599972,1441.219449599972,,old_fruit_38.png,206,1.0,2.7770684000570327,,062,01,2025-03-20_14h02.18.808,Surprise recog test,2023.1.3,59.995164422770365,
206,0,206,0,,,,,,,,,,,,,,,,,,,,,,,,,,,,,,,,,,1446.5047355999704,1447.5237148001324,1445.008948800154,1445.008948800154,1445.008948800154,1445.008948800154,,new_sceneIn_49.png,207,4.0,1.490334700094536,,062,01,2025-03-20_14h02.18.808,Surprise recog test,2023.1.3,59.995164422770365,
207,0,207,0,,,,,,,,,,,,,,,,,,,,,,,,,,,,,,,,,,1448.8460031000432,1449.8805728000589,1447.5237148001324,1447.5237148001324,1447.5237148001324,1447.5237148001324,,old_sceneIn_12.png,208,2.0,1.3246758000459522,,062,01,2025-03-20_14h02.18.808,Surprise recog test,2023.1.3,59.995164422770365,
208,0,208,0,,,,,,,,,,,,,,,,,,,,,,,,,,,,,,,,,,1451.649110800121,1452.6799332001247,1449.8805728000589,1449.8805728000589,1449.8805728000589,1449.8805728000589,,old_stationery_39.png,209,2.0,1.7735467001330107,,062,01,2025-03-20_14h02.18.808,Surprise recog test,2023.1.3,59.995164422770365,
209,0,209,0,,,,,,,,,,,,,,,,,,,,,,,,,,,,,,,,,,1454.4482507000212,1455.4776095999405,1452.6799332001247,1452.6799332001247,1452.6799332001247,1452.6799332001247,,old_sceneOut_48.png,210,4.0,1.7703537999186665,,062,01,2025-03-20_14h02.18.808,Surprise recog test,2023.1.3,59.995164422770365,
210,0,210,0,,,,,,,,,,,,,,,,,,,,,,,,,,,,,,,,,,1456.7230732999742,1457.7475962999742,1455.4776095999405,1455.4776095999405,1455.4776095999405,1455.4776095999405,,new_sceneOut_38.png,211,3.0,1.2472492000088096,,062,01,2025-03-20_14h02.18.808,Surprise recog test,2023.1.3,59.995164422770365,
211,0,211,0,,,,,,,,,,,,,,,,,,,,,,,,,,,,,,,,,,1459.7791083001066,1460.8024955999572,1457.7475962999742,1457.7475962999742,1457.7475962999742,1457.7475962999742,,new_sceneIn_28.png,212,1.0,2.0317377999890596,,062,01,2025-03-20_14h02.18.808,Surprise recog test,2023.1.3,59.995164422770365,
212,0,212,0,,,,,,,,,,,,,,,,,,,,,,,,,,,,,,,,,,1462.987069300143,,1460.8024955999572,1460.8024955999572,1460.8024955999572,1460.8024955999572,,new_fruit_32.png,213,1.0,2.188382900087163,,062,01,2025-03-20_14h02.18.808,Surprise recog test,2023.1.3,59.995164422770365,
213,0,213,0,,,,,,,,,,,,,,,,,,,,,,,,,,,,,,,,,,1465.3096378999762,1466.3269229999278,1464.0076107999776,1464.0076107999776,1464.0076107999776,1464.0076107999776,,old_stationery_26.png,214,1.0,1.2970086999703199,,062,01,2025-03-20_14h02.18.808,Surprise recog test,2023.1.3,59.995164422770365,
214,0,214,0,,,,,,,,,,,,,,,,,,,,,,,,,,,,,,,,,,1468.5440072999336,1469.5629143000115,1466.3269229999278,1466.3269229999278,1466.3269229999278,1466.3269229999278,,new_fruit_13.png,215,1.0,2.2124330000951886,,062,01,2025-03-20_14h02.18.808,Surprise recog test,2023.1.3,59.995164422770365,
215,0,215,0,,,,,,,,,,,,,,,,,,,,,,,,,,,,,,,,,,1470.573667800054,1471.5954297999851,1469.5629143000115,1469.5629143000115,1469.5629143000115,1469.5629143000115,,old_stationery_35.png,216,1.0,1.0032340998295695,,062,01,2025-03-20_14h02.18.808,Surprise recog test,2023.1.3,59.995164422770365,
216,0,216,0,,,,,,,,,,,,,,,,,,,,,,,,,,,,,,,,,,1473.212804700015,,1471.5954297999851,1471.5954297999851,1471.5954297999851,1471.5954297999851,,old_sceneIn_25.png,217,2.0,1.6200598001014441,,062,01,2025-03-20_14h02.18.808,Surprise recog test,2023.1.3,59.995164422770365,
217,0,217,0,,,,,,,,,,,,,,,,,,,,,,,,,,,,,,,,,,1475.346171299927,,1474.2444541000295,1474.2444541000295,1474.2444541000295,1474.2444541000295,,old_stationery_10.png,218,1.0,1.1024207998998463,,062,01,2025-03-20_14h02.18.808,Surprise recog test,2023.1.3,59.995164422770365,
218,0,218,0,,,,,,,,,,,,,,,,,,,,,,,,,,,,,,,,,,1477.8927007000893,1478.9057792001404,1476.3702799000312,1476.3702799000312,1476.3702799000312,1476.3702799000312,,old_fruit_14.png,219,1.0,1.5202719001099467,,062,01,2025-03-20_14h02.18.808,Surprise recog test,2023.1.3,59.995164422770365,
219,0,219,0,,,,,,,,,,,,,,,,,,,,,,,,,,,,,,,,,,1482.046609699959,1483.0623292999808,1478.9057792001404,1478.9057792001404,1478.9057792001404,1478.9057792001404,,new_sceneIn_5.png,220,4.0,3.138931999914348,,062,01,2025-03-20_14h02.18.808,Surprise recog test,2023.1.3,59.995164422770365,
220,0,220,0,,,,,,,,,,,,,,,,,,,,,,,,,,,,,,,,,,1484.0492849999573,1485.0678878000472,1483.0623292999808,1483.0623292999808,1483.0623292999808,1483.0623292999808,,old_stationery_31.png,221,1.0,0.9866269000340253,,062,01,2025-03-20_14h02.18.808,Surprise recog test,2023.1.3,59.995164422770365,
221,0,221,0,,,,,,,,,,,,,,,,,,,,,,,,,,,,,,,,,,1486.2079568000045,,1485.0678878000472,1485.0678878000472,1485.0678878000472,1485.0678878000472,,new_fruit_28.png,222,3.0,1.1380746001377702,,062,01,2025-03-20_14h02.18.808,Surprise recog test,2023.1.3,59.995164422770365,
222,0,222,0,,,,,,,,,,,,,,,,,,,,,,,,,,,,,,,,,,1489.147766500013,1490.1766598001122,1487.2273170000408,1487.2273170000408,1487.2273170000408,1487.2273170000408,,old_sceneOut_45.png,223,4.0,1.9158273998182267,,062,01,2025-03-20_14h02.18.808,Surprise recog test,2023.1.3,59.995164422770365,
223,0,223,0,,,,,,,,,,,,,,,,,,,,,,,,,,,,,,,,,,1491.8036736000795,1492.8332567000762,1490.1766598001122,1490.1766598001122,1490.1766598001122,1490.1766598001122,,new_stationery_43.png,224,5.0,1.6279796999879181,,062,01,2025-03-20_14h02.18.808,Surprise recog test,2023.1.3,59.995164422770365,
224,0,224,0,,,,,,,,,,,,,,,,,,,,,,,,,,,,,,,,,,1494.0088370000012,1495.0182854000013,1492.8332567000762,1492.8332567000762,1492.8332567000762,1492.8332567000762,,old_stationery_46.png,225,1.0,1.1780461999587715,,062,01,2025-03-20_14h02.18.808,Surprise recog test,2023.1.3,59.995164422770365,
225,0,225,0,,,,,,,,,,,,,,,,,,,,,,,,,,,,,,,,,,1496.2783608001191,1497.2867670000996,1495.0182854000013,1495.0182854000013,1495.0182854000013,1495.0182854000013,,old_sceneOut_43.png,226,3.0,1.249167300062254,,062,01,2025-03-20_14h02.18.808,Surprise recog test,2023.1.3,59.995164422770365,
226,0,226,0,,,,,,,,,,,,,,,,,,,,,,,,,,,,,,,,,,1500.3729324000888,1501.4015844999813,1497.2867670000996,1497.2867670000996,1497.2867670000996,1497.2867670000996,,new_stationery_8.png,227,4.0,3.0809784000739455,,062,01,2025-03-20_14h02.18.808,Surprise recog test,2023.1.3,59.995164422770365,
227,0,227,0,,,,,,,,,,,,,,,,,,,,,,,,,,,,,,,,,,1502.5841888000723,1503.603812900139,1501.4015844999813,1501.4015844999813,1501.4015844999813,1501.4015844999813,,old_sceneOut_14.png,228,4.0,1.1826929000671953,,062,01,2025-03-20_14h02.18.808,Surprise recog test,2023.1.3,59.995164422770365,
228,0,228,0,,,,,,,,,,,,,,,,,,,,,,,,,,,,,,,,,,1504.937947700033,,1503.603812900139,1503.603812900139,1503.603812900139,1503.603812900139,,old_stationery_25.png,229,1.0,1.336628200020641,,062,01,2025-03-20_14h02.18.808,Surprise recog test,2023.1.3,59.995164422770365,
229,0,229,0,,,,,,,,,,,,,,,,,,,,,,,,,,,,,,,,,,1508.3597969999537,1509.3931404000614,1505.9692613000516,1505.9692613000516,1505.9692613000516,1505.9692613000516,,old_sceneOut_47.png,230,4.0,2.3925630000885576,,062,01,2025-03-20_14h02.18.808,Surprise recog test,2023.1.3,59.995164422770365,
230,0,230,0,,,,,,,,,,,,,,,,,,,,,,,,,,,,,,,,,,1511.2822201000527,1512.2992145000026,1509.3931404000614,1509.3931404000614,1509.3931404000614,1509.3931404000614,,new_sceneIn_30.png,231,2.0,1.8916261000558734,,062,01,2025-03-20_14h02.18.808,Surprise recog test,2023.1.3,59.995164422770365,
231,0,231,0,,,,,,,,,,,,,,,,,,,,,,,,,,,,,,,,,,1513.3809957001358,1514.4111045999452,1512.2992145000026,1512.2992145000026,1512.2992145000026,1512.2992145000026,,new_sceneOut_27.png,232,3.0,1.0775605998933315,,062,01,2025-03-20_14h02.18.808,Surprise recog test,2023.1.3,59.995164422770365,
232,0,232,0,,,,,,,,,,,,,,,,,,,,,,,,,,,,,,,,,,1516.1702487999573,1517.1982251999434,1514.4111045999452,1514.4111045999452,1514.4111045999452,1514.4111045999452,,new_stationery_49.png,233,4.0,1.7630479000508785,,062,01,2025-03-20_14h02.18.808,Surprise recog test,2023.1.3,59.995164422770365,
233,0,233,0,,,,,,,,,,,,,,,,,,,,,,,,,,,,,,,,,,1519.8970781001262,1520.921223500045,1517.1982251999434,1517.1982251999434,1517.1982251999434,1517.1982251999434,,new_sceneIn_17.png,234,3.0,2.700087600154802,,062,01,2025-03-20_14h02.18.808,Surprise recog test,2023.1.3,59.995164422770365,
234,0,234,0,,,,,,,,,,,,,,,,,,,,,,,,,,,,,,,,,,1522.404757300159,1523.4354779999703,1520.921223500045,1520.921223500045,1520.921223500045,1520.921223500045,,new_sceneIn_37.png,235,2.0,1.4874925999902189,,062,01,2025-03-20_14h02.18.808,Surprise recog test,2023.1.3,59.995164422770365,
235,0,235,0,,,,,,,,,,,,,,,,,,,,,,,,,,,,,,,,,,1524.4259294001386,1525.4431140001398,1523.4354779999703,1523.4354779999703,1523.4354779999703,1523.4354779999703,,old_sceneIn_47.png,236,2.0,0.9899917000439018,,062,01,2025-03-20_14h02.18.808,Surprise recog test,2023.1.3,59.995164422770365,
236,0,236,0,,,,,,,,,,,,,,,,,,,,,,,,,,,,,,,,,,1527.4612489000428,1528.4903782999609,1525.4431140001398,1525.4431140001398,1525.4431140001398,1525.4431140001398,,new_sceneOut_18.png,237,4.0,2.015071100089699,,062,01,2025-03-20_14h02.18.808,Surprise recog test,2023.1.3,59.995164422770365,
237,0,237,0,,,,,,,,,,,,,,,,,,,,,,,,,,,,,,,,,,1531.170746400021,1532.1958413999528,1528.4903782999609,1528.4903782999609,1528.4903782999609,1528.4903782999609,,old_sceneIn_1.png,238,3.0,2.6801350999157876,,062,01,2025-03-20_14h02.18.808,Surprise recog test,2023.1.3,59.995164422770365,
238,0,238,0,,,,,,,,,,,,,,,,,,,,,,,,,,,,,,,,,,1533.2707551999483,1534.2963888000231,1532.1958413999528,1532.1958413999528,1532.1958413999528,1532.1958413999528,,old_stationery_5.png,239,1.0,1.0753305000253022,,062,01,2025-03-20_14h02.18.808,Surprise recog test,2023.1.3,59.995164422770365,
239,0,239,0,,,,,,,,,,,,,,,,,,,,,,,,,,,,,,,,,,1535.1269418001175,1536.1424209000543,1534.2963888000231,1534.2963888000231,1534.2963888000231,1534.2963888000231,,old_fruit_33.png,240,1.0,0.8325163000263274,,062,01,2025-03-20_14h02.18.808,Surprise recog test,2023.1.3,59.995164422770365,
240,0,240,0,,,,,,,,,,,,,,,,,,,,,,,,,,,,,,,,,,1537.894144400023,1538.9036538000219,1536.1424209000543,1536.1424209000543,1536.1424209000543,1536.1424209000543,,new_fruit_20.png,241,3.0,1.7474600998684764,,062,01,2025-03-20_14h02.18.808,Surprise recog test,2023.1.3,59.995164422770365,
241,0,241,0,,,,,,,,,,,,,,,,,,,,,,,,,,,,,,,,,,1540.5489203000907,1541.5568304001354,1538.9036538000219,1538.9036538000219,1538.9036538000219,1538.9036538000219,,old_fruit_31.png,242,1.0,1.6388602999504656,,062,01,2025-03-20_14h02.18.808,Surprise recog test,2023.1.3,59.995164422770365,
242,0,242,0,,,,,,,,,,,,,,,,,,,,,,,,,,,,,,,,,,1543.0215100001078,,1541.5568304001354,1541.5568304001354,1541.5568304001354,1541.5568304001354,,new_fruit_3.png,243,3.0,1.460771300131455,,062,01,2025-03-20_14h02.18.808,Surprise recog test,2023.1.3,59.995164422770365,
243,0,243,0,,,,,,,,,,,,,,,,,,,,,,,,,,,,,,,,,,1545.8337630000897,1546.8503215000965,1544.0539667000994,1544.0539667000994,1544.0539667000994,1544.0539667000994,,old_stationery_11.png,244,4.0,1.7817176000680774,,062,01,2025-03-20_14h02.18.808,Surprise recog test,2023.1.3,59.995164422770365,
244,0,244,0,,,,,,,,,,,,,,,,,,,,,,,,,,,,,,,,,,1547.8680231999606,1548.8880664000753,1546.8503215000965,1546.8503215000965,1546.8503215000965,1546.8503215000965,,old_stationery_18.png,245,1.0,1.0181885999627411,,062,01,2025-03-20_14h02.18.808,Surprise recog test,2023.1.3,59.995164422770365,
245,0,245,0,,,,,,,,,,,,,,,,,,,,,,,,,,,,,,,,,,1549.7652722001076,1550.7954226001166,1548.8880664000753,1548.8880664000753,1548.8880664000753,1548.8880664000753,,old_stationery_19.png,246,1.0,0.8770433000754565,,062,01,2025-03-20_14h02.18.808,Surprise recog test,2023.1.3,59.995164422770365,
246,0,246,0,,,,,,,,,,,,,,,,,,,,,,,,,,,,,,,,,,1553.8234586000908,1554.8448658999987,1550.7954226001166,1550.7954226001166,1550.7954226001166,1550.7954226001166,,new_sceneIn_38.png,247,2.0,3.0285045001655817,,062,01,2025-03-20_14h02.18.808,Surprise recog test,2023.1.3,59.995164422770365,
247,0,247,0,,,,,,,,,,,,,,,,,,,,,,,,,,,,,,,,,,1556.9139624000527,1557.9230698000174,1554.8448658999987,1554.8448658999987,1554.8448658999987,1554.8448658999987,,new_fruit_48.png,248,2.0,2.0693014999851584,,062,01,2025-03-20_14h02.18.808,Surprise recog test,2023.1.3,59.995164422770365,
248,0,248,0,,,,,,,,,,,,,,,,,,,,,,,,,,,,,,,,,,1558.8037191000767,1559.834213100141,1557.9230698000174,1557.9230698000174,1557.9230698000174,1557.9230698000174,,new_sceneOut_3.png,249,3.0,0.8791768001392484,,062,01,2025-03-20_14h02.18.808,Surprise recog test,2023.1.3,59.995164422770365,
249,0,249,0,,,,,,,,,,,,,,,,,,,,,,,,,,,,,,,,,,1560.687023299979,1561.7078126000706,1559.834213100141,1559.834213100141,1559.834213100141,1559.834213100141,,old_sceneOut_42.png,250,3.0,0.8549063000828028,,062,01,2025-03-20_14h02.18.808,Surprise recog test,2023.1.3,59.995164422770365,
250,0,250,0,,,,,,,,,,,,,,,,,,,,,,,,,,,,,,,,,,1563.41173729999,1564.4380685000215,1561.7078126000706,1561.7078126000706,1561.7078126000706,1561.7078126000706,,old_sceneIn_34.png,251,2.0,1.6978484999854118,,062,01,2025-03-20_14h02.18.808,Surprise recog test,2023.1.3,59.995164422770365,
251,0,251,0,,,,,,,,,,,,,,,,,,,,,,,,,,,,,,,,,,1565.7818969001528,1566.803642099956,1564.4380685000215,1564.4380685000215,1564.4380685000215,1564.4380685000215,,new_stationery_39.png,252,4.0,1.3459475999698043,,062,01,2025-03-20_14h02.18.808,Surprise recog test,2023.1.3,59.995164422770365,
252,0,252,0,,,,,,,,,,,,,,,,,,,,,,,,,,,,,,,,,,1567.9700680000242,1568.982065899996,1566.803642099956,1566.803642099956,1566.803642099956,1566.803642099956,,new_sceneIn_3.png,253,1.0,1.1676372000947595,,062,01,2025-03-20_14h02.18.808,Surprise recog test,2023.1.3,59.995164422770365,
253,0,253,0,,,,,,,,,,,,,,,,,,,,,,,,,,,,,,,,,,1570.3980415000115,1571.4293778999709,1568.982065899996,1568.982065899996,1568.982065899996,1568.982065899996,,old_fruit_37.png,254,3.0,1.41361750010401,,062,01,2025-03-20_14h02.18.808,Surprise recog test,2023.1.3,59.995164422770365,
254,0,254,0,,,,,,,,,,,,,,,,,,,,,,,,,,,,,,,,,,1572.8534969999455,1573.867787500145,1571.4293778999709,1571.4293778999709,1571.4293778999709,1571.4293778999709,,old_sceneIn_18.png,255,4.0,1.4268908000085503,,062,01,2025-03-20_14h02.18.808,Surprise recog test,2023.1.3,59.995164422770365,
255,0,255,0,,,,,,,,,,,,,,,,,,,,,,,,,,,,,,,,,,1575.326827000128,1576.3451485999394,1573.867787500145,1573.867787500145,1573.867787500145,1573.867787500145,,old_fruit_48.png,256,4.0,1.45582600007765,,062,01,2025-03-20_14h02.18.808,Surprise recog test,2023.1.3,59.995164422770365,
256,0,256,0,,,,,,,,,,,,,,,,,,,,,,,,,,,,,,,,,,1577.9088546999265,1578.9324576000217,1576.3451485999394,1576.3451485999394,1576.3451485999394,1576.3451485999394,,new_sceneIn_7.png,257,4.0,1.5636785000097007,,062,01,2025-03-20_14h02.18.808,Surprise recog test,2023.1.3,59.995164422770365,
257,0,257,0,,,,,,,,,,,,,,,,,,,,,,,,,,,,,,,,,,1580.5408628000878,1581.5558863000479,1578.9324576000217,1578.9324576000217,1578.9324576000217,1578.9324576000217,,old_fruit_7.png,258,2.0,1.610375399934128,,062,01,2025-03-20_14h02.18.808,Surprise recog test,2023.1.3,59.995164422770365,
258,0,258,0,,,,,,,,,,,,,,,,,,,,,,,,,,,,,,,,,,1583.1143515000585,1584.125246200012,1581.5558863000479,1581.5558863000479,1581.5558863000479,1581.5558863000479,,old_stationery_8.png,259,4.0,1.5535711001139134,,062,01,2025-03-20_14h02.18.808,Surprise recog test,2023.1.3,59.995164422770365,
259,0,259,0,,,,,,,,,,,,,,,,,,,,,,,,,,,,,,,,,,1585.6187915001065,1586.6268313999753,1584.125246200012,1584.125246200012,1584.125246200012,1584.125246200012,,old_fruit_4.png,260,4.0,1.4890630000736564,,062,01,2025-03-20_14h02.18.808,Surprise recog test,2023.1.3,59.995164422770365,
260,0,260,0,,,,,,,,,,,,,,,,,,,,,,,,,,,,,,,,,,1587.9067555000074,,1586.6268313999753,1586.6268313999753,1586.6268313999753,1586.6268313999753,,new_sceneIn_24.png,261,1.0,1.2730109000112861,,062,01,2025-03-20_14h02.18.808,Surprise recog test,2023.1.3,59.995164422770365,
261,0,261,0,,,,,,,,,,,,,,,,,,,,,,,,,,,,,,,,,,1589.9354870000388,1590.9578718000557,1588.9403270001058,1588.9403270001058,1588.9403270001058,1588.9403270001058,,old_sceneIn_33.png,262,3.0,0.9969744998961687,,062,01,2025-03-20_14h02.18.808,Surprise recog test,2023.1.3,59.995164422770365,
262,0,262,0,,,,,,,,,,,,,,,,,,,,,,,,,,,,,,,,,,1592.0761386000086,1593.0829767000396,1590.9578718000557,1590.9578718000557,1590.9578718000557,1590.9578718000557,,old_sceneIn_16.png,263,3.0,1.1188723999075592,,062,01,2025-03-20_14h02.18.808,Surprise recog test,2023.1.3,59.995164422770365,
263,0,263,0,,,,,,,,,,,,,,,,,,,,,,,,,,,,,,,,,,1594.3999396001454,1595.4359457001556,1593.0829767000396,1593.0829767000396,1593.0829767000396,1593.0829767000396,,old_fruit_43.png,264,1.0,1.3119540000334382,,062,01,2025-03-20_14h02.18.808,Surprise recog test,2023.1.3,59.995164422770365,
264,0,264,0,,,,,,,,,,,,,,,,,,,,,,,,,,,,,,,,,,1597.0730089000426,1598.1007685000077,1595.4359457001556,1595.4359457001556,1595.4359457001556,1595.4359457001556,,old_stationery_6.png,265,4.0,1.6402572002261877,,062,01,2025-03-20_14h02.18.808,Surprise recog test,2023.1.3,59.995164422770365,
265,0,265,0,,,,,,,,,,,,,,,,,,,,,,,,,,,,,,,,,,1599.7144037000835,1600.7387071000412,1598.1007685000077,1598.1007685000077,1598.1007685000077,1598.1007685000077,,new_fruit_34.png,266,4.0,1.617018299875781,,062,01,2025-03-20_14h02.18.808,Surprise recog test,2023.1.3,59.995164422770365,
266,0,266,0,,,,,,,,,,,,,,,,,,,,,,,,,,,,,,,,,,1602.4167267000303,1603.4405151000246,1600.7387071000412,1600.7387071000412,1600.7387071000412,1600.7387071000412,,old_stationery_2.png,267,1.0,1.6747749999631196,,062,01,2025-03-20_14h02.18.808,Surprise recog test,2023.1.3,59.995164422770365,
267,0,267,0,,,,,,,,,,,,,,,,,,,,,,,,,,,,,,,,,,1604.908462200081,1605.9233003000263,1603.4405151000246,1603.4405151000246,1603.4405151000246,1603.4405151000246,,new_sceneOut_11.png,268,3.0,1.4720398001372814,,062,01,2025-03-20_14h02.18.808,Surprise recog test,2023.1.3,59.995164422770365,
268,0,268,0,,,,,,,,,,,,,,,,,,,,,,,,,,,,,,,,,,1607.3226235001348,1608.3488863999955,1605.9233003000263,1605.9233003000263,1605.9233003000263,1605.9233003000263,,new_stationery_16.png,269,5.0,1.3929226999171078,,062,01,2025-03-20_14h02.18.808,Surprise recog test,2023.1.3,59.995164422770365,
269,0,269,0,,,,,,,,,,,,,,,,,,,,,,,,,,,,,,,,,,1609.646822300041,1610.6763125001453,1608.3488863999955,1608.3488863999955,1608.3488863999955,1608.3488863999955,,new_stationery_2.png,270,5.0,1.3022594000212848,,062,01,2025-03-20_14h02.18.808,Surprise recog test,2023.1.3,59.995164422770365,
270,0,270,0,,,,,,,,,,,,,,,,,,,,,,,,,,,,,,,,,,1611.9591085999273,1612.9789082999341,1610.6763125001453,1610.6763125001453,1610.6763125001453,1610.6763125001453,,new_fruit_19.png,271,3.0,1.2840069998055696,,062,01,2025-03-20_14h02.18.808,Surprise recog test,2023.1.3,59.995164422770365,
271,0,271,0,,,,,,,,,,,,,,,,,,,,,,,,,,,,,,,,,,1614.4278706000187,1615.4518824000843,1612.9789082999341,1612.9789082999341,1612.9789082999341,1612.9789082999341,,old_stationery_30.png,272,4.0,1.4505817000754178,,062,01,2025-03-20_14h02.18.808,Surprise recog test,2023.1.3,59.995164422770365,
272,0,272,0,,,,,,,,,,,,,,,,,,,,,,,,,,,,,,,,,,1616.98082850012,,1615.4518824000843,1615.4518824000843,1615.4518824000843,1615.4518824000843,,old_fruit_39.png,273,2.0,1.5339486000593752,,062,01,2025-03-20_14h02.18.808,Surprise recog test,2023.1.3,59.995164422770365,
273,0,273,0,,,,,,,,,,,,,,,,,,,,,,,,,,,,,,,,,,1619.9002427000087,,1618.0162416000385,1618.0162416000385,1618.0162416000385,1618.0162416000385,,new_stationery_15.png,274,2.0,1.8869894000235945,,062,01,2025-03-20_14h02.18.808,Surprise recog test,2023.1.3,59.995164422770365,
274,0,274,0,,,,,,,,,,,,,,,,,,,,,,,,,,,,,,,,,,1621.9132501999848,1622.9252486000769,1620.9236276000738,1620.9236276000738,1620.9236276000738,1620.9236276000738,,new_stationery_32.png,275,5.0,0.9857305001933128,,062,01,2025-03-20_14h02.18.808,Surprise recog test,2023.1.3,59.995164422770365,
275,0,275,0,,,,,,,,,,,,,,,,,,,,,,,,,,,,,,,,,,1624.659443099983,1625.6898547001183,1622.9252486000769,1622.9252486000769,1622.9252486000769,1622.9252486000769,,new_sceneIn_8.png,276,4.0,1.7288193998392671,,062,01,2025-03-20_14h02.18.808,Surprise recog test,2023.1.3,59.995164422770365,
276,0,276,0,,,,,,,,,,,,,,,,,,,,,,,,,,,,,,,,,,1626.8660420000087,1627.8913964999374,1625.6898547001183,1625.6898547001183,1625.6898547001183,1625.6898547001183,,new_sceneOut_2.png,277,3.0,1.1777927000075579,,062,01,2025-03-20_14h02.18.808,Surprise recog test,2023.1.3,59.995164422770365,
277,0,277,0,,,,,,,,,,,,,,,,,,,,,,,,,,,,,,,,,,1629.012871199986,1630.0414200001396,1627.8913964999374,1627.8913964999374,1627.8913964999374,1627.8913964999374,,new_sceneOut_25.png,278,3.0,1.1225829999893904,,062,01,2025-03-20_14h02.18.808,Surprise recog test,2023.1.3,59.995164422770365,
278,0,278,0,,,,,,,,,,,,,,,,,,,,,,,,,,,,,,,,,,1632.0493875001557,1633.076823499985,1630.0414200001396,1630.0414200001396,1630.0414200001396,1630.0414200001396,,old_sceneIn_41.png,279,2.0,2.0086474001873285,,062,01,2025-03-20_14h02.18.808,Surprise recog test,2023.1.3,59.995164422770365,
279,0,279,0,,,,,,,,,,,,,,,,,,,,,,,,,,,,,,,,,,1634.667587300064,1635.7018311999273,1633.076823499985,1633.076823499985,1633.076823499985,1633.076823499985,,old_sceneIn_5.png,280,2.0,1.5922634999733418,,062,01,2025-03-20_14h02.18.808,Surprise recog test,2023.1.3,59.995164422770365,
280,0,280,0,,,,,,,,,,,,,,,,,,,,,,,,,,,,,,,,,,1637.3312876999844,,1635.7018311999273,1635.7018311999273,1635.7018311999273,1635.7018311999273,,new_sceneOut_6.png,281,4.0,1.6344084998127073,,062,01,2025-03-20_14h02.18.808,Surprise recog test,2023.1.3,59.995164422770365,
281,0,281,0,,,,,,,,,,,,,,,,,,,,,,,,,,,,,,,,,,1640.8177958000451,,1638.3661213000305,1638.3661213000305,1638.3661213000305,1638.3661213000305,,old_fruit_23.png,282,2.0,2.4519465998746455,,062,01,2025-03-20_14h02.18.808,Surprise recog test,2023.1.3,59.995164422770365,
282,0,282,0,,,,,,,,,,,,,,,,,,,,,,,,,,,,,,,,,,1643.109002500074,1644.136780800065,1641.8511668001302,1641.8511668001302,1641.8511668001302,1641.8511668001302,,old_stationery_43.png,283,1.0,1.257634799927473,,062,01,2025-03-20_14h02.18.808,Surprise recog test,2023.1.3,59.995164422770365,
283,0,283,0,,,,,,,,,,,,,,,,,,,,,,,,,,,,,,,,,,1644.8797810000833,1645.8945877000224,1644.136780800065,1644.136780800065,1644.136780800065,1644.136780800065,,old_stationery_29.png,284,1.0,0.7435996001586318,,062,01,2025-03-20_14h02.18.808,Surprise recog test,2023.1.3,59.995164422770365,
284,0,284,0,,,,,,,,,,,,,,,,,,,,,,,,,,,,,,,,,,1647.2480930001475,1648.2610572001431,1645.8945877000224,1645.8945877000224,1645.8945877000224,1645.8945877000224,,old_sceneIn_19.png,285,2.0,1.347677299985662,,062,01,2025-03-20_14h02.18.808,Surprise recog test,2023.1.3,59.995164422770365,
285,0,285,0,,,,,,,,,,,,,,,,,,,,,,,,,,,,,,,,,,1649.0539729001466,1650.076364299981,1648.2610572001431,1648.2610572001431,1648.2610572001431,1648.2610572001431,,old_fruit_13.png,286,1.0,0.7863394001033157,,062,01,2025-03-20_14h02.18.808,Surprise recog test,2023.1.3,59.995164422770365,
286,0,286,0,,,,,,,,,,,,,,,,,,,,,,,,,,,,,,,,,,1651.793907900108,,1650.076364299981,1650.076364299981,1650.076364299981,1650.076364299981,,new_sceneOut_20.png,287,3.0,1.7191360997967422,,062,01,2025-03-20_14h02.18.808,Surprise recog test,2023.1.3,59.995164422770365,
287,0,287,0,,,,,,,,,,,,,,,,,,,,,,,,,,,,,,,,,,1654.2991840001196,1655.330995199969,1652.826799100032,1652.826799100032,1652.826799100032,1652.826799100032,,new_stationery_40.png,288,2.0,1.4749286998994648,,062,01,2025-03-20_14h02.18.808,Surprise recog test,2023.1.3,59.995164422770365,
288,0,288,0,,,,,,,,,,,,,,,,,,,,,,,,,,,,,,,,,,1656.4079957001377,1657.4308470000979,1655.330995199969,1655.330995199969,1655.330995199969,1655.330995199969,,old_stationery_34.png,289,1.0,1.0786788000259548,,062,01,2025-03-20_14h02.18.808,Surprise recog test,2023.1.3,59.995164422770365,
289,0,289,0,,,,,,,,,,,,,,,,,,,,,,,,,,,,,,,,,,1659.338180599967,1660.3676006000023,1657.4308470000979,1657.4308470000979,1657.4308470000979,1657.4308470000979,,new_sceneOut_37.png,290,2.0,1.9051729999482632,,062,01,2025-03-20_14h02.18.808,Surprise recog test,2023.1.3,59.995164422770365,
290,0,290,0,,,,,,,,,,,,,,,,,,,,,,,,,,,,,,,,,,1661.5961722000502,1662.620069900062,1660.3676006000023,1660.3676006000023,1660.3676006000023,1660.3676006000023,,new_fruit_37.png,291,3.0,1.2305793999694288,,062,01,2025-03-20_14h02.18.808,Surprise recog test,2023.1.3,59.995164422770365,
291,0,291,0,,,,,,,,,,,,,,,,,,,,,,,,,,,,,,,,,,1663.6083941999823,1664.6386699001305,1662.620069900062,1662.620069900062,1662.620069900062,1662.620069900062,,new_sceneIn_4.png,292,3.0,0.9885728999506682,,062,01,2025-03-20_14h02.18.808,Surprise recog test,2023.1.3,59.995164422770365,
292,0,292,0,,,,,,,,,,,,,,,,,,,,,,,,,,,,,,,,,,1665.2433850001544,1666.2674219999462,1664.6386699001305,1664.6386699001305,1664.6386699001305,1664.6386699001305,,new_sceneOut_45.png,293,3.0,0.6063469999935478,,062,01,2025-03-20_14h02.18.808,Surprise recog test,2023.1.3,59.995164422770365,
293,0,293,0,,,,,,,,,,,,,,,,,,,,,,,,,,,,,,,,,,1668.4309827000834,1669.4623696999624,1666.2674219999462,1666.2674219999462,1666.2674219999462,1666.2674219999462,,old_sceneIn_45.png,294,2.0,2.163489099824801,,062,01,2025-03-20_14h02.18.808,Surprise recog test,2023.1.3,59.995164422770365,
294,0,294,0,,,,,,,,,,,,,,,,,,,,,,,,,,,,,,,,,,1672.114461600082,1673.145604700083,1669.4623696999624,1669.4623696999624,1669.4623696999624,1669.4623696999624,,old_fruit_40.png,295,1.0,2.6562830999027938,,062,01,2025-03-20_14h02.18.808,Surprise recog test,2023.1.3,59.995164422770365,
295,0,295,0,,,,,,,,,,,,,,,,,,,,,,,,,,,,,,,,,,1674.2491037000436,1675.2823002000805,1673.145604700083,1673.145604700083,1673.145604700083,1673.145604700083,,new_fruit_29.png,296,2.0,1.1030177001375705,,062,01,2025-03-20_14h02.18.808,Surprise recog test,2023.1.3,59.995164422770365,
296,0,296,0,,,,,,,,,,,,,,,,,,,,,,,,,,,,,,,,,,1677.1810953000095,,1675.2823002000805,1675.2823002000805,1675.2823002000805,1675.2823002000805,,old_sceneIn_37.png,297,2.0,1.9016815999057144,,062,01,2025-03-20_14h02.18.808,Surprise recog test,2023.1.3,59.995164422770365,
297,0,297,0,,,,,,,,,,,,,,,,,,,,,,,,,,,,,,,,,,1679.8180110999383,,1678.2026395001449,1678.2026395001449,1678.2026395001449,1678.2026395001449,,old_stationery_33.png,298,1.0,1.609976600157097,,062,01,2025-03-20_14h02.18.808,Surprise recog test,2023.1.3,59.995164422770365,
298,0,298,0,,,,,,,,,,,,,,,,,,,,,,,,,,,,,,,,,,1681.7705854999367,,1680.8501719001215,1680.8501719001215,1680.8501719001215,1680.8501719001215,,new_sceneIn_23.png,299,1.0,0.9189708998892456,,062,01,2025-03-20_14h02.18.808,Surprise recog test,2023.1.3,59.995164422770365,
299,0,299,0,,,,,,,,,,,,,,,,,,,,,,,,,,,,,,,,,,1683.819877400063,,1682.8061931000557,1682.8061931000557,1682.8061931000557,1682.8061931000557,,old_stationery_16.png,300,1.0,1.0142739000730217,,062,01,2025-03-20_14h02.18.808,Surprise recog test,2023.1.3,59.995164422770365,
300,0,300,0,,,,,,,,,,,,,,,,,,,,,,,,,,,,,,,,,,1686.35737959994,1687.3819673000835,1684.8563453999814,1684.8563453999814,1684.8563453999814,1684.8563453999814,,new_sceneIn_6.png,301,4.0,1.5057785001117736,,062,01,2025-03-20_14h02.18.808,Surprise recog test,2023.1.3,59.995164422770365,
301,0,301,0,,,,,,,,,,,,,,,,,,,,,,,,,,,,,,,,,,1688.7131598000415,1689.7305531001184,1687.3819673000835,1687.3819673000835,1687.3819673000835,1687.3819673000835,,old_sceneIn_48.png,302,4.0,1.3307914999313653,,062,01,2025-03-20_14h02.18.808,Surprise recog test,2023.1.3,59.995164422770365,
302,0,302,0,,,,,,,,,,,,,,,,,,,,,,,,,,,,,,,,,,1691.8295347001404,1692.8600457001012,1689.7305531001184,1689.7305531001184,1689.7305531001184,1689.7305531001184,,new_stationery_45.png,303,4.0,2.0948062997777015,,062,01,2025-03-20_14h02.18.808,Surprise recog test,2023.1.3,59.995164422770365,
303,0,303,0,,,,,,,,,,,,,,,,,,,,,,,,,,,,,,,,,,1694.2436514999717,1695.2629657001235,1692.8600457001012,1692.8600457001012,1692.8600457001012,1692.8600457001012,,old_fruit_8.png,304,1.0,1.384414000203833,,062,01,2025-03-20_14h02.18.808,Surprise recog test,2023.1.3,59.995164422770365,
304,0,304,0,,,,,,,,,,,,,,,,,,,,,,,,,,,,,,,,,,1697.4534928000066,1698.471082400065,1695.2629657001235,1695.2629657001235,1695.2629657001235,1695.2629657001235,,new_stationery_4.png,305,2.0,2.1935861001256853,,062,01,2025-03-20_14h02.18.808,Surprise recog test,2023.1.3,59.995164422770365,
305,0,305,0,,,,,,,,,,,,,,,,,,,,,,,,,,,,,,,,,,1699.8762497999705,1700.9044772000052,1698.471082400065,1698.471082400065,1698.471082400065,1698.471082400065,,new_fruit_45.png,306,3.0,1.401071600150317,,062,01,2025-03-20_14h02.18.808,Surprise recog test,2023.1.3,59.995164422770365,
306,0,306,0,,,,,,,,,,,,,,,,,,,,,,,,,,,,,,,,,,1703.3837540000677,1704.4049122999422,1700.9044772000052,1700.9044772000052,1700.9044772000052,1700.9044772000052,,old_fruit_2.png,307,3.0,2.4811998000368476,,062,01,2025-03-20_14h02.18.808,Surprise recog test,2023.1.3,59.995164422770365,
307,0,307,0,,,,,,,,,,,,,,,,,,,,,,,,,,,,,,,,,,1705.8771269000135,1706.8943972999696,1704.4049122999422,1704.4049122999422,1704.4049122999422,1704.4049122999422,,new_fruit_50.png,308,1.0,1.474711700109765,,062,01,2025-03-20_14h02.18.808,Surprise recog test,2023.1.3,59.995164422770365,
308,0,308,0,,,,,,,,,,,,,,,,,,,,,,,,,,,,,,,,,,1708.614396299934,1709.6448936001398,1706.8943972999696,1706.8943972999696,1706.8943972999696,1706.8943972999696,,new_stationery_18.png,309,5.0,1.7165267001837492,,062,01,2025-03-20_14h02.18.808,Surprise recog test,2023.1.3,59.995164422770365,
309,0,309,0,,,,,,,,,,,,,,,,,,,,,,,,,,,,,,,,,,1710.7487524999306,1711.765825400129,1709.6448936001398,1709.6448936001398,1709.6448936001398,1709.6448936001398,,new_sceneOut_10.png,310,5.0,1.1039712000638247,,062,01,2025-03-20_14h02.18.808,Surprise recog test,2023.1.3,59.995164422770365,
310,0,310,0,,,,,,,,,,,,,,,,,,,,,,,,,,,,,,,,,,1713.7646288999822,1714.784351499984,1711.765825400129,1711.765825400129,1711.765825400129,1711.765825400129,,old_sceneIn_3.png,311,4.0,1.9936526999808848,,062,01,2025-03-20_14h02.18.808,Surprise recog test,2023.1.3,59.995164422770365,
311,0,311,0,,,,,,,,,,,,,,,,,,,,,,,,,,,,,,,,,,1717.2534982000943,1718.2842989000492,1714.784351499984,1714.784351499984,1714.784351499984,1714.784351499984,,old_stationery_17.png,312,1.0,2.4643188000191003,,062,01,2025-03-20_14h02.18.808,Surprise recog test,2023.1.3,59.995164422770365,
312,0,312,0,,,,,,,,,,,,,,,,,,,,,,,,,,,,,,,,,,1721.3839871999808,1722.3911677999422,1718.2842989000492,1718.2842989000492,1718.2842989000492,1718.2842989000492,,old_sceneIn_4.png,313,3.0,3.1013680999167264,,062,01,2025-03-20_14h02.18.808,Surprise recog test,2023.1.3,59.995164422770365,
313,0,313,0,,,,,,,,,,,,,,,,,,,,,,,,,,,,,,,,,,1723.3792701000348,1724.3881977000274,1722.3911677999422,1722.3911677999422,1722.3911677999422,1722.3911677999422,,new_sceneOut_5.png,314,3.0,0.9844754999503493,,062,01,2025-03-20_14h02.18.808,Surprise recog test,2023.1.3,59.995164422770365,
314,0,314,0,,,,,,,,,,,,,,,,,,,,,,,,,,,,,,,,,,1727.081785199931,1728.0923663000576,1724.3881977000274,1724.3881977000274,1724.3881977000274,1724.3881977000274,,old_stationery_22.png,315,1.0,2.6883857999928296,,062,01,2025-03-20_14h02.18.808,Surprise recog test,2023.1.3,59.995164422770365,
315,0,315,0,,,,,,,,,,,,,,,,,,,,,,,,,,,,,,,,,,1729.690765999956,1730.707098599989,1728.0923663000576,1728.0923663000576,1728.0923663000576,1728.0923663000576,,old_sceneIn_31.png,316,1.0,1.5942597999237478,,062,01,2025-03-20_14h02.18.808,Surprise recog test,2023.1.3,59.995164422770365,
316,0,316,0,,,,,,,,,,,,,,,,,,,,,,,,,,,,,,,,,,1732.3929640001152,1733.3980022999458,1730.707098599989,1730.707098599989,1730.707098599989,1730.707098599989,,new_sceneOut_7.png,317,3.0,1.6828409999143332,,062,01,2025-03-20_14h02.18.808,Surprise recog test,2023.1.3,59.995164422770365,
317,0,317,0,,,,,,,,,,,,,,,,,,,,,,,,,,,,,,,,,,1734.6049925000407,1735.6183408000506,1733.3980022999458,1733.3980022999458,1733.3980022999458,1733.3980022999458,,new_stationery_5.png,318,3.0,1.2016531999688596,,062,01,2025-03-20_14h02.18.808,Surprise recog test,2023.1.3,59.995164422770365,
318,0,318,0,,,,,,,,,,,,,,,,,,,,,,,,,,,,,,,,,,1737.970586300129,1738.9942958001047,1735.6183408000506,1735.6183408000506,1735.6183408000506,1735.6183408000506,,new_fruit_1.png,319,3.0,2.345998000120744,,062,01,2025-03-20_14h02.18.808,Surprise recog test,2023.1.3,59.995164422770365,
319,0,319,0,,,,,,,,,,,,,,,,,,,,,,,,,,,,,,,,,,1740.500047000125,1741.506070200121,1738.9942958001047,1738.9942958001047,1738.9942958001047,1738.9942958001047,,old_fruit_17.png,320,2.0,1.5077332998625934,,062,01,2025-03-20_14h02.18.808,Surprise recog test,2023.1.3,59.995164422770365,
320,0,320,0,,,,,,,,,,,,,,,,,,,,,,,,,,,,,,,,,,1743.3073567000683,1744.3266175000463,1741.506070200121,1741.506070200121,1741.506070200121,1741.506070200121,,new_fruit_12.png,321,4.0,1.7971671998966485,,062,01,2025-03-20_14h02.18.808,Surprise recog test,2023.1.3,59.995164422770365,
321,0,321,0,,,,,,,,,,,,,,,,,,,,,,,,,,,,,,,,,,1745.4616487000603,1746.4905880000442,1744.3266175000463,1744.3266175000463,1744.3266175000463,1744.3266175000463,,old_sceneOut_39.png,322,3.0,1.1282035000622272,,062,01,2025-03-20_14h02.18.808,Surprise recog test,2023.1.3,59.995164422770365,
322,0,322,0,,,,,,,,,,,,,,,,,,,,,,,,,,,,,,,,,,1748.4729025000706,1749.4795926001389,1746.4905880000442,1746.4905880000442,1746.4905880000442,1746.4905880000442,,new_stationery_24.png,323,2.0,1.9847657999489456,,062,01,2025-03-20_14h02.18.808,Surprise recog test,2023.1.3,59.995164422770365,
323,0,323,0,,,,,,,,,,,,,,,,,,,,,,,,,,,,,,,,,,1752.123293200042,1753.1464365001302,1749.4795926001389,1749.4795926001389,1749.4795926001389,1749.4795926001389,,old_sceneIn_38.png,324,3.0,2.638608800014481,,062,01,2025-03-20_14h02.18.808,Surprise recog test,2023.1.3,59.995164422770365,
324,0,324,0,,,,,,,,,,,,,,,,,,,,,,,,,,,,,,,,,,1755.0149515999947,,1753.1464365001302,1753.1464365001302,1753.1464365001302,1753.1464365001302,,new_stationery_47.png,325,4.0,1.8714233001228422,,062,01,2025-03-20_14h02.18.808,Surprise recog test,2023.1.3,59.995164422770365,
325,0,325,0,,,,,,,,,,,,,,,,,,,,,,,,,,,,,,,,,,1757.8130831001326,1758.8284847999457,1756.051163099939,1756.051163099939,1756.051163099939,1756.051163099939,,new_sceneOut_34.png,326,2.0,1.7630470001604408,,062,01,2025-03-20_14h02.18.808,Surprise recog test,2023.1.3,59.995164422770365,
326,0,326,0,,,,,,,,,,,,,,,,,,,,,,,,,,,,,,,,,,1760.632999200141,1761.6546563000884,1758.8284847999457,1758.8284847999457,1758.8284847999457,1758.8284847999457,,new_stationery_14.png,327,4.0,1.8039487998466939,,062,01,2025-03-20_14h02.18.808,Surprise recog test,2023.1.3,59.995164422770365,
327,0,327,0,,,,,,,,,,,,,,,,,,,,,,,,,,,,,,,,,,1763.117023800034,1764.1318657000083,1761.6546563000884,1761.6546563000884,1761.6546563000884,1761.6546563000884,,old_stationery_42.png,328,1.0,1.4640791998244822,,062,01,2025-03-20_14h02.18.808,Surprise recog test,2023.1.3,59.995164422770365,
328,0,328,0,,,,,,,,,,,,,,,,,,,,,,,,,,,,,,,,,,1767.810670700157,1768.830672699958,1764.1318657000083,1764.1318657000083,1764.1318657000083,1764.1318657000083,,new_sceneIn_34.png,329,3.0,3.6808464999776334,,062,01,2025-03-20_14h02.18.808,Surprise recog test,2023.1.3,59.995164422770365,
329,0,329,0,,,,,,,,,,,,,,,,,,,,,,,,,,,,,,,,,,1769.7106413999572,1770.7270460000727,1768.830672699958,1768.830672699958,1768.830672699958,1768.830672699958,,old_sceneIn_17.png,330,3.0,0.8725623998325318,,062,01,2025-03-20_14h02.18.808,Surprise recog test,2023.1.3,59.995164422770365,
330,0,330,0,,,,,,,,,,,,,,,,,,,,,,,,,,,,,,,,,,1773.3346311000641,1774.3619886001106,1770.7270460000727,1770.7270460000727,1770.7270460000727,1770.7270460000727,,old_sceneIn_39.png,331,2.0,2.6021519000642,,062,01,2025-03-20_14h02.18.808,Surprise recog test,2023.1.3,59.995164422770365,
331,0,331,0,,,,,,,,,,,,,,,,,,,,,,,,,,,,,,,,,,1775.9201199000236,1776.949317800114,1774.3619886001106,1774.3619886001106,1774.3619886001106,1774.3619886001106,,old_sceneOut_36.png,332,3.0,1.559305900009349,,062,01,2025-03-20_14h02.18.808,Surprise recog test,2023.1.3,59.995164422770365,
332,0,332,0,,,,,,,,,,,,,,,,,,,,,,,,,,,,,,,,,,1778.9920823001303,1780.0174943001475,1776.949317800114,1776.949317800114,1776.949317800114,1776.949317800114,,new_fruit_36.png,333,1.0,2.0445743000600487,,062,01,2025-03-20_14h02.18.808,Surprise recog test,2023.1.3,59.995164422770365,
333,0,333,0,,,,,,,,,,,,,,,,,,,,,,,,,,,,,,,,,,1782.0508680001367,1783.0574473000597,1780.0174943001475,1780.0174943001475,1780.0174943001475,1780.0174943001475,,old_fruit_16.png,334,2.0,2.0344976000487804,,062,01,2025-03-20_14h02.18.808,Surprise recog test,2023.1.3,59.995164422770365,
334,0,334,0,,,,,,,,,,,,,,,,,,,,,,,,,,,,,,,,,,1785.0801943000406,1786.1063038001303,1783.0574473000597,1783.0574473000597,1783.0574473000597,1783.0574473000597,,old_sceneOut_25.png,335,4.0,2.0185216998215765,,062,01,2025-03-20_14h02.18.808,Surprise recog test,2023.1.3,59.995164422770365,
335,0,335,0,,,,,,,,,,,,,,,,,,,,,,,,,,,,,,,,,,1787.6276660999283,1788.6426012001466,1786.1063038001303,1786.1063038001303,1786.1063038001303,1786.1063038001303,,new_sceneIn_48.png,336,4.0,1.5199709997978061,,062,01,2025-03-20_14h02.18.808,Surprise recog test,2023.1.3,59.995164422770365,
336,0,336,0,,,,,,,,,,,,,,,,,,,,,,,,,,,,,,,,,,1790.6937748999335,,1788.6426012001466,1788.6426012001466,1788.6426012001466,1788.6426012001466,,old_stationery_38.png,337,2.0,2.0483911999035627,,062,01,2025-03-20_14h02.18.808,Surprise recog test,2023.1.3,59.995164422770365,
337,0,337,0,,,,,,,,,,,,,,,,,,,,,,,,,,,,,,,,,,1793.8240173000377,1794.8399845000822,1791.726601100061,1791.726601100061,1791.726601100061,1791.726601100061,,new_fruit_8.png,338,1.0,2.0999208001885563,,062,01,2025-03-20_14h02.18.808,Surprise recog test,2023.1.3,59.995164422770365,
338,0,338,0,,,,,,,,,,,,,,,,,,,,,,,,,,,,,,,,,,1799.662140800152,1800.6725932001136,1794.8399845000822,1794.8399845000822,1794.8399845000822,1794.8399845000822,,new_sceneIn_31.png,339,2.0,4.8209423997905105,,062,01,2025-03-20_14h02.18.808,Surprise recog test,2023.1.3,59.995164422770365,
339,0,339,0,,,,,,,,,,,,,,,,,,,,,,,,,,,,,,,,,,1801.765881499974,1802.7883131001145,1800.6725932001136,1800.6725932001136,1800.6725932001136,1800.6725932001136,,old_fruit_24.png,340,1.0,1.0865776999853551,,062,01,2025-03-20_14h02.18.808,Surprise recog test,2023.1.3,59.995164422770365,
340,0,340,0,,,,,,,,,,,,,,,,,,,,,,,,,,,,,,,,,,1804.2463416000828,1805.2688651999924,1802.7883131001145,1802.7883131001145,1802.7883131001145,1802.7883131001145,,new_stationery_46.png,341,5.0,1.4601697998587042,,062,01,2025-03-20_14h02.18.808,Surprise recog test,2023.1.3,59.995164422770365,
341,0,341,0,,,,,,,,,,,,,,,,,,,,,,,,,,,,,,,,,,1807.0229593999684,,1805.2688651999924,1805.2688651999924,1805.2688651999924,1805.2688651999924,,old_sceneOut_4.png,342,4.0,1.7535135000944138,,062,01,2025-03-20_14h02.18.808,Surprise recog test,2023.1.3,59.995164422770365,
342,0,342,0,,,,,,,,,,,,,,,,,,,,,,,,,,,,,,,,,,1810.0942194000818,1811.1139825000428,1808.0528581000399,1808.0528581000399,1808.0528581000399,1808.0528581000399,,new_sceneOut_31.png,343,2.0,2.03937379992567,,062,01,2025-03-20_14h02.18.808,Surprise recog test,2023.1.3,59.995164422770365,
343,0,343,0,,,,,,,,,,,,,,,,,,,,,,,,,,,,,,,,,,1812.3982130000368,1813.4246084000915,1811.1139825000428,1811.1139825000428,1811.1139825000428,1811.1139825000428,,old_fruit_35.png,344,2.0,1.2803309999872,,062,01,2025-03-20_14h02.18.808,Surprise recog test,2023.1.3,59.995164422770365,
344,0,344,0,,,,,,,,,,,,,,,,,,,,,,,,,,,,,,,,,,1815.1089485001285,1816.133683900116,1813.4246084000915,1813.4246084000915,1813.4246084000915,1813.4246084000915,,new_sceneIn_13.png,345,3.0,1.6861246000044048,,062,01,2025-03-20_14h02.18.808,Surprise recog test,2023.1.3,59.995164422770365,
345,0,345,0,,,,,,,,,,,,,,,,,,,,,,,,,,,,,,,,,,1817.875385900028,1818.9027408000547,1816.133683900116,1816.133683900116,1816.133683900116,1816.133683900116,,old_stationery_32.png,346,2.0,1.744195899926126,,062,01,2025-03-20_14h02.18.808,Surprise recog test,2023.1.3,59.995164422770365,
346,0,346,0,,,,,,,,,,,,,,,,,,,,,,,,,,,,,,,,,,1820.1068643000908,1821.1412639999762,1818.9027408000547,1818.9027408000547,1818.9027408000547,1818.9027408000547,,new_sceneIn_50.png,347,5.0,1.2090786998160183,,062,01,2025-03-20_14h02.18.808,Surprise recog test,2023.1.3,59.995164422770365,
347,0,347,0,,,,,,,,,,,,,,,,,,,,,,,,,,,,,,,,,,1822.6198728000745,,1821.1412639999762,1821.1412639999762,1821.1412639999762,1821.1412639999762,,new_fruit_49.png,348,4.0,1.4799821998458356,,062,01,2025-03-20_14h02.18.808,Surprise recog test,2023.1.3,59.995164422770365,
