trial_loop.thisRepN,trial_loop.thisTrialN,trial_loop.thisN,trial_loop.thisIndex,VAS_slider.started,VAS_text.started,VAS_notstressed_text.started,VAS_stressed_text.started,continue_input.started,continue_text.started,label0.started,label10.started,label20.started,label30.started,label40.started,label50.started,label60.started,label70.started,label80.started,label90.started,label100.started,VAS_slider.response,VAS_slider.rt,VAS_slider.history,Answer_VAS,continue_input.keys,instruction_text.started,continue_text_2.started,continue_input_2.started,continue_input_2.keys,continue_input_2.rt,continue_input_2.duration,example_text.started,example_slider_2.started,example_image.started,example_slider_2.response,example_slider_2.rt,fixcross.started,fixcross.stopped,front_square.started,stim_images.started,trial_inst_images.started,slider_images.started,thisImg,trial_count,slider_images.response,slider_images.rt,outro.started,participant,condition,date,expName,psychopyVersion,frameRate,
,,,,876.1732495999895,876.1732495999895,876.1732495999895,876.1732495999895,876.1732495999895,876.1732495999895,876.1732495999895,876.1732495999895,876.1732495999895,876.1732495999895,876.1732495999895,876.1732495999895,876.1732495999895,876.1732495999895,876.1732495999895,876.1732495999895,876.1732495999895,0.461111111111111,5.600170500110835,"[(0.461111111111111, 5.600170500110835)]",0.461111111111111,None,,,,,,,,,,,,,,,,,,,,,,,063,00,2025-03-21_13h55.41.427,Surprise recog test,2023.1.3,59.958077272352696,
,,,,,,,,,,,,,,,,,,,,,,,,,,881.8007820001803,881.8007820001803,881.8007820001803,space,18.218057799851522,None,,,,,,,,,,,,,,,,,063,00,2025-03-21_13h55.41.427,Surprise recog test,2023.1.3,59.958077272352696,
0,0,0,0,,,,,,,,,,,,,,,,,,,,,,,,,,,,,900.1589093999937,900.1589093999937,900.1589093999937,1.0,5.9314846999477595,909.0903034000657,910.0959137000609,907.0360404001549,907.0360404001549,907.0360404001549,907.0360404001549,new_sceneOut_10.png,1,3.0,2.047919299919158,,063,00,2025-03-21_13h55.41.427,Surprise recog test,2023.1.3,59.958077272352696,
1,0,1,0,,,,,,,,,,,,,,,,,,,,,,,,,,,,,,,,,,912.3928981001955,913.3984499999788,910.0959137000609,910.0959137000609,910.0959137000609,910.0959137000609,new_stationery_49.png,2,5.0,2.288431500084698,,063,00,2025-03-21_13h55.41.427,Surprise recog test,2023.1.3,59.958077272352696,
2,0,2,0,,,,,,,,,,,,,,,,,,,,,,,,,,,,,,,,,,915.3955087000504,916.4010381000116,913.3984499999788,913.3984499999788,913.3984499999788,913.3984499999788,old_sceneIn_38.png,3,5.0,1.9883012000937015,,063,00,2025-03-21_13h55.41.427,Surprise recog test,2023.1.3,59.958077272352696,
3,0,3,0,,,,,,,,,,,,,,,,,,,,,,,,,,,,,,,,,,919.7823774002027,920.7883993000723,916.4010381000116,916.4010381000116,916.4010381000116,916.4010381000116,old_sceneOut_38.png,4,2.0,3.372337699867785,,063,00,2025-03-21_13h55.41.427,Surprise recog test,2023.1.3,59.958077272352696,
4,0,4,0,,,,,,,,,,,,,,,,,,,,,,,,,,,,,,,,,,922.9851257000118,923.9903540001251,920.7883993000723,920.7883993000723,920.7883993000723,920.7883993000723,old_fruit_3.png,5,1.0,2.1872076999861747,,063,00,2025-03-21_13h55.41.427,Surprise recog test,2023.1.3,59.958077272352696,
5,0,5,0,,,,,,,,,,,,,,,,,,,,,,,,,,,,,,,,,,925.003421400208,926.0088987001218,923.9903540001251,923.9903540001251,923.9903540001251,923.9903540001251,new_fruit_21.png,6,1.0,1.0036600998137146,,063,00,2025-03-21_13h55.41.427,Surprise recog test,2023.1.3,59.958077272352696,
6,0,6,0,,,,,,,,,,,,,,,,,,,,,,,,,,,,,,,,,,928.0392993001733,929.0450750000309,926.0088987001218,926.0088987001218,926.0088987001218,926.0088987001218,new_sceneIn_34.png,7,2.0,2.0207026000134647,,063,00,2025-03-21_13h55.41.427,Surprise recog test,2023.1.3,59.958077272352696,
7,0,7,0,,,,,,,,,,,,,,,,,,,,,,,,,,,,,,,,,,931.175347500015,932.1817677000072,929.0450750000309,929.0450750000309,929.0450750000309,929.0450750000309,new_sceneOut_4.png,8,1.0,2.1211870000697672,,063,00,2025-03-21_13h55.41.427,Surprise recog test,2023.1.3,59.958077272352696,
8,0,8,0,,,,,,,,,,,,,,,,,,,,,,,,,,,,,,,,,,933.5605546000879,934.5652815999929,932.1817677000072,932.1817677000072,932.1817677000072,932.1817677000072,old_sceneOut_25.png,9,1.0,1.3703761000651866,,063,00,2025-03-21_13h55.41.427,Surprise recog test,2023.1.3,59.958077272352696,
9,0,9,0,,,,,,,,,,,,,,,,,,,,,,,,,,,,,,,,,,937.0134537999984,938.0184373001102,934.5652815999929,934.5652815999929,934.5652815999929,934.5652815999929,new_fruit_38.png,10,2.0,2.438794400077313,,063,00,2025-03-21_13h55.41.427,Surprise recog test,2023.1.3,59.958077272352696,
10,0,10,0,,,,,,,,,,,,,,,,,,,,,,,,,,,,,,,,,,939.8824945001397,940.8872122000903,938.0184373001102,938.0184373001102,938.0184373001102,938.0184373001102,new_sceneOut_8.png,11,5.0,1.8541254999581724,,063,00,2025-03-21_13h55.41.427,Surprise recog test,2023.1.3,59.958077272352696,
11,0,11,0,,,,,,,,,,,,,,,,,,,,,,,,,,,,,,,,,,942.6848965000827,943.6893303000834,940.8872122000903,940.8872122000903,940.8872122000903,940.8872122000903,new_stationery_6.png,12,2.0,1.7870396000798792,,063,00,2025-03-21_13h55.41.427,Surprise recog test,2023.1.3,59.958077272352696,
12,0,12,0,,,,,,,,,,,,,,,,,,,,,,,,,,,,,,,,,,946.4879858000204,947.4960872000083,943.6893303000834,943.6893303000834,943.6893303000834,943.6893303000834,new_sceneIn_26.png,13,3.0,2.7891987001057714,,063,00,2025-03-21_13h55.41.427,Surprise recog test,2023.1.3,59.958077272352696,
13,0,13,0,,,,,,,,,,,,,,,,,,,,,,,,,,,,,,,,,,949.3738220001105,950.3791674000677,947.4960872000083,947.4960872000083,947.4960872000083,947.4960872000083,old_fruit_5.png,14,1.0,1.871630699839443,,063,00,2025-03-21_13h55.41.427,Surprise recog test,2023.1.3,59.958077272352696,
14,0,14,0,,,,,,,,,,,,,,,,,,,,,,,,,,,,,,,,,,952.2094134001527,953.2154904000927,950.3791674000677,950.3791674000677,950.3791674000677,950.3791674000677,new_sceneOut_28.png,15,3.0,1.8203908998984843,,063,00,2025-03-21_13h55.41.427,Surprise recog test,2023.1.3,59.958077272352696,
15,0,15,0,,,,,,,,,,,,,,,,,,,,,,,,,,,,,,,,,,955.7623290000483,956.7675999000203,953.2154904000927,953.2154904000927,953.2154904000927,953.2154904000927,old_sceneOut_6.png,16,3.0,2.537676400039345,,063,00,2025-03-21_13h55.41.427,Surprise recog test,2023.1.3,59.958077272352696,
16,0,16,0,,,,,,,,,,,,,,,,,,,,,,,,,,,,,,,,,,958.8362527000718,959.8713049001526,956.7675999000203,956.7675999000203,956.7675999000203,956.7675999000203,old_sceneOut_30.png,17,2.0,2.0646169998217374,,063,00,2025-03-21_13h55.41.427,Surprise recog test,2023.1.3,59.958077272352696,
17,0,17,0,,,,,,,,,,,,,,,,,,,,,,,,,,,,,,,,,,961.5242781001143,962.5542859002016,959.8713049001526,959.8713049001526,959.8713049001526,959.8713049001526,new_fruit_32.png,18,1.0,1.6562903998419642,,063,00,2025-03-21_13h55.41.427,Surprise recog test,2023.1.3,59.958077272352696,
18,0,18,0,,,,,,,,,,,,,,,,,,,,,,,,,,,,,,,,,,963.5805175001733,964.6053683999926,962.5542859002016,962.5542859002016,962.5542859002016,962.5542859002016,old_fruit_39.png,19,1.0,1.0284656998701394,,063,00,2025-03-21_13h55.41.427,Surprise recog test,2023.1.3,59.958077272352696,
19,0,19,0,,,,,,,,,,,,,,,,,,,,,,,,,,,,,,,,,,966.4333519001957,967.4607325000688,964.6053683999926,964.6053683999926,964.6053683999926,964.6053683999926,old_sceneIn_12.png,20,4.0,1.8297717000823468,,063,00,2025-03-21_13h55.41.427,Surprise recog test,2023.1.3,59.958077272352696,
20,0,20,0,,,,,,,,,,,,,,,,,,,,,,,,,,,,,,,,,,969.6252526000608,970.6458627001848,967.4607325000688,967.4607325000688,967.4607325000688,967.4607325000688,new_fruit_18.png,21,1.0,2.1679925001226366,,063,00,2025-03-21_13h55.41.427,Surprise recog test,2023.1.3,59.958077272352696,
21,0,21,0,,,,,,,,,,,,,,,,,,,,,,,,,,,,,,,,,,972.4726644000039,973.4961385000497,970.6458627001848,970.6458627001848,970.6458627001848,970.6458627001848,new_sceneOut_16.png,22,3.0,1.8285300000570714,,063,00,2025-03-21_13h55.41.427,Surprise recog test,2023.1.3,59.958077272352696,
22,0,22,0,,,,,,,,,,,,,,,,,,,,,,,,,,,,,,,,,,975.7102540000342,976.7320413000416,973.4961385000497,973.4961385000497,973.4961385000497,973.4961385000497,new_sceneOut_23.png,23,5.0,2.2155242001172155,,063,00,2025-03-21_13h55.41.427,Surprise recog test,2023.1.3,59.958077272352696,
23,0,23,0,,,,,,,,,,,,,,,,,,,,,,,,,,,,,,,,,,978.9615873000585,979.9851544999983,976.7320413000416,976.7320413000416,976.7320413000416,976.7320413000416,new_stationery_13.png,24,1.0,2.2314726000186056,,063,00,2025-03-21_13h55.41.427,Surprise recog test,2023.1.3,59.958077272352696,
24,0,24,0,,,,,,,,,,,,,,,,,,,,,,,,,,,,,,,,,,982.8143275000621,983.8358274002094,979.9851544999983,979.9851544999983,979.9851544999983,979.9851544999983,new_sceneOut_37.png,25,3.0,2.831189899938181,,063,00,2025-03-21_13h55.41.427,Surprise recog test,2023.1.3,59.958077272352696,
25,0,25,0,,,,,,,,,,,,,,,,,,,,,,,,,,,,,,,,,,985.796071600169,986.8235769001767,983.8358274002094,983.8358274002094,983.8358274002094,983.8358274002094,new_sceneOut_29.png,26,4.0,1.961848699953407,,063,00,2025-03-21_13h55.41.427,Surprise recog test,2023.1.3,59.958077272352696,
26,0,26,0,,,,,,,,,,,,,,,,,,,,,,,,,,,,,,,,,,989.0064383000135,990.0282305001747,986.8235769001767,986.8235769001767,986.8235769001767,986.8235769001767,old_sceneIn_44.png,27,2.0,2.1811924998182803,,063,00,2025-03-21_13h55.41.427,Surprise recog test,2023.1.3,59.958077272352696,
27,0,27,0,,,,,,,,,,,,,,,,,,,,,,,,,,,,,,,,,,992.2739105001092,993.2845781000797,990.0282305001747,990.0282305001747,990.0282305001747,990.0282305001747,new_stationery_33.png,28,4.0,2.247567899990827,,063,00,2025-03-21_13h55.41.427,Surprise recog test,2023.1.3,59.958077272352696,
28,0,28,0,,,,,,,,,,,,,,,,,,,,,,,,,,,,,,,,,,994.6168417001609,995.6511231001932,993.2845781000797,993.2845781000797,993.2845781000797,993.2845781000797,new_fruit_36.png,29,4.0,1.3285717000253499,,063,00,2025-03-21_13h55.41.427,Surprise recog test,2023.1.3,59.958077272352696,
29,0,29,0,,,,,,,,,,,,,,,,,,,,,,,,,,,,,,,,,,998.1882488001138,999.2052188999951,995.6511231001932,995.6511231001932,995.6511231001932,995.6511231001932,old_fruit_2.png,30,2.0,2.5379890999756753,,063,00,2025-03-21_13h55.41.427,Surprise recog test,2023.1.3,59.958077272352696,
30,0,30,0,,,,,,,,,,,,,,,,,,,,,,,,,,,,,,,,,,1000.8837294001132,1001.8899461000692,999.2052188999951,999.2052188999951,999.2052188999951,999.2052188999951,new_sceneIn_17.png,31,4.0,1.6757163000293076,,063,00,2025-03-21_13h55.41.427,Surprise recog test,2023.1.3,59.958077272352696,
31,0,31,0,,,,,,,,,,,,,,,,,,,,,,,,,,,,,,,,,,1003.734697500011,1004.7580358001869,1001.8899461000692,1001.8899461000692,1001.8899461000692,1001.8899461000692,new_sceneOut_49.png,32,2.0,1.8408600001130253,,063,00,2025-03-21_13h55.41.427,Surprise recog test,2023.1.3,59.958077272352696,
32,0,32,0,,,,,,,,,,,,,,,,,,,,,,,,,,,,,,,,,,1006.3648900000844,1007.3910489000846,1004.7580358001869,1004.7580358001869,1004.7580358001869,1004.7580358001869,new_sceneIn_45.png,33,3.0,1.6055026999674737,,063,00,2025-03-21_13h55.41.427,Surprise recog test,2023.1.3,59.958077272352696,
33,0,33,0,,,,,,,,,,,,,,,,,,,,,,,,,,,,,,,,,,1009.2529317000881,1010.273492900189,1007.3910489000846,1007.3910489000846,1007.3910489000846,1007.3910489000846,new_sceneIn_11.png,34,4.0,1.863027699990198,,063,00,2025-03-21_13h55.41.427,Surprise recog test,2023.1.3,59.958077272352696,
34,0,34,0,,,,,,,,,,,,,,,,,,,,,,,,,,,,,,,,,,1012.404412999982,1013.431857299991,1010.273492900189,1010.273492900189,1010.273492900189,1010.273492900189,old_sceneOut_14.png,35,5.0,2.132365500088781,,063,00,2025-03-21_13h55.41.427,Surprise recog test,2023.1.3,59.958077272352696,
35,0,35,0,,,,,,,,,,,,,,,,,,,,,,,,,,,,,,,,,,1014.5237976000644,1015.5529628000222,1013.431857299991,1013.431857299991,1013.431857299991,1013.431857299991,new_sceneIn_36.png,36,5.0,1.093806599965319,,063,00,2025-03-21_13h55.41.427,Surprise recog test,2023.1.3,59.958077272352696,
36,0,36,0,,,,,,,,,,,,,,,,,,,,,,,,,,,,,,,,,,1018.0696861001197,1019.0915439000819,1015.5529628000222,1015.5529628000222,1015.5529628000222,1015.5529628000222,old_sceneIn_3.png,37,4.0,2.5208876999095082,,063,00,2025-03-21_13h55.41.427,Surprise recog test,2023.1.3,59.958077272352696,
37,0,37,0,,,,,,,,,,,,,,,,,,,,,,,,,,,,,,,,,,1020.496132500004,1021.505736600142,1019.0915439000819,1019.0915439000819,1019.0915439000819,1019.0915439000819,old_fruit_20.png,38,4.0,1.4036896999459714,,063,00,2025-03-21_13h55.41.427,Surprise recog test,2023.1.3,59.958077272352696,
38,0,38,0,,,,,,,,,,,,,,,,,,,,,,,,,,,,,,,,,,1022.6160718000028,1023.6224513000343,1021.505736600142,1021.505736600142,1021.505736600142,1021.505736600142,new_sceneIn_20.png,39,4.0,1.1053145001642406,,063,00,2025-03-21_13h55.41.427,Surprise recog test,2023.1.3,59.958077272352696,
39,0,39,0,,,,,,,,,,,,,,,,,,,,,,,,,,,,,,,,,,1025.5613826999906,1026.5757819002029,1023.6224513000343,1023.6224513000343,1023.6224513000343,1023.6224513000343,old_stationery_45.png,40,1.0,1.934988300083205,,063,00,2025-03-21_13h55.41.427,Surprise recog test,2023.1.3,59.958077272352696,
40,0,40,0,,,,,,,,,,,,,,,,,,,,,,,,,,,,,,,,,,1028.888025799999,1029.9118525001686,1026.5757819002029,1026.5757819002029,1026.5757819002029,1026.5757819002029,old_sceneIn_19.png,41,3.0,2.308651300147176,,063,00,2025-03-21_13h55.41.427,Surprise recog test,2023.1.3,59.958077272352696,
41,0,41,0,,,,,,,,,,,,,,,,,,,,,,,,,,,,,,,,,,1031.1635271001142,1032.1970624001697,1029.9118525001686,1029.9118525001686,1029.9118525001686,1029.9118525001686,new_sceneIn_16.png,42,3.0,1.256175999995321,,063,00,2025-03-21_13h55.41.427,Surprise recog test,2023.1.3,59.958077272352696,
42,0,42,0,,,,,,,,,,,,,,,,,,,,,,,,,,,,,,,,,,1033.902959200088,1034.9348502000794,1032.1970624001697,1032.1970624001697,1032.1970624001697,1032.1970624001697,new_fruit_35.png,43,2.0,1.706864400068298,,063,00,2025-03-21_13h55.41.427,Surprise recog test,2023.1.3,59.958077272352696,
43,0,43,0,,,,,,,,,,,,,,,,,,,,,,,,,,,,,,,,,,1036.7955895999912,1037.8164407000877,1034.9348502000794,1034.9348502000794,1034.9348502000794,1034.9348502000794,new_fruit_40.png,44,1.0,1.8636402001138777,,063,00,2025-03-21_13h55.41.427,Surprise recog test,2023.1.3,59.958077272352696,
44,0,44,0,,,,,,,,,,,,,,,,,,,,,,,,,,,,,,,,,,1039.8704868999775,,1037.8164407000877,1037.8164407000877,1037.8164407000877,1037.8164407000877,old_sceneIn_1.png,45,2.0,2.0539935999549925,,063,00,2025-03-21_13h55.41.427,Surprise recog test,2023.1.3,59.958077272352696,
45,0,45,0,,,,,,,,,,,,,,,,,,,,,,,,,,,,,,,,,,1043.289175500162,,1040.9019887000322,1040.9019887000322,1040.9019887000322,1040.9019887000322,old_sceneOut_40.png,46,2.0,2.3900742998812348,,063,00,2025-03-21_13h55.41.427,Surprise recog test,2023.1.3,59.958077272352696,
46,0,46,0,,,,,,,,,,,,,,,,,,,,,,,,,,,,,,,,,,1046.2145263000857,1047.2422244001646,1044.3216798000503,1044.3216798000503,1044.3216798000503,1044.3216798000503,new_sceneOut_32.png,47,1.0,1.8950421998742968,,063,00,2025-03-21_13h55.41.427,Surprise recog test,2023.1.3,59.958077272352696,
47,0,47,0,,,,,,,,,,,,,,,,,,,,,,,,,,,,,,,,,,1048.6593635000754,,1047.2422244001646,1047.2422244001646,1047.2422244001646,1047.2422244001646,old_stationery_10.png,48,1.0,1.4189826000947505,,063,00,2025-03-21_13h55.41.427,Surprise recog test,2023.1.3,59.958077272352696,
48,0,48,0,,,,,,,,,,,,,,,,,,,,,,,,,,,,,,,,,,1052.813381000189,,1049.6928531001322,1049.6928531001322,1049.6928531001322,1049.6928531001322,new_stationery_42.png,49,2.0,3.1235732999630272,,063,00,2025-03-21_13h55.41.427,Surprise recog test,2023.1.3,59.958077272352696,
49,0,49,0,,,,,,,,,,,,,,,,,,,,,,,,,,,,,,,,,,1055.5387744000182,1056.5514323001262,1053.8421116999816,1053.8421116999816,1053.8421116999816,1053.8421116999816,old_stationery_35.png,50,1.0,1.693427799968049,,063,00,2025-03-21_13h55.41.427,Surprise recog test,2023.1.3,59.958077272352696,
50,0,50,0,,,,,,,,,,,,,,,,,,,,,,,,,,,,,,,,,,1058.6328169000335,1059.6472325001378,1056.5514323001262,1056.5514323001262,1056.5514323001262,1056.5514323001262,new_sceneIn_21.png,51,3.0,2.0790091000963002,,063,00,2025-03-21_13h55.41.427,Surprise recog test,2023.1.3,59.958077272352696,
51,0,51,0,,,,,,,,,,,,,,,,,,,,,,,,,,,,,,,,,,1062.6179591000546,1063.6227220001165,1059.6472325001378,1059.6472325001378,1059.6472325001378,1059.6472325001378,new_sceneIn_50.png,52,3.0,2.966162099968642,,063,00,2025-03-21_13h55.41.427,Surprise recog test,2023.1.3,59.958077272352696,
52,0,52,0,,,,,,,,,,,,,,,,,,,,,,,,,,,,,,,,,,1067.6389672001824,1068.6458674001042,1063.6227220001165,1063.6227220001165,1063.6227220001165,1063.6227220001165,new_sceneIn_29.png,53,5.0,4.007110300008208,,063,00,2025-03-21_13h55.41.427,Surprise recog test,2023.1.3,59.958077272352696,
53,0,53,0,,,,,,,,,,,,,,,,,,,,,,,,,,,,,,,,,,1070.3911711000837,1071.3961938000284,1068.6458674001042,1068.6458674001042,1068.6458674001042,1068.6458674001042,new_sceneOut_6.png,54,1.0,1.7372396998107433,,063,00,2025-03-21_13h55.41.427,Surprise recog test,2023.1.3,59.958077272352696,
54,0,54,0,,,,,,,,,,,,,,,,,,,,,,,,,,,,,,,,,,1073.977475900203,1074.9827969002072,1071.3961938000284,1071.3961938000284,1071.3961938000284,1071.3961938000284,old_sceneOut_3.png,55,4.0,2.571061700116843,,063,00,2025-03-21_13h55.41.427,Surprise recog test,2023.1.3,59.958077272352696,
55,0,55,0,,,,,,,,,,,,,,,,,,,,,,,,,,,,,,,,,,1076.0624860001262,1077.067526300205,1074.9827969002072,1074.9827969002072,1074.9827969002072,1074.9827969002072,old_sceneOut_7.png,56,4.0,1.071737099904567,,063,00,2025-03-21_13h55.41.427,Surprise recog test,2023.1.3,59.958077272352696,
56,0,56,0,,,,,,,,,,,,,,,,,,,,,,,,,,,,,,,,,,1079.1483961001504,1080.1537799001671,1077.067526300205,1077.067526300205,1077.067526300205,1077.067526300205,old_sceneIn_30.png,57,4.0,2.070892099989578,,063,00,2025-03-21_13h55.41.427,Surprise recog test,2023.1.3,59.958077272352696,
57,0,57,0,,,,,,,,,,,,,,,,,,,,,,,,,,,,,,,,,,1081.3331132000312,1082.3556413000915,1080.1537799001671,1080.1537799001671,1080.1537799001671,1080.1537799001671,old_sceneOut_48.png,58,4.0,1.172986299963668,,063,00,2025-03-21_13h55.41.427,Surprise recog test,2023.1.3,59.958077272352696,
58,0,58,0,,,,,,,,,,,,,,,,,,,,,,,,,,,,,,,,,,1083.5536493000109,1084.5623759999871,1082.3556413000915,1082.3556413000915,1082.3556413000915,1082.3556413000915,old_sceneIn_47.png,59,4.0,1.2000696000177413,,063,00,2025-03-21_13h55.41.427,Surprise recog test,2023.1.3,59.958077272352696,
59,0,59,0,,,,,,,,,,,,,,,,,,,,,,,,,,,,,,,,,,1086.8883047001436,1087.8928443000186,1084.5623759999871,1084.5623759999871,1084.5623759999871,1084.5623759999871,new_sceneIn_24.png,60,3.0,2.318738400004804,,063,00,2025-03-21_13h55.41.427,Surprise recog test,2023.1.3,59.958077272352696,
60,0,60,0,,,,,,,,,,,,,,,,,,,,,,,,,,,,,,,,,,1089.2902160000522,1090.3133253001142,1087.8928443000186,1087.8928443000186,1087.8928443000186,1087.8928443000186,old_fruit_40.png,61,1.0,1.388055699877441,,063,00,2025-03-21_13h55.41.427,Surprise recog test,2023.1.3,59.958077272352696,
61,0,61,0,,,,,,,,,,,,,,,,,,,,,,,,,,,,,,,,,,1092.52393330005,1093.5415436001495,1090.3133253001142,1090.3133253001142,1090.3133253001142,1090.3133253001142,old_sceneIn_28.png,62,3.0,2.213611700106412,,063,00,2025-03-21_13h55.41.427,Surprise recog test,2023.1.3,59.958077272352696,
62,0,62,0,,,,,,,,,,,,,,,,,,,,,,,,,,,,,,,,,,1095.1237847001757,1096.137022000039,1093.5415436001495,1093.5415436001495,1093.5415436001495,1093.5415436001495,old_fruit_28.png,63,1.0,1.5831730999052525,,063,00,2025-03-21_13h55.41.427,Surprise recog test,2023.1.3,59.958077272352696,
63,0,63,0,,,,,,,,,,,,,,,,,,,,,,,,,,,,,,,,,,1097.401135600172,,1096.137022000039,1096.137022000039,1096.137022000039,1096.137022000039,new_stationery_47.png,64,1.0,1.2602727999910712,,063,00,2025-03-21_13h55.41.427,Surprise recog test,2023.1.3,59.958077272352696,
64,0,64,0,,,,,,,,,,,,,,,,,,,,,,,,,,,,,,,,,,1099.9570270001423,1100.9699472000357,1098.4395118001848,1098.4395118001848,1098.4395118001848,1098.4395118001848,old_fruit_1.png,65,2.0,1.5201595001854002,,063,00,2025-03-21_13h55.41.427,Surprise recog test,2023.1.3,59.958077272352696,
65,0,65,0,,,,,,,,,,,,,,,,,,,,,,,,,,,,,,,,,,1102.4344878001139,1103.439134400105,1100.9699472000357,1100.9699472000357,1100.9699472000357,1100.9699472000357,new_stationery_23.png,66,1.0,1.4534014000091702,,063,00,2025-03-21_13h55.41.427,Surprise recog test,2023.1.3,59.958077272352696,
66,0,66,0,,,,,,,,,,,,,,,,,,,,,,,,,,,,,,,,,,1106.0541595001705,1107.0594601000194,1103.439134400105,1103.439134400105,1103.439134400105,1103.439134400105,new_fruit_43.png,67,4.0,2.604914200026542,,063,00,2025-03-21_13h55.41.427,Surprise recog test,2023.1.3,59.958077272352696,
67,0,67,0,,,,,,,,,,,,,,,,,,,,,,,,,,,,,,,,,,1108.5235741999932,1109.5374033001717,1107.0594601000194,1107.0594601000194,1107.0594601000194,1107.0594601000194,old_stationery_8.png,68,1.0,1.4604454999789596,,063,00,2025-03-21_13h55.41.427,Surprise recog test,2023.1.3,59.958077272352696,
68,0,68,0,,,,,,,,,,,,,,,,,,,,,,,,,,,,,,,,,,1110.7359999001492,1111.7599765001796,1109.5374033001717,1109.5374033001717,1109.5374033001717,1109.5374033001717,old_fruit_16.png,69,1.0,1.1998033002018929,,063,00,2025-03-21_13h55.41.427,Surprise recog test,2023.1.3,59.958077272352696,
69,0,69,0,,,,,,,,,,,,,,,,,,,,,,,,,,,,,,,,,,1112.833183000097,1113.847528600134,1111.7599765001796,1111.7599765001796,1111.7599765001796,1111.7599765001796,old_fruit_47.png,70,1.0,1.0743036000058055,,063,00,2025-03-21_13h55.41.427,Surprise recog test,2023.1.3,59.958077272352696,
70,0,70,0,,,,,,,,,,,,,,,,,,,,,,,,,,,,,,,,,,1114.753470600117,1115.770991400117,1113.847528600134,1113.847528600134,1113.847528600134,1113.847528600134,old_stationery_47.png,71,1.0,0.9022856999654323,,063,00,2025-03-21_13h55.41.427,Surprise recog test,2023.1.3,59.958077272352696,
71,0,71,0,,,,,,,,,,,,,,,,,,,,,,,,,,,,,,,,,,1118.4193508001044,1119.4405438001268,1115.770991400117,1115.770991400117,1115.770991400117,1115.770991400117,old_sceneIn_25.png,72,2.0,2.6435368999373168,,063,00,2025-03-21_13h55.41.427,Surprise recog test,2023.1.3,59.958077272352696,
72,0,72,0,,,,,,,,,,,,,,,,,,,,,,,,,,,,,,,,,,1121.2375878000166,,1119.4405438001268,1119.4405438001268,1119.4405438001268,1119.4405438001268,new_sceneOut_27.png,73,2.0,1.7907541000749916,,063,00,2025-03-21_13h55.41.427,Surprise recog test,2023.1.3,59.958077272352696,
73,0,73,0,,,,,,,,,,,,,,,,,,,,,,,,,,,,,,,,,,1123.3337217001244,1124.3540123000275,1122.2695664002094,1122.2695664002094,1122.2695664002094,1122.2695664002094,old_sceneIn_24.png,74,2.0,1.0659328999463469,,063,00,2025-03-21_13h55.41.427,Surprise recog test,2023.1.3,59.958077272352696,
74,0,74,0,,,,,,,,,,,,,,,,,,,,,,,,,,,,,,,,,,1127.0901643000543,1128.0947248002049,1124.3540123000275,1124.3540123000275,1124.3540123000275,1124.3540123000275,old_sceneIn_50.png,75,5.0,2.7380212999414653,,063,00,2025-03-21_13h55.41.427,Surprise recog test,2023.1.3,59.958077272352696,
75,0,75,0,,,,,,,,,,,,,,,,,,,,,,,,,,,,,,,,,,1129.9587022000924,1130.9780898999888,1128.0947248002049,1128.0947248002049,1128.0947248002049,1128.0947248002049,old_stationery_20.png,76,2.0,1.8596729999408126,,063,00,2025-03-21_13h55.41.427,Surprise recog test,2023.1.3,59.958077272352696,
76,0,76,0,,,,,,,,,,,,,,,,,,,,,,,,,,,,,,,,,,1132.693617100129,1133.705709700007,1130.9780898999888,1130.9780898999888,1130.9780898999888,1130.9780898999888,old_sceneOut_18.png,77,3.0,1.7165441000834107,,063,00,2025-03-21_13h55.41.427,Surprise recog test,2023.1.3,59.958077272352696,
77,0,77,0,,,,,,,,,,,,,,,,,,,,,,,,,,,,,,,,,,1135.0781549999956,1136.0856449001003,1133.705709700007,1133.705709700007,1133.705709700007,1133.705709700007,old_fruit_19.png,78,1.0,1.370207100175321,,063,00,2025-03-21_13h55.41.427,Surprise recog test,2023.1.3,59.958077272352696,
78,0,78,0,,,,,,,,,,,,,,,,,,,,,,,,,,,,,,,,,,1137.6855254999828,1138.713651600061,1136.0856449001003,1136.0856449001003,1136.0856449001003,1136.0856449001003,new_sceneOut_18.png,79,3.0,1.5955767000559717,,063,00,2025-03-21_13h55.41.427,Surprise recog test,2023.1.3,59.958077272352696,
79,0,79,0,,,,,,,,,,,,,,,,,,,,,,,,,,,,,,,,,,1140.7163823000155,1141.7304951001424,1138.713651600061,1138.713651600061,1138.713651600061,1138.713651600061,new_stationery_8.png,80,5.0,1.9926015001256019,,063,00,2025-03-21_13h55.41.427,Surprise recog test,2023.1.3,59.958077272352696,
80,0,80,0,,,,,,,,,,,,,,,,,,,,,,,,,,,,,,,,,,1143.3119198000059,1144.3372838001233,1141.7304951001424,1141.7304951001424,1141.7304951001424,1141.7304951001424,old_sceneIn_37.png,81,5.0,1.581914700102061,,063,00,2025-03-21_13h55.41.427,Surprise recog test,2023.1.3,59.958077272352696,
81,0,81,0,,,,,,,,,,,,,,,,,,,,,,,,,,,,,,,,,,1145.1184804001823,1146.14656010014,1144.3372838001233,1144.3372838001233,1144.3372838001233,1144.3372838001233,new_sceneOut_7.png,82,5.0,0.7806915000546724,,063,00,2025-03-21_13h55.41.427,Surprise recog test,2023.1.3,59.958077272352696,
82,0,82,0,,,,,,,,,,,,,,,,,,,,,,,,,,,,,,,,,,1146.9722066000104,1147.986394500127,1146.14656010014,1146.14656010014,1146.14656010014,1146.14656010014,old_sceneOut_45.png,83,5.0,0.829129199963063,,063,00,2025-03-21_13h55.41.427,Surprise recog test,2023.1.3,59.958077272352696,
83,0,83,0,,,,,,,,,,,,,,,,,,,,,,,,,,,,,,,,,,1149.417437300086,1150.4469141000882,1147.986394500127,1147.986394500127,1147.986394500127,1147.986394500127,old_stationery_2.png,84,5.0,1.430281100096181,,063,00,2025-03-21_13h55.41.427,Surprise recog test,2023.1.3,59.958077272352696,
84,0,84,0,,,,,,,,,,,,,,,,,,,,,,,,,,,,,,,,,,1152.4764463000465,1153.4980339000467,1150.4469141000882,1150.4469141000882,1150.4469141000882,1150.4469141000882,new_fruit_4.png,85,2.0,2.033796099945903,,063,00,2025-03-21_13h55.41.427,Surprise recog test,2023.1.3,59.958077272352696,
85,0,85,0,,,,,,,,,,,,,,,,,,,,,,,,,,,,,,,,,,1155.996391700115,1157.0055357001256,1153.4980339000467,1153.4980339000467,1153.4980339000467,1153.4980339000467,new_sceneIn_1.png,86,5.0,2.4938068999908864,,063,00,2025-03-21_13h55.41.427,Surprise recog test,2023.1.3,59.958077272352696,
86,0,86,0,,,,,,,,,,,,,,,,,,,,,,,,,,,,,,,,,,1158.4179616000038,,1157.0055357001256,1157.0055357001256,1157.0055357001256,1157.0055357001256,old_stationery_33.png,87,1.0,1.4110311002004892,,063,00,2025-03-21_13h55.41.427,Surprise recog test,2023.1.3,59.958077272352696,
87,0,87,0,,,,,,,,,,,,,,,,,,,,,,,,,,,,,,,,,,1162.775349300122,1163.8080208001193,1159.435310400091,1159.435310400091,1159.435310400091,1159.435310400091,new_stationery_20.png,88,2.0,3.3352484998758882,,063,00,2025-03-21_13h55.41.427,Surprise recog test,2023.1.3,59.958077272352696,
88,0,88,0,,,,,,,,,,,,,,,,,,,,,,,,,,,,,,,,,,1165.2626042000484,1166.2781223000493,1163.8080208001193,1163.8080208001193,1163.8080208001193,1163.8080208001193,old_sceneIn_18.png,89,3.0,1.457584099844098,,063,00,2025-03-21_13h55.41.427,Surprise recog test,2023.1.3,59.958077272352696,
89,0,89,0,,,,,,,,,,,,,,,,,,,,,,,,,,,,,,,,,,1167.4515629999805,1168.4732060001697,1166.2781223000493,1166.2781223000493,1166.2781223000493,1166.2781223000493,old_fruit_23.png,90,1.0,1.1675054000224918,,063,00,2025-03-21_13h55.41.427,Surprise recog test,2023.1.3,59.958077272352696,
90,0,90,0,,,,,,,,,,,,,,,,,,,,,,,,,,,,,,,,,,1170.1774182000663,,1168.4732060001697,1168.4732060001697,1168.4732060001697,1168.4732060001697,old_sceneIn_10.png,91,1.0,1.7066950998269022,,063,00,2025-03-21_13h55.41.427,Surprise recog test,2023.1.3,59.958077272352696,
91,0,91,0,,,,,,,,,,,,,,,,,,,,,,,,,,,,,,,,,,1172.943457200192,1173.963507000124,1171.1972511000931,1171.1972511000931,1171.1972511000931,1171.1972511000931,new_fruit_30.png,92,2.0,1.7394144001882523,,063,00,2025-03-21_13h55.41.427,Surprise recog test,2023.1.3,59.958077272352696,
92,0,92,0,,,,,,,,,,,,,,,,,,,,,,,,,,,,,,,,,,1175.7614519000053,1176.7878547001164,1173.963507000124,1173.963507000124,1173.963507000124,1173.963507000124,new_sceneIn_35.png,93,3.0,1.8008643998764455,,063,00,2025-03-21_13h55.41.427,Surprise recog test,2023.1.3,59.958077272352696,
93,0,93,0,,,,,,,,,,,,,,,,,,,,,,,,,,,,,,,,,,1179.1976744001731,1180.2142388001084,1176.7878547001164,1176.7878547001164,1176.7878547001164,1176.7878547001164,new_sceneOut_41.png,94,4.0,2.4129922001156956,,063,00,2025-03-21_13h55.41.427,Surprise recog test,2023.1.3,59.958077272352696,
94,0,94,0,,,,,,,,,,,,,,,,,,,,,,,,,,,,,,,,,,1182.5235596001148,1183.5550050002057,1180.2142388001084,1180.2142388001084,1180.2142388001084,1180.2142388001084,new_fruit_11.png,95,4.0,2.3120855998713523,,063,00,2025-03-21_13h55.41.427,Surprise recog test,2023.1.3,59.958077272352696,
95,0,95,0,,,,,,,,,,,,,,,,,,,,,,,,,,,,,,,,,,1185.198809800204,1186.2177942001726,1183.5550050002057,1183.5550050002057,1183.5550050002057,1183.5550050002057,new_sceneIn_37.png,96,3.0,1.642578000202775,,063,00,2025-03-21_13h55.41.427,Surprise recog test,2023.1.3,59.958077272352696,
96,0,96,0,,,,,,,,,,,,,,,,,,,,,,,,,,,,,,,,,,1188.8821260000113,1189.8952504000627,1186.2177942001726,1186.2177942001726,1186.2177942001726,1186.2177942001726,new_fruit_34.png,97,2.0,2.6653306998778135,,063,00,2025-03-21_13h55.41.427,Surprise recog test,2023.1.3,59.958077272352696,
97,0,97,0,,,,,,,,,,,,,,,,,,,,,,,,,,,,,,,,,,1191.4461302000564,,1189.8952504000627,1189.8952504000627,1189.8952504000627,1189.8952504000627,old_sceneOut_15.png,98,3.0,1.5439134000334889,,063,00,2025-03-21_13h55.41.427,Surprise recog test,2023.1.3,59.958077272352696,
98,0,98,0,,,,,,,,,,,,,,,,,,,,,,,,,,,,,,,,,,1194.4878667001612,1195.5113590999972,1192.4800207000226,1192.4800207000226,1192.4800207000226,1192.4800207000226,old_fruit_38.png,99,4.0,2.00875259982422,,063,00,2025-03-21_13h55.41.427,Surprise recog test,2023.1.3,59.958077272352696,
99,0,99,0,,,,,,,,,,,,,,,,,,,,,,,,,,,,,,,,,,1197.4588771001436,1198.4778062000405,1195.5113590999972,1195.5113590999972,1195.5113590999972,1195.5113590999972,new_sceneIn_46.png,100,4.0,1.948831700021401,,063,00,2025-03-21_13h55.41.427,Surprise recog test,2023.1.3,59.958077272352696,
100,0,100,0,,,,,,,,,,,,,,,,,,,,,,,,,,,,,,,,,,1199.4130683999974,1200.4374150000513,1198.4778062000405,1198.4778062000405,1198.4778062000405,1198.4778062000405,old_sceneIn_49.png,101,4.0,0.9348317999392748,,063,00,2025-03-21_13h55.41.427,Surprise recog test,2023.1.3,59.958077272352696,
101,0,101,0,,,,,,,,,,,,,,,,,,,,,,,,,,,,,,,,,,1202.2139270000625,1203.2262308001518,1200.4374150000513,1200.4374150000513,1200.4374150000513,1200.4374150000513,new_stationery_44.png,102,4.0,1.778349399799481,,063,00,2025-03-21_13h55.41.427,Surprise recog test,2023.1.3,59.958077272352696,
102,0,102,0,,,,,,,,,,,,,,,,,,,,,,,,,,,,,,,,,,1205.478156000143,1206.506586899981,1203.2262308001518,1203.2262308001518,1203.2262308001518,1203.2262308001518,new_stationery_18.png,103,2.0,2.2471278000157326,,063,00,2025-03-21_13h55.41.427,Surprise recog test,2023.1.3,59.958077272352696,
103,0,103,0,,,,,,,,,,,,,,,,,,,,,,,,,,,,,,,,,,1208.2996173000429,1209.3147216001526,1206.506586899981,1206.506586899981,1206.506586899981,1206.506586899981,old_fruit_12.png,104,1.0,1.7946508000604808,,063,00,2025-03-21_13h55.41.427,Surprise recog test,2023.1.3,59.958077272352696,
104,0,104,0,,,,,,,,,,,,,,,,,,,,,,,,,,,,,,,,,,1210.058422200149,1211.0625897999853,1209.3147216001526,1209.3147216001526,1209.3147216001526,1209.3147216001526,old_fruit_9.png,105,1.0,0.7374022000003606,,063,00,2025-03-21_13h55.41.427,Surprise recog test,2023.1.3,59.958077272352696,
105,0,105,0,,,,,,,,,,,,,,,,,,,,,,,,,,,,,,,,,,1212.3103471000213,1213.3329457000364,1211.0625897999853,1211.0625897999853,1211.0625897999853,1211.0625897999853,old_sceneIn_11.png,106,2.0,1.2438332999590784,,063,00,2025-03-21_13h55.41.427,Surprise recog test,2023.1.3,59.958077272352696,
106,0,106,0,,,,,,,,,,,,,,,,,,,,,,,,,,,,,,,,,,1214.7237015999854,1215.7479922000784,1213.3329457000364,1213.3329457000364,1213.3329457000364,1213.3329457000364,new_sceneOut_20.png,107,3.0,1.3902759000193328,,063,00,2025-03-21_13h55.41.427,Surprise recog test,2023.1.3,59.958077272352696,
107,0,107,0,,,,,,,,,,,,,,,,,,,,,,,,,,,,,,,,,,1217.8930712000001,1218.9061659001745,1215.7479922000784,1215.7479922000784,1215.7479922000784,1215.7479922000784,new_stationery_36.png,108,2.0,2.1446002998854965,,063,00,2025-03-21_13h55.41.427,Surprise recog test,2023.1.3,59.958077272352696,
108,0,108,0,,,,,,,,,,,,,,,,,,,,,,,,,,,,,,,,,,1220.4159523001872,1221.4211684002075,1218.9061659001745,1218.9061659001745,1218.9061659001745,1218.9061659001745,new_sceneIn_4.png,109,3.0,1.5011997998226434,,063,00,2025-03-21_13h55.41.427,Surprise recog test,2023.1.3,59.958077272352696,
109,0,109,0,,,,,,,,,,,,,,,,,,,,,,,,,,,,,,,,,,1222.7911027001683,1223.824199900031,1221.4211684002075,1221.4211684002075,1221.4211684002075,1221.4211684002075,old_sceneIn_13.png,110,3.0,1.3667884999886155,,063,00,2025-03-21_13h55.41.427,Surprise recog test,2023.1.3,59.958077272352696,
110,0,110,0,,,,,,,,,,,,,,,,,,,,,,,,,,,,,,,,,,1224.75606480008,,1223.824199900031,1223.824199900031,1223.824199900031,1223.824199900031,new_stationery_39.png,111,3.0,0.9340686001814902,,063,00,2025-03-21_13h55.41.427,Surprise recog test,2023.1.3,59.958077272352696,
111,0,111,0,,,,,,,,,,,,,,,,,,,,,,,,,,,,,,,,,,1228.0155736000743,1229.0311181000434,1225.7894764000084,1225.7894764000084,1225.7894764000084,1225.7894764000084,old_sceneIn_43.png,112,2.0,2.2258744998835027,,063,00,2025-03-21_13h55.41.427,Surprise recog test,2023.1.3,59.958077272352696,
112,0,112,0,,,,,,,,,,,,,,,,,,,,,,,,,,,,,,,,,,1231.1159353000112,1232.1331478001084,1229.0311181000434,1229.0311181000434,1229.0311181000434,1229.0311181000434,old_fruit_7.png,113,2.0,2.0801662001758814,,063,00,2025-03-21_13h55.41.427,Surprise recog test,2023.1.3,59.958077272352696,
113,0,113,0,,,,,,,,,,,,,,,,,,,,,,,,,,,,,,,,,,1233.9347281001974,1234.969973700121,1232.1331478001084,1232.1331478001084,1232.1331478001084,1232.1331478001084,new_fruit_16.png,114,2.0,1.795077099930495,,063,00,2025-03-21_13h55.41.427,Surprise recog test,2023.1.3,59.958077272352696,
114,0,114,0,,,,,,,,,,,,,,,,,,,,,,,,,,,,,,,,,,1236.9146102999803,1237.9299244000576,1234.969973700121,1234.969973700121,1234.969973700121,1234.969973700121,new_fruit_47.png,115,5.0,1.947489800164476,,063,00,2025-03-21_13h55.41.427,Surprise recog test,2023.1.3,59.958077272352696,
115,0,115,0,,,,,,,,,,,,,,,,,,,,,,,,,,,,,,,,,,1239.627141600009,1240.636544100009,1237.9299244000576,1237.9299244000576,1237.9299244000576,1237.9299244000576,old_sceneIn_42.png,116,5.0,1.698684699833393,,063,00,2025-03-21_13h55.41.427,Surprise recog test,2023.1.3,59.958077272352696,
116,0,116,0,,,,,,,,,,,,,,,,,,,,,,,,,,,,,,,,,,1241.7329504999798,1242.748039400205,1240.636544100009,1240.636544100009,1240.636544100009,1240.636544100009,old_fruit_42.png,117,5.0,1.0923899000044912,,063,00,2025-03-21_13h55.41.427,Surprise recog test,2023.1.3,59.958077272352696,
117,0,117,0,,,,,,,,,,,,,,,,,,,,,,,,,,,,,,,,,,1245.4647882999852,1246.4906657000538,1242.748039400205,1242.748039400205,1242.748039400205,1242.748039400205,new_fruit_25.png,118,5.0,2.7177186999469995,,063,00,2025-03-21_13h55.41.427,Surprise recog test,2023.1.3,59.958077272352696,
118,0,118,0,,,,,,,,,,,,,,,,,,,,,,,,,,,,,,,,,,1248.5513286001515,1249.5724510001019,1246.4906657000538,1246.4906657000538,1246.4906657000538,1246.4906657000538,old_stationery_22.png,119,1.0,2.062659200048074,,063,00,2025-03-21_13h55.41.427,Surprise recog test,2023.1.3,59.958077272352696,
119,0,119,0,,,,,,,,,,,,,,,,,,,,,,,,,,,,,,,,,,1251.6771893000696,1252.6980130001903,1249.5724510001019,1249.5724510001019,1249.5724510001019,1249.5724510001019,old_fruit_24.png,120,1.0,2.103455799864605,,063,00,2025-03-21_13h55.41.427,Surprise recog test,2023.1.3,59.958077272352696,
120,0,120,0,,,,,,,,,,,,,,,,,,,,,,,,,,,,,,,,,,1254.9998135999776,1256.0314631999936,1252.6980130001903,1252.6980130001903,1252.6980130001903,1252.6980130001903,new_fruit_29.png,121,5.0,2.3035526000894606,,063,00,2025-03-21_13h55.41.427,Surprise recog test,2023.1.3,59.958077272352696,
121,0,121,0,,,,,,,,,,,,,,,,,,,,,,,,,,,,,,,,,,1257.134261000203,,1256.0314631999936,1256.0314631999936,1256.0314631999936,1256.0314631999936,new_sceneOut_44.png,122,4.0,1.1046815000008792,,063,00,2025-03-21_13h55.41.427,Surprise recog test,2023.1.3,59.958077272352696,
122,0,122,0,,,,,,,,,,,,,,,,,,,,,,,,,,,,,,,,,,1261.534846900031,1262.5417882001493,1258.1738464999944,1258.1738464999944,1258.1738464999944,1258.1738464999944,new_sceneOut_34.png,123,3.0,3.367898900061846,,063,00,2025-03-21_13h55.41.427,Surprise recog test,2023.1.3,59.958077272352696,
123,0,123,0,,,,,,,,,,,,,,,,,,,,,,,,,,,,,,,,,,1265.0855909001548,1266.1063729000743,1262.5417882001493,1262.5417882001493,1262.5417882001493,1262.5417882001493,new_sceneOut_17.png,124,3.0,2.539492000127211,,063,00,2025-03-21_13h55.41.427,Surprise recog test,2023.1.3,59.958077272352696,
124,0,124,0,,,,,,,,,,,,,,,,,,,,,,,,,,,,,,,,,,1267.540488100145,1268.5632464999799,1266.1063729000743,1266.1063729000743,1266.1063729000743,1266.1063729000743,old_stationery_24.png,125,1.0,1.4333277000114322,,063,00,2025-03-21_13h55.41.427,Surprise recog test,2023.1.3,59.958077272352696,
125,0,125,0,,,,,,,,,,,,,,,,,,,,,,,,,,,,,,,,,,1271.26614219998,1272.2978321001865,1268.5632464999799,1268.5632464999799,1268.5632464999799,1268.5632464999799,old_sceneOut_36.png,126,3.0,2.707155700074509,,063,00,2025-03-21_13h55.41.427,Surprise recog test,2023.1.3,59.958077272352696,
126,0,126,0,,,,,,,,,,,,,,,,,,,,,,,,,,,,,,,,,,1273.8158196001314,1274.8418648000807,1272.2978321001865,1272.2978321001865,1272.2978321001865,1272.2978321001865,old_sceneIn_15.png,127,4.0,1.5209757999982685,,063,00,2025-03-21_13h55.41.427,Surprise recog test,2023.1.3,59.958077272352696,
127,0,127,0,,,,,,,,,,,,,,,,,,,,,,,,,,,,,,,,,,1276.5349445000757,1277.5547302002087,1274.8418648000807,1274.8418648000807,1274.8418648000807,1274.8418648000807,old_fruit_13.png,128,1.0,1.691005399916321,,063,00,2025-03-21_13h55.41.427,Surprise recog test,2023.1.3,59.958077272352696,
128,0,128,0,,,,,,,,,,,,,,,,,,,,,,,,,,,,,,,,,,1278.599059900036,1279.6171987000853,1277.5547302002087,1277.5547302002087,1277.5547302002087,1277.5547302002087,old_stationery_17.png,129,1.0,1.0404640000779182,,063,00,2025-03-21_13h55.41.427,Surprise recog test,2023.1.3,59.958077272352696,
129,0,129,0,,,,,,,,,,,,,,,,,,,,,,,,,,,,,,,,,,1280.741883000126,1281.7555625000969,1279.6171987000853,1279.6171987000853,1279.6171987000853,1279.6171987000853,new_sceneOut_14.png,130,1.0,1.1258093998767436,,063,00,2025-03-21_13h55.41.427,Surprise recog test,2023.1.3,59.958077272352696,
130,0,130,0,,,,,,,,,,,,,,,,,,,,,,,,,,,,,,,,,,1284.1358839999884,1285.1560063001234,1281.7555625000969,1281.7555625000969,1281.7555625000969,1281.7555625000969,old_sceneIn_23.png,131,1.0,2.3763531998265535,,063,00,2025-03-21_13h55.41.427,Surprise recog test,2023.1.3,59.958077272352696,
131,0,131,0,,,,,,,,,,,,,,,,,,,,,,,,,,,,,,,,,,1286.9322790000588,1287.942904900061,1285.1560063001234,1285.1560063001234,1285.1560063001234,1285.1560063001234,old_sceneOut_8.png,132,4.0,1.7775613002013415,,063,00,2025-03-21_13h55.41.427,Surprise recog test,2023.1.3,59.958077272352696,
132,0,132,0,,,,,,,,,,,,,,,,,,,,,,,,,,,,,,,,,,1288.9202046000864,1289.9464567000978,1287.942904900061,1287.942904900061,1287.942904900061,1287.942904900061,new_sceneIn_25.png,133,4.0,0.9728266999591142,,063,00,2025-03-21_13h55.41.427,Surprise recog test,2023.1.3,59.958077272352696,
133,0,133,0,,,,,,,,,,,,,,,,,,,,,,,,,,,,,,,,,,1290.7233166000806,1291.7461813001428,1289.9464567000978,1289.9464567000978,1289.9464567000978,1289.9464567000978,new_sceneOut_13.png,134,4.0,0.7771578000392765,,063,00,2025-03-21_13h55.41.427,Surprise recog test,2023.1.3,59.958077272352696,
134,0,134,0,,,,,,,,,,,,,,,,,,,,,,,,,,,,,,,,,,1294.2274436000735,1295.246500800131,1291.7461813001428,1291.7461813001428,1291.7461813001428,1291.7461813001428,old_fruit_50.png,135,5.0,2.477297500008717,,063,00,2025-03-21_13h55.41.427,Surprise recog test,2023.1.3,59.958077272352696,
135,0,135,0,,,,,,,,,,,,,,,,,,,,,,,,,,,,,,,,,,1298.2622431002092,1299.2858710000291,1295.246500800131,1295.246500800131,1295.246500800131,1295.246500800131,new_sceneOut_1.png,136,2.0,3.0163572998717427,,063,00,2025-03-21_13h55.41.427,Surprise recog test,2023.1.3,59.958077272352696,
136,0,136,0,,,,,,,,,,,,,,,,,,,,,,,,,,,,,,,,,,1300.8127605000045,1301.8340557001065,1299.2858710000291,1299.2858710000291,1299.2858710000291,1299.2858710000291,new_sceneIn_47.png,137,3.0,1.5301524000242352,,063,00,2025-03-21_13h55.41.427,Surprise recog test,2023.1.3,59.958077272352696,
137,0,137,0,,,,,,,,,,,,,,,,,,,,,,,,,,,,,,,,,,1303.541624700185,1304.5600797000807,1301.8340557001065,1301.8340557001065,1301.8340557001065,1301.8340557001065,new_sceneOut_11.png,138,4.0,1.7094751000404358,,063,00,2025-03-21_13h55.41.427,Surprise recog test,2023.1.3,59.958077272352696,
138,0,138,0,,,,,,,,,,,,,,,,,,,,,,,,,,,,,,,,,,1306.5191752000246,1307.5432335999794,1304.5600797000807,1304.5600797000807,1304.5600797000807,1304.5600797000807,old_fruit_29.png,139,1.0,1.9543417000677437,,063,00,2025-03-21_13h55.41.427,Surprise recog test,2023.1.3,59.958077272352696,
139,0,139,0,,,,,,,,,,,,,,,,,,,,,,,,,,,,,,,,,,1310.0980283000972,1311.1142909000628,1307.5432335999794,1307.5432335999794,1307.5432335999794,1307.5432335999794,new_sceneOut_26.png,140,5.0,2.5585004000458866,,063,00,2025-03-21_13h55.41.427,Surprise recog test,2023.1.3,59.958077272352696,
140,0,140,0,,,,,,,,,,,,,,,,,,,,,,,,,,,,,,,,,,1312.9736089999788,1313.9984276001342,1311.1142909000628,1311.1142909000628,1311.1142909000628,1311.1142909000628,new_stationery_17.png,141,1.0,1.8552729999646544,,063,00,2025-03-21_13h55.41.427,Surprise recog test,2023.1.3,59.958077272352696,
141,0,141,0,,,,,,,,,,,,,,,,,,,,,,,,,,,,,,,,,,1316.238757800078,1317.2687042001635,1313.9984276001342,1313.9984276001342,1313.9984276001342,1313.9984276001342,new_stationery_29.png,142,5.0,2.240393100073561,,063,00,2025-03-21_13h55.41.427,Surprise recog test,2023.1.3,59.958077272352696,
142,0,142,0,,,,,,,,,,,,,,,,,,,,,,,,,,,,,,,,,,1318.9755164000671,1319.9905104001518,1317.2687042001635,1317.2687042001635,1317.2687042001635,1317.2687042001635,old_sceneOut_39.png,143,2.0,1.7092083999887109,,063,00,2025-03-21_13h55.41.427,Surprise recog test,2023.1.3,59.958077272352696,
143,0,143,0,,,,,,,,,,,,,,,,,,,,,,,,,,,,,,,,,,1323.6335903999861,1324.656638900051,1319.9905104001518,1319.9905104001518,1319.9905104001518,1319.9905104001518,old_fruit_49.png,144,4.0,3.6385962998028845,,063,00,2025-03-21_13h55.41.427,Surprise recog test,2023.1.3,59.958077272352696,
144,0,144,0,,,,,,,,,,,,,,,,,,,,,,,,,,,,,,,,,,1326.4314537001774,1327.4566028001718,1324.656638900051,1324.656638900051,1324.656638900051,1324.656638900051,old_sceneIn_34.png,145,1.0,1.7747378998901695,,063,00,2025-03-21_13h55.41.427,Surprise recog test,2023.1.3,59.958077272352696,
145,0,145,0,,,,,,,,,,,,,,,,,,,,,,,,,,,,,,,,,,1329.5764515001792,,1327.4566028001718,1327.4566028001718,1327.4566028001718,1327.4566028001718,new_fruit_41.png,146,5.0,2.122090300079435,,063,00,2025-03-21_13h55.41.427,Surprise recog test,2023.1.3,59.958077272352696,
146,0,146,0,,,,,,,,,,,,,,,,,,,,,,,,,,,,,,,,,,1333.2471572000068,,1330.5989953000098,1330.5989953000098,1330.5989953000098,1330.5989953000098,new_sceneOut_15.png,147,3.0,2.645812999922782,,063,00,2025-03-21_13h55.41.427,Surprise recog test,2023.1.3,59.958077272352696,
147,0,147,0,,,,,,,,,,,,,,,,,,,,,,,,,,,,,,,,,,1335.8693964001723,1336.9037902001292,1334.281413000077,1334.281413000077,1334.281413000077,1334.281413000077,old_sceneIn_6.png,148,5.0,1.5907847001217306,,063,00,2025-03-21_13h55.41.427,Surprise recog test,2023.1.3,59.958077272352696,
148,0,148,0,,,,,,,,,,,,,,,,,,,,,,,,,,,,,,,,,,1338.7389789000154,1339.7537422000896,1336.9037902001292,1336.9037902001292,1336.9037902001292,1336.9037902001292,old_stationery_41.png,149,1.0,1.8401856001000851,,063,00,2025-03-21_13h55.41.427,Surprise recog test,2023.1.3,59.958077272352696,
149,0,149,0,,,,,,,,,,,,,,,,,,,,,,,,,,,,,,,,,,1341.5383733001072,1342.5705161001533,1339.7537422000896,1339.7537422000896,1339.7537422000896,1339.7537422000896,new_sceneIn_38.png,150,4.0,1.7763698999769986,,063,00,2025-03-21_13h55.41.427,Surprise recog test,2023.1.3,59.958077272352696,
150,0,150,0,,,,,,,,,,,,,,,,,,,,,,,,,,,,,,,,,,1343.9432718001772,1344.9768994001206,1342.5705161001533,1342.5705161001533,1342.5705161001533,1342.5705161001533,old_fruit_34.png,151,4.0,1.3753438000567257,,063,00,2025-03-21_13h55.41.427,Surprise recog test,2023.1.3,59.958077272352696,
151,0,151,0,,,,,,,,,,,,,,,,,,,,,,,,,,,,,,,,,,1346.8715745999943,1347.8927482001018,1344.9768994001206,1344.9768994001206,1344.9768994001206,1344.9768994001206,new_stationery_32.png,152,4.0,1.8964202001225203,,063,00,2025-03-21_13h55.41.427,Surprise recog test,2023.1.3,59.958077272352696,
152,0,152,0,,,,,,,,,,,,,,,,,,,,,,,,,,,,,,,,,,1349.5845960001461,1350.6117653001565,1347.8927482001018,1347.8927482001018,1347.8927482001018,1347.8927482001018,old_stationery_23.png,153,1.0,1.693712699925527,,063,00,2025-03-21_13h55.41.427,Surprise recog test,2023.1.3,59.958077272352696,
153,0,153,0,,,,,,,,,,,,,,,,,,,,,,,,,,,,,,,,,,1351.376892000204,1352.383538500173,1350.6117653001565,1350.6117653001565,1350.6117653001565,1350.6117653001565,old_stationery_42.png,154,1.0,0.7665040001738816,,063,00,2025-03-21_13h55.41.427,Surprise recog test,2023.1.3,59.958077272352696,
154,0,154,0,,,,,,,,,,,,,,,,,,,,,,,,,,,,,,,,,,1353.380375600187,,1352.383538500173,1352.383538500173,1352.383538500173,1352.383538500173,old_sceneIn_32.png,155,1.0,0.9916227001231164,,063,00,2025-03-21_13h55.41.427,Surprise recog test,2023.1.3,59.958077272352696,
155,0,155,0,,,,,,,,,,,,,,,,,,,,,,,,,,,,,,,,,,1356.0087969000451,1357.0293384001125,1354.4173803001177,1354.4173803001177,1354.4173803001177,1354.4173803001177,new_stationery_46.png,156,1.0,1.594948000041768,,063,00,2025-03-21_13h55.41.427,Surprise recog test,2023.1.3,59.958077272352696,
156,0,156,0,,,,,,,,,,,,,,,,,,,,,,,,,,,,,,,,,,1357.9860940000508,1359.0175789000932,1357.0293384001125,1357.0293384001125,1357.0293384001125,1357.0293384001125,new_fruit_48.png,157,1.0,0.9524020999670029,,063,00,2025-03-21_13h55.41.427,Surprise recog test,2023.1.3,59.958077272352696,
157,0,157,0,,,,,,,,,,,,,,,,,,,,,,,,,,,,,,,,,,1359.9018620001152,,1359.0175789000932,1359.0175789000932,1359.0175789000932,1359.0175789000932,new_fruit_45.png,158,1.0,0.886123500065878,,063,00,2025-03-21_13h55.41.427,Surprise recog test,2023.1.3,59.958077272352696,
158,0,158,0,,,,,,,,,,,,,,,,,,,,,,,,,,,,,,,,,,1363.5018287000712,1364.5207783000078,1360.9387992001139,1360.9387992001139,1360.9387992001139,1360.9387992001139,old_sceneIn_36.png,159,5.0,2.5609925999306142,,063,00,2025-03-21_13h55.41.427,Surprise recog test,2023.1.3,59.958077272352696,
159,0,159,0,,,,,,,,,,,,,,,,,,,,,,,,,,,,,,,,,,1366.0091685000807,1367.0405661000405,1364.5207783000078,1364.5207783000078,1364.5207783000078,1364.5207783000078,old_sceneIn_39.png,160,1.0,1.4897040999494493,,063,00,2025-03-21_13h55.41.427,Surprise recog test,2023.1.3,59.958077272352696,
160,0,160,0,,,,,,,,,,,,,,,,,,,,,,,,,,,,,,,,,,1368.7325379000977,1369.7482078000903,1367.0405661000405,1367.0405661000405,1367.0405661000405,1367.0405661000405,old_fruit_4.png,161,1.0,1.6943049000110477,,063,00,2025-03-21_13h55.41.427,Surprise recog test,2023.1.3,59.958077272352696,
161,0,161,0,,,,,,,,,,,,,,,,,,,,,,,,,,,,,,,,,,1370.4856829000637,1371.5001334000845,1369.7482078000903,1369.7482078000903,1369.7482078000903,1369.7482078000903,new_fruit_1.png,162,1.0,0.7315089998301119,,063,00,2025-03-21_13h55.41.427,Surprise recog test,2023.1.3,59.958077272352696,
162,0,162,0,,,,,,,,,,,,,,,,,,,,,,,,,,,,,,,,,,1372.3197589002084,1373.3344552000053,1371.5001334000845,1371.5001334000845,1371.5001334000845,1371.5001334000845,new_stationery_24.png,163,1.0,0.8141503999941051,,063,00,2025-03-21_13h55.41.427,Surprise recog test,2023.1.3,59.958077272352696,
163,0,163,0,,,,,,,,,,,,,,,,,,,,,,,,,,,,,,,,,,1375.1689405001234,1376.2014939000364,1373.3344552000053,1373.3344552000053,1373.3344552000053,1373.3344552000053,new_sceneIn_31.png,164,5.0,1.8306129002012312,,063,00,2025-03-21_13h55.41.427,Surprise recog test,2023.1.3,59.958077272352696,
164,0,164,0,,,,,,,,,,,,,,,,,,,,,,,,,,,,,,,,,,1377.3466949001886,1378.3551771000493,1376.2014939000364,1376.2014939000364,1376.2014939000364,1376.2014939000364,new_sceneIn_43.png,165,5.0,1.1467368002049625,,063,00,2025-03-21_13h55.41.427,Surprise recog test,2023.1.3,59.958077272352696,
165,0,165,0,,,,,,,,,,,,,,,,,,,,,,,,,,,,,,,,,,1380.4992580001708,1381.5104901001323,1378.3551771000493,1378.3551771000493,1378.3551771000493,1378.3551771000493,old_fruit_14.png,166,1.0,2.133492800174281,,063,00,2025-03-21_13h55.41.427,Surprise recog test,2023.1.3,59.958077272352696,
166,0,166,0,,,,,,,,,,,,,,,,,,,,,,,,,,,,,,,,,,1382.5305459001102,1383.5427134002093,1381.5104901001323,1381.5104901001323,1381.5104901001323,1381.5104901001323,new_stationery_35.png,167,1.0,1.0167311001569033,,063,00,2025-03-21_13h55.41.427,Surprise recog test,2023.1.3,59.958077272352696,
167,0,167,0,,,,,,,,,,,,,,,,,,,,,,,,,,,,,,,,,,1384.3311517999973,1385.358070500195,1383.5427134002093,1383.5427134002093,1383.5427134002093,1383.5427134002093,old_stationery_32.png,168,1.0,0.7846524999476969,,063,00,2025-03-21_13h55.41.427,Surprise recog test,2023.1.3,59.958077272352696,
168,0,168,0,,,,,,,,,,,,,,,,,,,,,,,,,,,,,,,,,,1386.2703060000204,1387.289662900148,1385.358070500195,1385.358070500195,1385.358070500195,1385.358070500195,new_fruit_14.png,169,1.0,0.9125397000461817,,063,00,2025-03-21_13h55.41.427,Surprise recog test,2023.1.3,59.958077272352696,
169,0,169,0,,,,,,,,,,,,,,,,,,,,,,,,,,,,,,,,,,1389.6981329000555,1390.7115232001524,1387.289662900148,1387.289662900148,1387.289662900148,1387.289662900148,new_sceneIn_49.png,170,4.0,2.4054876000154763,,063,00,2025-03-21_13h55.41.427,Surprise recog test,2023.1.3,59.958077272352696,
170,0,170,0,,,,,,,,,,,,,,,,,,,,,,,,,,,,,,,,,,1392.6238490000833,1393.6342586001847,1390.7115232001524,1390.7115232001524,1390.7115232001524,1390.7115232001524,new_stationery_26.png,171,5.0,1.9058744998183101,,063,00,2025-03-21_13h55.41.427,Surprise recog test,2023.1.3,59.958077272352696,
171,0,171,0,,,,,,,,,,,,,,,,,,,,,,,,,,,,,,,,,,1395.1135499000084,,1393.6342586001847,1393.6342586001847,1393.6342586001847,1393.6342586001847,old_sceneIn_35.png,172,5.0,1.4741998999379575,,063,00,2025-03-21_13h55.41.427,Surprise recog test,2023.1.3,59.958077272352696,
172,0,172,0,,,,,,,,,,,,,,,,,,,,,,,,,,,,,,,,,,1397.7800937001593,1398.8000351001974,1396.1443394001108,1396.1443394001108,1396.1443394001108,1396.1443394001108,old_stationery_28.png,173,1.0,1.636024900013581,,063,00,2025-03-21_13h55.41.427,Surprise recog test,2023.1.3,59.958077272352696,
173,0,173,0,,,,,,,,,,,,,,,,,,,,,,,,,,,,,,,,,,1400.631698800018,1401.6555369000416,1398.8000351001974,1398.8000351001974,1398.8000351001974,1398.8000351001974,old_sceneIn_5.png,174,5.0,1.8324003000743687,,063,00,2025-03-21_13h55.41.427,Surprise recog test,2023.1.3,59.958077272352696,
174,0,174,0,,,,,,,,,,,,,,,,,,,,,,,,,,,,,,,,,,1402.4416816001758,1403.459026800003,1401.6555369000416,1401.6555369000416,1401.6555369000416,1401.6555369000416,old_sceneIn_26.png,175,5.0,0.7885076999664307,,063,00,2025-03-21_13h55.41.427,Surprise recog test,2023.1.3,59.958077272352696,
175,0,175,0,,,,,,,,,,,,,,,,,,,,,,,,,,,,,,,,,,1404.662643500138,1405.6908722000662,1403.459026800003,1403.459026800003,1403.459026800003,1403.459026800003,old_sceneOut_28.png,176,5.0,1.1993623001035303,,063,00,2025-03-21_13h55.41.427,Surprise recog test,2023.1.3,59.958077272352696,
176,0,176,0,,,,,,,,,,,,,,,,,,,,,,,,,,,,,,,,,,1407.7577996000182,,1405.6908722000662,1405.6908722000662,1405.6908722000662,1405.6908722000662,old_fruit_22.png,177,5.0,2.070231200195849,,063,00,2025-03-21_13h55.41.427,Surprise recog test,2023.1.3,59.958077272352696,
177,0,177,0,,,,,,,,,,,,,,,,,,,,,,,,,,,,,,,,,,1409.6971257000696,1410.715868000174,1408.7795270001516,1408.7795270001516,1408.7795270001516,1408.7795270001516,old_sceneIn_20.png,178,5.0,0.9137170000467449,,063,00,2025-03-21_13h55.41.427,Surprise recog test,2023.1.3,59.958077272352696,
178,0,178,0,,,,,,,,,,,,,,,,,,,,,,,,,,,,,,,,,,1411.7543575000018,1412.780579800019,1410.715868000174,1410.715868000174,1410.715868000174,1410.715868000174,new_sceneOut_31.png,179,5.0,1.0327224000357091,,063,00,2025-03-21_13h55.41.427,Surprise recog test,2023.1.3,59.958077272352696,
179,0,179,0,,,,,,,,,,,,,,,,,,,,,,,,,,,,,,,,,,1414.8443740000948,1415.850448000012,1412.780579800019,1412.780579800019,1412.780579800019,1412.780579800019,old_fruit_31.png,180,5.0,2.0617639999836683,,063,00,2025-03-21_13h55.41.427,Surprise recog test,2023.1.3,59.958077272352696,
180,0,180,0,,,,,,,,,,,,,,,,,,,,,,,,,,,,,,,,,,1416.8219570000656,1417.8509589000605,1415.850448000012,1415.850448000012,1415.850448000012,1415.850448000012,new_sceneIn_41.png,181,5.0,0.9690594000276178,,063,00,2025-03-21_13h55.41.427,Surprise recog test,2023.1.3,59.958077272352696,
181,0,181,0,,,,,,,,,,,,,,,,,,,,,,,,,,,,,,,,,,1419.4996605000924,1420.5195795001928,1417.8509589000605,1417.8509589000605,1417.8509589000605,1417.8509589000605,old_sceneOut_34.png,182,3.0,1.6506690999958664,,063,00,2025-03-21_13h55.41.427,Surprise recog test,2023.1.3,59.958077272352696,
182,0,182,0,,,,,,,,,,,,,,,,,,,,,,,,,,,,,,,,,,1422.2097142001148,1423.227307900088,1420.5195795001928,1420.5195795001928,1420.5195795001928,1420.5195795001928,old_stationery_38.png,183,1.0,1.6931994000915438,,063,00,2025-03-21_13h55.41.427,Surprise recog test,2023.1.3,59.958077272352696,
183,0,183,0,,,,,,,,,,,,,,,,,,,,,,,,,,,,,,,,,,1424.0358471001964,1425.044037700165,1423.227307900088,1423.227307900088,1423.227307900088,1423.227307900088,old_stationery_11.png,184,1.0,0.8033321001566947,,063,00,2025-03-21_13h55.41.427,Surprise recog test,2023.1.3,59.958077272352696,
184,0,184,0,,,,,,,,,,,,,,,,,,,,,,,,,,,,,,,,,,1425.8842455002014,1426.8962427000515,1425.044037700165,1425.044037700165,1425.044037700165,1425.044037700165,new_stationery_16.png,185,1.0,0.8339183998759836,,063,00,2025-03-21_13h55.41.427,Surprise recog test,2023.1.3,59.958077272352696,
185,0,185,0,,,,,,,,,,,,,,,,,,,,,,,,,,,,,,,,,,1428.055072200019,1429.079238400096,1426.8962427000515,1426.8962427000515,1426.8962427000515,1426.8962427000515,old_fruit_45.png,186,1.0,1.1555389999412,,063,00,2025-03-21_13h55.41.427,Surprise recog test,2023.1.3,59.958077272352696,
186,0,186,0,,,,,,,,,,,,,,,,,,,,,,,,,,,,,,,,,,1429.8236993001774,1430.8297668001615,1429.079238400096,1429.079238400096,1429.079238400096,1429.079238400096,new_fruit_49.png,187,1.0,0.7474946000147611,,063,00,2025-03-21_13h55.41.427,Surprise recog test,2023.1.3,59.958077272352696,
187,0,187,0,,,,,,,,,,,,,,,,,,,,,,,,,,,,,,,,,,1432.9520984000992,1433.9845990000758,1430.8297668001615,1430.8297668001615,1430.8297668001615,1430.8297668001615,old_sceneIn_16.png,188,5.0,2.119805600028485,,063,00,2025-03-21_13h55.41.427,Surprise recog test,2023.1.3,59.958077272352696,
188,0,188,0,,,,,,,,,,,,,,,,,,,,,,,,,,,,,,,,,,1435.5207488001324,1436.5507865999825,1433.9845990000758,1433.9845990000758,1433.9845990000758,1433.9845990000758,new_fruit_37.png,189,5.0,1.538870999822393,,063,00,2025-03-21_13h55.41.427,Surprise recog test,2023.1.3,59.958077272352696,
189,0,189,0,,,,,,,,,,,,,,,,,,,,,,,,,,,,,,,,,,1437.533433600096,,1436.5507865999825,1436.5507865999825,1436.5507865999825,1436.5507865999825,new_sceneIn_33.png,190,5.0,0.9861783999949694,,063,00,2025-03-21_13h55.41.427,Surprise recog test,2023.1.3,59.958077272352696,
190,0,190,0,,,,,,,,,,,,,,,,,,,,,,,,,,,,,,,,,,1439.6243939001579,1440.6408305000514,1438.566401900025,1438.566401900025,1438.566401900025,1438.566401900025,new_fruit_27.png,191,5.0,1.0573263000696898,,063,00,2025-03-21_13h55.41.427,Surprise recog test,2023.1.3,59.958077272352696,
191,0,191,0,,,,,,,,,,,,,,,,,,,,,,,,,,,,,,,,,,1441.699176600203,1442.7098874000367,1440.6408305000514,1440.6408305000514,1440.6408305000514,1440.6408305000514,new_fruit_20.png,192,5.0,1.0537992001045495,,063,00,2025-03-21_13h55.41.427,Surprise recog test,2023.1.3,59.958077272352696,
192,0,192,0,,,,,,,,,,,,,,,,,,,,,,,,,,,,,,,,,,1445.2697831999976,1446.2745033001993,1442.7098874000367,1442.7098874000367,1442.7098874000367,1442.7098874000367,old_fruit_25.png,193,1.0,2.550519300159067,,063,00,2025-03-21_13h55.41.427,Surprise recog test,2023.1.3,59.958077272352696,
193,0,193,0,,,,,,,,,,,,,,,,,,,,,,,,,,,,,,,,,,1448.9422723001335,,1446.2745033001993,1446.2745033001993,1446.2745033001993,1446.2745033001993,old_sceneOut_47.png,194,3.0,2.6645788000896573,,063,00,2025-03-21_13h55.41.427,Surprise recog test,2023.1.3,59.958077272352696,
194,0,194,0,,,,,,,,,,,,,,,,,,,,,,,,,,,,,,,,,,1452.037743800087,1453.0521829000209,1449.9631870000158,1449.9631870000158,1449.9631870000158,1449.9631870000158,old_sceneIn_9.png,195,5.0,2.070646299980581,,063,00,2025-03-21_13h55.41.427,Surprise recog test,2023.1.3,59.958077272352696,
195,0,195,0,,,,,,,,,,,,,,,,,,,,,,,,,,,,,,,,,,1454.7796996000689,1455.7976439001504,1453.0521829000209,1453.0521829000209,1453.0521829000209,1453.0521829000209,old_stationery_36.png,196,1.0,1.7240667000878602,,063,00,2025-03-21_13h55.41.427,Surprise recog test,2023.1.3,59.958077272352696,
196,0,196,0,,,,,,,,,,,,,,,,,,,,,,,,,,,,,,,,,,1457.7083774001803,1458.735591800185,1455.7976439001504,1455.7976439001504,1455.7976439001504,1455.7976439001504,new_sceneIn_15.png,197,5.0,1.9101783998776227,,063,00,2025-03-21_13h55.41.427,Surprise recog test,2023.1.3,59.958077272352696,
197,0,197,0,,,,,,,,,,,,,,,,,,,,,,,,,,,,,,,,,,1459.955462400103,1460.9802895002067,1458.735591800185,1458.735591800185,1458.735591800185,1458.735591800185,new_fruit_12.png,198,5.0,1.2179845001082867,,063,00,2025-03-21_13h55.41.427,Surprise recog test,2023.1.3,59.958077272352696,
198,0,198,0,,,,,,,,,,,,,,,,,,,,,,,,,,,,,,,,,,1463.0546697999816,,1460.9802895002067,1460.9802895002067,1460.9802895002067,1460.9802895002067,old_fruit_36.png,199,5.0,2.074207700090483,,063,00,2025-03-21_13h55.41.427,Surprise recog test,2023.1.3,59.958077272352696,
199,0,199,0,,,,,,,,,,,,,,,,,,,,,,,,,,,,,,,,,,1466.3002816000953,1467.3123940001242,1464.0765707001556,1464.0765707001556,1464.0765707001556,1464.0765707001556,new_fruit_39.png,200,1.0,2.2174999001435935,,063,00,2025-03-21_13h55.41.427,Surprise recog test,2023.1.3,59.958077272352696,
200,0,200,0,,,,,,,,,,,,,,,,,,,,,,,,,,,,,,,,,,1468.9534915001132,1469.9647648001555,1467.3123940001242,1467.3123940001242,1467.3123940001242,1467.3123940001242,new_stationery_27.png,201,5.0,1.6347772998269647,,063,00,2025-03-21_13h55.41.427,Surprise recog test,2023.1.3,59.958077272352696,
201,0,201,0,,,,,,,,,,,,,,,,,,,,,,,,,,,,,,,,,,1471.7296643001027,,1469.9647648001555,1469.9647648001555,1469.9647648001555,1469.9647648001555,old_fruit_35.png,202,1.0,1.757642799988389,,063,00,2025-03-21_13h55.41.427,Surprise recog test,2023.1.3,59.958077272352696,
202,0,202,0,,,,,,,,,,,,,,,,,,,,,,,,,,,,,,,,,,1475.322340400191,1476.3374775000848,1472.7493599001318,1472.7493599001318,1472.7493599001318,1472.7493599001318,old_sceneOut_29.png,203,5.0,2.5689401999115944,,063,00,2025-03-21_13h55.41.427,Surprise recog test,2023.1.3,59.958077272352696,
203,0,203,0,,,,,,,,,,,,,,,,,,,,,,,,,,,,,,,,,,1478.767655899981,,1476.3374775000848,1476.3374775000848,1476.3374775000848,1476.3374775000848,new_sceneIn_48.png,204,5.0,2.423501699930057,,063,00,2025-03-21_13h55.41.427,Surprise recog test,2023.1.3,59.958077272352696,
204,0,204,0,,,,,,,,,,,,,,,,,,,,,,,,,,,,,,,,,,1481.3347958000377,1482.3532552001998,1479.806847000029,1479.806847000029,1479.806847000029,1479.806847000029,old_fruit_17.png,205,5.0,1.5282211999874562,,063,00,2025-03-21_13h55.41.427,Surprise recog test,2023.1.3,59.958077272352696,
205,0,205,0,,,,,,,,,,,,,,,,,,,,,,,,,,,,,,,,,,1484.788445000071,,1482.3532552001998,1482.3532552001998,1482.3532552001998,1482.3532552001998,old_stationery_12.png,206,1.0,2.434883699985221,,063,00,2025-03-21_13h55.41.427,Surprise recog test,2023.1.3,59.958077272352696,
206,0,206,0,,,,,,,,,,,,,,,,,,,,,,,,,,,,,,,,,,1486.8917200001888,,1485.822066700086,1485.822066700086,1485.822066700086,1485.822066700086,old_fruit_15.png,207,1.0,1.0718625001609325,,063,00,2025-03-21_13h55.41.427,Surprise recog test,2023.1.3,59.958077272352696,
207,0,207,0,,,,,,,,,,,,,,,,,,,,,,,,,,,,,,,,,,1491.0376888001338,1492.0627688001841,1487.9259797001723,1487.9259797001723,1487.9259797001723,1487.9259797001723,new_sceneIn_42.png,208,4.0,3.1125040999613702,,063,00,2025-03-21_13h55.41.427,Surprise recog test,2023.1.3,59.958077272352696,
208,0,208,0,,,,,,,,,,,,,,,,,,,,,,,,,,,,,,,,,,1492.8561504001264,1493.883733500028,1492.0627688001841,1492.0627688001841,1492.0627688001841,1492.0627688001841,old_sceneIn_40.png,209,4.0,0.7939138000365347,,063,00,2025-03-21_13h55.41.427,Surprise recog test,2023.1.3,59.958077272352696,
209,0,209,0,,,,,,,,,,,,,,,,,,,,,,,,,,,,,,,,,,1495.5080686002038,1496.5305677000433,1493.883733500028,1493.883733500028,1493.883733500028,1493.883733500028,old_stationery_27.png,210,1.0,1.6266214998904616,,063,00,2025-03-21_13h55.41.427,Surprise recog test,2023.1.3,59.958077272352696,
210,0,210,0,,,,,,,,,,,,,,,,,,,,,,,,,,,,,,,,,,1498.2238070000894,1499.2499210999813,1496.5305677000433,1496.5305677000433,1496.5305677000433,1496.5305677000433,old_sceneOut_24.png,211,3.0,1.6943208000157028,,063,00,2025-03-21_13h55.41.427,Surprise recog test,2023.1.3,59.958077272352696,
211,0,211,0,,,,,,,,,,,,,,,,,,,,,,,,,,,,,,,,,,1501.750017200131,1502.7707954000216,1499.2499210999813,1499.2499210999813,1499.2499210999813,1499.2499210999813,new_fruit_50.png,212,3.0,2.5017643000464886,,063,00,2025-03-21_13h55.41.427,Surprise recog test,2023.1.3,59.958077272352696,
212,0,212,0,,,,,,,,,,,,,,,,,,,,,,,,,,,,,,,,,,1505.3959443001077,1506.4221181001049,1502.7707954000216,1502.7707954000216,1502.7707954000216,1502.7707954000216,new_stationery_22.png,213,2.0,2.625920500140637,,063,00,2025-03-21_13h55.41.427,Surprise recog test,2023.1.3,59.958077272352696,
213,0,213,0,,,,,,,,,,,,,,,,,,,,,,,,,,,,,,,,,,1509.180193600012,1510.2033149001654,1506.4221181001049,1506.4221181001049,1506.4221181001049,1506.4221181001049,new_sceneIn_8.png,214,4.0,2.7581042000092566,,063,00,2025-03-21_13h55.41.427,Surprise recog test,2023.1.3,59.958077272352696,
214,0,214,0,,,,,,,,,,,,,,,,,,,,,,,,,,,,,,,,,,1512.3849806000944,1513.402034100145,1510.2033149001654,1510.2033149001654,1510.2033149001654,1510.2033149001654,old_stationery_7.png,215,5.0,2.179229100001976,,063,00,2025-03-21_13h55.41.427,Surprise recog test,2023.1.3,59.958077272352696,
215,0,215,0,,,,,,,,,,,,,,,,,,,,,,,,,,,,,,,,,,1514.6073673001956,1515.6191977001727,1513.402034100145,1513.402034100145,1513.402034100145,1513.402034100145,old_sceneOut_17.png,216,5.0,1.2016888000071049,,063,00,2025-03-21_13h55.41.427,Surprise recog test,2023.1.3,59.958077272352696,
216,0,216,0,,,,,,,,,,,,,,,,,,,,,,,,,,,,,,,,,,1517.4488477001432,,1515.6191977001727,1515.6191977001727,1515.6191977001727,1515.6191977001727,new_fruit_23.png,217,1.0,1.8250110000371933,,063,00,2025-03-21_13h55.41.427,Surprise recog test,2023.1.3,59.958077272352696,
217,0,217,0,,,,,,,,,,,,,,,,,,,,,,,,,,,,,,,,,,1520.115410900209,1521.1357111001853,1518.4676487001125,1518.4676487001125,1518.4676487001125,1518.4676487001125,new_sceneIn_27.png,218,3.0,1.6420124999713153,,063,00,2025-03-21_13h55.41.427,Surprise recog test,2023.1.3,59.958077272352696,
218,0,218,0,,,,,,,,,,,,,,,,,,,,,,,,,,,,,,,,,,1522.3592279001605,1523.3871489001904,1521.1357111001853,1521.1357111001853,1521.1357111001853,1521.1357111001853,old_sceneIn_4.png,219,3.0,1.2257650999817997,,063,00,2025-03-21_13h55.41.427,Surprise recog test,2023.1.3,59.958077272352696,
219,0,219,0,,,,,,,,,,,,,,,,,,,,,,,,,,,,,,,,,,1525.3262302000076,1526.354146500118,1523.3871489001904,1523.3871489001904,1523.3871489001904,1523.3871489001904,new_stationery_50.png,220,1.0,1.9419917999766767,,063,00,2025-03-21_13h55.41.427,Surprise recog test,2023.1.3,59.958077272352696,
220,0,220,0,,,,,,,,,,,,,,,,,,,,,,,,,,,,,,,,,,1528.4641065001488,1529.4923895001411,1526.354146500118,1526.354146500118,1526.354146500118,1526.354146500118,old_stationery_9.png,221,5.0,2.1095986999571323,,063,00,2025-03-21_13h55.41.427,Surprise recog test,2023.1.3,59.958077272352696,
221,0,221,0,,,,,,,,,,,,,,,,,,,,,,,,,,,,,,,,,,1530.5825686000753,1531.5954307999928,1529.4923895001411,1529.4923895001411,1529.4923895001411,1529.4923895001411,new_stationery_30.png,222,5.0,1.0918723000213504,,063,00,2025-03-21_13h55.41.427,Surprise recog test,2023.1.3,59.958077272352696,
222,0,222,0,,,,,,,,,,,,,,,,,,,,,,,,,,,,,,,,,,1533.4766828999855,1534.4987141001038,1531.5954307999928,1531.5954307999928,1531.5954307999928,1531.5954307999928,new_fruit_42.png,223,5.0,1.872242100071162,,063,00,2025-03-21_13h55.41.427,Surprise recog test,2023.1.3,59.958077272352696,
223,0,223,0,,,,,,,,,,,,,,,,,,,,,,,,,,,,,,,,,,1535.9119345000945,1536.9336379000451,1534.4987141001038,1534.4987141001038,1534.4987141001038,1534.4987141001038,old_fruit_11.png,224,3.0,1.4135437000077218,,063,00,2025-03-21_13h55.41.427,Surprise recog test,2023.1.3,59.958077272352696,
224,0,224,0,,,,,,,,,,,,,,,,,,,,,,,,,,,,,,,,,,1538.885209799977,,1536.9336379000451,1536.9336379000451,1536.9336379000451,1536.9336379000451,new_stationery_7.png,225,5.0,1.952389300102368,,063,00,2025-03-21_13h55.41.427,Surprise recog test,2023.1.3,59.958077272352696,
225,0,225,0,,,,,,,,,,,,,,,,,,,,,,,,,,,,,,,,,,1540.6749299999792,1541.6991903001908,1539.9177951000165,1539.9177951000165,1539.9177951000165,1539.9177951000165,old_sceneOut_49.png,226,5.0,0.7597626999486238,,063,00,2025-03-21_13h55.41.427,Surprise recog test,2023.1.3,59.958077272352696,
226,0,226,0,,,,,,,,,,,,,,,,,,,,,,,,,,,,,,,,,,1542.7977782001253,1543.8095992000308,1541.6991903001908,1541.6991903001908,1541.6991903001908,1541.6991903001908,old_sceneOut_43.png,227,5.0,1.0989773999899626,,063,00,2025-03-21_13h55.41.427,Surprise recog test,2023.1.3,59.958077272352696,
227,0,227,0,,,,,,,,,,,,,,,,,,,,,,,,,,,,,,,,,,1545.222355000209,,1543.8095992000308,1543.8095992000308,1543.8095992000308,1543.8095992000308,old_stationery_48.png,228,1.0,1.4085707999765873,,063,00,2025-03-21_13h55.41.427,Surprise recog test,2023.1.3,59.958077272352696,
228,0,228,0,,,,,,,,,,,,,,,,,,,,,,,,,,,,,,,,,,1547.9091610000469,,1546.25658200006,1546.25658200006,1546.25658200006,1546.25658200006,new_sceneOut_5.png,229,5.0,1.6553815000224859,,063,00,2025-03-21_13h55.41.427,Surprise recog test,2023.1.3,59.958077272352696,
229,0,229,0,,,,,,,,,,,,,,,,,,,,,,,,,,,,,,,,,,1551.4105403001886,,1548.9312067001592,1548.9312067001592,1548.9312067001592,1548.9312067001592,new_sceneIn_22.png,230,5.0,2.477006700122729,,063,00,2025-03-21_13h55.41.427,Surprise recog test,2023.1.3,59.958077272352696,
230,0,230,0,,,,,,,,,,,,,,,,,,,,,,,,,,,,,,,,,,1553.8990019001067,1554.9320798001718,1552.4465630000923,1552.4465630000923,1552.4465630000923,1552.4465630000923,old_sceneOut_10.png,231,5.0,1.452991700032726,,063,00,2025-03-21_13h55.41.427,Surprise recog test,2023.1.3,59.958077272352696,
231,0,231,0,,,,,,,,,,,,,,,,,,,,,,,,,,,,,,,,,,1555.6283693001606,1556.63696969999,1554.9320798001718,1554.9320798001718,1554.9320798001718,1554.9320798001718,old_sceneOut_35.png,232,5.0,0.6943742001894861,,063,00,2025-03-21_13h55.41.427,Surprise recog test,2023.1.3,59.958077272352696,
232,0,232,0,,,,,,,,,,,,,,,,,,,,,,,,,,,,,,,,,,1557.848304900108,1558.851464100182,1556.63696969999,1556.63696969999,1556.63696969999,1556.63696969999,old_fruit_48.png,233,5.0,1.2072515001054853,,063,00,2025-03-21_13h55.41.427,Surprise recog test,2023.1.3,59.958077272352696,
233,0,233,0,,,,,,,,,,,,,,,,,,,,,,,,,,,,,,,,,,1559.6840301000047,,1558.851464100182,1558.851464100182,1558.851464100182,1558.851464100182,new_fruit_44.png,234,5.0,0.8194738000165671,,063,00,2025-03-21_13h55.41.427,Surprise recog test,2023.1.3,59.958077272352696,
234,0,234,0,,,,,,,,,,,,,,,,,,,,,,,,,,,,,,,,,,1561.967566500185,1562.9870596001856,1560.7224216000177,1560.7224216000177,1560.7224216000177,1560.7224216000177,new_stationery_40.png,235,5.0,1.2461504000239074,,063,00,2025-03-21_13h55.41.427,Surprise recog test,2023.1.3,59.958077272352696,
235,0,235,0,,,,,,,,,,,,,,,,,,,,,,,,,,,,,,,,,,1564.8943817000836,1565.9242637001444,1562.9870596001856,1562.9870596001856,1562.9870596001856,1562.9870596001856,old_fruit_8.png,236,5.0,1.9088808000087738,,063,00,2025-03-21_13h55.41.427,Surprise recog test,2023.1.3,59.958077272352696,
236,0,236,0,,,,,,,,,,,,,,,,,,,,,,,,,,,,,,,,,,1567.023421500111,,1565.9242637001444,1565.9242637001444,1565.9242637001444,1565.9242637001444,new_sceneIn_9.png,237,5.0,1.0997675999533385,,063,00,2025-03-21_13h55.41.427,Surprise recog test,2023.1.3,59.958077272352696,
237,0,237,0,,,,,,,,,,,,,,,,,,,,,,,,,,,,,,,,,,1569.8689247001894,1570.8962048999965,1568.0601629000157,1568.0601629000157,1568.0601629000157,1568.0601629000157,old_stationery_18.png,238,1.0,1.8115529001224786,,063,00,2025-03-21_13h55.41.427,Surprise recog test,2023.1.3,59.958077272352696,
238,0,238,0,,,,,,,,,,,,,,,,,,,,,,,,,,,,,,,,,,1572.9060578001663,1573.9177794000134,1570.8962048999965,1570.8962048999965,1570.8962048999965,1570.8962048999965,new_sceneIn_44.png,239,4.0,2.013851100113243,,063,00,2025-03-21_13h55.41.427,Surprise recog test,2023.1.3,59.958077272352696,
239,0,239,0,,,,,,,,,,,,,,,,,,,,,,,,,,,,,,,,,,1574.7659490001388,1575.7963719000109,1573.9177794000134,1573.9177794000134,1573.9177794000134,1573.9177794000134,new_sceneIn_40.png,240,4.0,0.8445711000822484,,063,00,2025-03-21_13h55.41.427,Surprise recog test,2023.1.3,59.958077272352696,
240,0,240,0,,,,,,,,,,,,,,,,,,,,,,,,,,,,,,,,,,1578.1280017001554,1579.1514582000673,1575.7963719000109,1575.7963719000109,1575.7963719000109,1575.7963719000109,old_fruit_33.png,241,2.0,2.3346394998952746,,063,00,2025-03-21_13h55.41.427,Surprise recog test,2023.1.3,59.958077272352696,
241,0,241,0,,,,,,,,,,,,,,,,,,,,,,,,,,,,,,,,,,1580.6939583001658,1581.7186238002032,1579.1514582000673,1579.1514582000673,1579.1514582000673,1579.1514582000673,old_stationery_29.png,242,1.0,1.54428660008125,,063,00,2025-03-21_13h55.41.427,Surprise recog test,2023.1.3,59.958077272352696,
242,0,242,0,,,,,,,,,,,,,,,,,,,,,,,,,,,,,,,,,,1583.163440000033,1584.1825975000393,1581.7186238002032,1581.7186238002032,1581.7186238002032,1581.7186238002032,new_sceneIn_10.png,243,3.0,1.4452086000237614,,063,00,2025-03-21_13h55.41.427,Surprise recog test,2023.1.3,59.958077272352696,
243,0,243,0,,,,,,,,,,,,,,,,,,,,,,,,,,,,,,,,,,1586.3043212001212,1587.323608300183,1584.1825975000393,1584.1825975000393,1584.1825975000393,1584.1825975000393,old_sceneOut_20.png,244,5.0,2.1233745000790805,,063,00,2025-03-21_13h55.41.427,Surprise recog test,2023.1.3,59.958077272352696,
244,0,244,0,,,,,,,,,,,,,,,,,,,,,,,,,,,,,,,,,,1588.0731370002031,1589.0916766000446,1587.323608300183,1587.323608300183,1587.323608300183,1587.323608300183,new_sceneIn_13.png,245,5.0,0.7505995000246912,,063,00,2025-03-21_13h55.41.427,Surprise recog test,2023.1.3,59.958077272352696,
245,0,245,0,,,,,,,,,,,,,,,,,,,,,,,,,,,,,,,,,,1590.396047500195,1591.429166899994,1589.0916766000446,1589.0916766000446,1589.0916766000446,1589.0916766000446,new_fruit_3.png,246,5.0,1.3069423001725227,,063,00,2025-03-21_13h55.41.427,Surprise recog test,2023.1.3,59.958077272352696,
246,0,246,0,,,,,,,,,,,,,,,,,,,,,,,,,,,,,,,,,,1592.9730689001735,1593.997453900054,1591.429166899994,1591.429166899994,1591.429166899994,1591.429166899994,old_stationery_5.png,247,1.0,1.5468578999862075,,063,00,2025-03-21_13h55.41.427,Surprise recog test,2023.1.3,59.958077272352696,
247,0,247,0,,,,,,,,,,,,,,,,,,,,,,,,,,,,,,,,,,1595.2419873001054,1596.2622907999903,1593.997453900054,1593.997453900054,1593.997453900054,1593.997453900054,new_sceneIn_14.png,248,3.0,1.2468325002118945,,063,00,2025-03-21_13h55.41.427,Surprise recog test,2023.1.3,59.958077272352696,
248,0,248,0,,,,,,,,,,,,,,,,,,,,,,,,,,,,,,,,,,1597.2704016000498,1598.2886558000464,1596.2622907999903,1596.2622907999903,1596.2622907999903,1596.2622907999903,new_sceneOut_24.png,249,3.0,1.0041686000768095,,063,00,2025-03-21_13h55.41.427,Surprise recog test,2023.1.3,59.958077272352696,
249,0,249,0,,,,,,,,,,,,,,,,,,,,,,,,,,,,,,,,,,1600.2081675999798,1601.2197759000119,1598.2886558000464,1598.2886558000464,1598.2886558000464,1598.2886558000464,new_sceneOut_43.png,250,4.0,1.9148049999494106,,063,00,2025-03-21_13h55.41.427,Surprise recog test,2023.1.3,59.958077272352696,
250,0,250,0,,,,,,,,,,,,,,,,,,,,,,,,,,,,,,,,,,1602.740120400209,1603.7722537000664,1601.2197759000119,1601.2197759000119,1601.2197759000119,1601.2197759000119,old_stationery_1.png,251,1.0,1.5148964000400156,,063,00,2025-03-21_13h55.41.427,Surprise recog test,2023.1.3,59.958077272352696,
251,0,251,0,,,,,,,,,,,,,,,,,,,,,,,,,,,,,,,,,,1604.7525761001743,1605.7761141001247,1603.7722537000664,1603.7722537000664,1603.7722537000664,1603.7722537000664,old_fruit_27.png,252,1.0,0.9803775998298079,,063,00,2025-03-21_13h55.41.427,Surprise recog test,2023.1.3,59.958077272352696,
252,0,252,0,,,,,,,,,,,,,,,,,,,,,,,,,,,,,,,,,,1606.6054485000204,1607.6128462001216,1605.7761141001247,1605.7761141001247,1605.7761141001247,1605.7761141001247,old_fruit_30.png,253,1.0,0.8326881001703441,,063,00,2025-03-21_13h55.41.427,Surprise recog test,2023.1.3,59.958077272352696,
253,0,253,0,,,,,,,,,,,,,,,,,,,,,,,,,,,,,,,,,,1608.4136842000298,1609.4358914000914,1607.6128462001216,1607.6128462001216,1607.6128462001216,1607.6128462001216,new_stationery_28.png,254,1.0,0.7962551000528038,,063,00,2025-03-21_13h55.41.427,Surprise recog test,2023.1.3,59.958077272352696,
254,0,254,0,,,,,,,,,,,,,,,,,,,,,,,,,,,,,,,,,,1610.401528700022,1611.4280650999863,1609.4358914000914,1609.4358914000914,1609.4358914000914,1609.4358914000914,old_stationery_43.png,255,1.0,0.9616145000327379,,063,00,2025-03-21_13h55.41.427,Surprise recog test,2023.1.3,59.958077272352696,
255,0,255,0,,,,,,,,,,,,,,,,,,,,,,,,,,,,,,,,,,1613.781548900064,1614.8016544000711,1611.4280650999863,1611.4280650999863,1611.4280650999863,1611.4280650999863,new_fruit_22.png,256,5.0,2.3537116998340935,,063,00,2025-03-21_13h55.41.427,Surprise recog test,2023.1.3,59.958077272352696,
256,0,256,0,,,,,,,,,,,,,,,,,,,,,,,,,,,,,,,,,,1615.5838953000493,1616.6169355001766,1614.8016544000711,1614.8016544000711,1614.8016544000711,1614.8016544000711,old_sceneOut_21.png,257,5.0,0.7786598999518901,,063,00,2025-03-21_13h55.41.427,Surprise recog test,2023.1.3,59.958077272352696,
257,0,257,0,,,,,,,,,,,,,,,,,,,,,,,,,,,,,,,,,,1618.2785480001476,1619.3016454000026,1616.6169355001766,1616.6169355001766,1616.6169355001766,1616.6169355001766,old_fruit_43.png,258,5.0,1.6622325999196619,,063,00,2025-03-21_13h55.41.427,Surprise recog test,2023.1.3,59.958077272352696,
258,0,258,0,,,,,,,,,,,,,,,,,,,,,,,,,,,,,,,,,,1620.3272322001867,1621.3498574001715,1619.3016454000026,1619.3016454000026,1619.3016454000026,1619.3016454000026,new_sceneIn_18.png,259,5.0,1.0244259000755847,,063,00,2025-03-21_13h55.41.427,Surprise recog test,2023.1.3,59.958077272352696,
259,0,259,0,,,,,,,,,,,,,,,,,,,,,,,,,,,,,,,,,,1624.552457400132,1625.5722245001234,1621.3498574001715,1621.3498574001715,1621.3498574001715,1621.3498574001715,new_sceneOut_36.png,260,2.0,3.2024630000814795,,063,00,2025-03-21_13h55.41.427,Surprise recog test,2023.1.3,59.958077272352696,
260,0,260,0,,,,,,,,,,,,,,,,,,,,,,,,,,,,,,,,,,1627.7849507001229,1628.8102742000483,1625.5722245001234,1625.5722245001234,1625.5722245001234,1625.5722245001234,old_fruit_44.png,261,4.0,2.214157500071451,,063,00,2025-03-21_13h55.41.427,Surprise recog test,2023.1.3,59.958077272352696,
261,0,261,0,,,,,,,,,,,,,,,,,,,,,,,,,,,,,,,,,,1631.2640456000809,1632.2966477000155,1628.8102742000483,1628.8102742000483,1628.8102742000483,1628.8102742000483,old_fruit_26.png,262,4.0,2.4559482999611646,,063,00,2025-03-21_13h55.41.427,Surprise recog test,2023.1.3,59.958077272352696,
262,0,262,0,,,,,,,,,,,,,,,,,,,,,,,,,,,,,,,,,,1635.176986800041,1636.1864893999882,1632.2966477000155,1632.2966477000155,1632.2966477000155,1632.2966477000155,old_fruit_10.png,263,1.0,2.8818888999521732,,063,00,2025-03-21_13h55.41.427,Surprise recog test,2023.1.3,59.958077272352696,
263,0,263,0,,,,,,,,,,,,,,,,,,,,,,,,,,,,,,,,,,1638.9580863001756,1639.9742207000963,1636.1864893999882,1636.1864893999882,1636.1864893999882,1636.1864893999882,old_sceneIn_8.png,264,2.0,2.7675934999715537,,063,00,2025-03-21_13h55.41.427,Surprise recog test,2023.1.3,59.958077272352696,
264,0,264,0,,,,,,,,,,,,,,,,,,,,,,,,,,,,,,,,,,1642.4335891001392,1643.4548992000055,1639.9742207000963,1639.9742207000963,1639.9742207000963,1639.9742207000963,old_sceneIn_2.png,265,3.0,2.4555931000504643,,063,00,2025-03-21_13h55.41.427,Surprise recog test,2023.1.3,59.958077272352696,
265,0,265,0,,,,,,,,,,,,,,,,,,,,,,,,,,,,,,,,,,1645.0192205000203,1646.027530600084,1643.4548992000055,1643.4548992000055,1643.4548992000055,1643.4548992000055,old_sceneOut_33.png,266,4.0,1.5660372998099774,,063,00,2025-03-21_13h55.41.427,Surprise recog test,2023.1.3,59.958077272352696,
266,0,266,0,,,,,,,,,,,,,,,,,,,,,,,,,,,,,,,,,,1647.430029500043,1648.4564959001727,1646.027530600084,1646.027530600084,1646.027530600084,1646.027530600084,new_fruit_13.png,267,4.0,1.3987960999365896,,063,00,2025-03-21_13h55.41.427,Surprise recog test,2023.1.3,59.958077272352696,
267,0,267,0,,,,,,,,,,,,,,,,,,,,,,,,,,,,,,,,,,1649.9403163001407,1650.9483982000966,1648.4564959001727,1648.4564959001727,1648.4564959001727,1648.4564959001727,new_fruit_8.png,268,4.0,1.48120480007492,,063,00,2025-03-21_13h55.41.427,Surprise recog test,2023.1.3,59.958077272352696,
268,0,268,0,,,,,,,,,,,,,,,,,,,,,,,,,,,,,,,,,,1651.7660511999857,1652.800270800013,1650.9483982000966,1650.9483982000966,1650.9483982000966,1650.9483982000966,new_sceneOut_42.png,269,4.0,0.8124710998963565,,063,00,2025-03-21_13h55.41.427,Surprise recog test,2023.1.3,59.958077272352696,
269,0,269,0,,,,,,,,,,,,,,,,,,,,,,,,,,,,,,,,,,1653.7099355000537,1654.7309549001511,1652.800270800013,1652.800270800013,1652.800270800013,1652.800270800013,new_sceneIn_32.png,270,4.0,0.9097605999559164,,063,00,2025-03-21_13h55.41.427,Surprise recog test,2023.1.3,59.958077272352696,
270,0,270,0,,,,,,,,,,,,,,,,,,,,,,,,,,,,,,,,,,1655.47119880002,1656.4862033000682,1654.7309549001511,1654.7309549001511,1654.7309549001511,1654.7309549001511,new_sceneOut_3.png,271,4.0,0.7424098001793027,,063,00,2025-03-21_13h55.41.427,Surprise recog test,2023.1.3,59.958077272352696,
271,0,271,0,,,,,,,,,,,,,,,,,,,,,,,,,,,,,,,,,,1657.698849500157,,1656.4862033000682,1656.4862033000682,1656.4862033000682,1656.4862033000682,old_sceneOut_26.png,272,3.0,1.2077490000519902,,063,00,2025-03-21_13h55.41.427,Surprise recog test,2023.1.3,59.958077272352696,
272,0,272,0,,,,,,,,,,,,,,,,,,,,,,,,,,,,,,,,,,1660.627188600134,1661.6563532000873,1658.7210745001212,1658.7210745001212,1658.7210745001212,1658.7210745001212,old_fruit_6.png,273,5.0,1.9012635999824852,,063,00,2025-03-21_13h55.41.427,Surprise recog test,2023.1.3,59.958077272352696,
273,0,273,0,,,,,,,,,,,,,,,,,,,,,,,,,,,,,,,,,,1662.3798322000075,1663.4029145000968,1661.6563532000873,1661.6563532000873,1661.6563532000873,1661.6563532000873,new_sceneOut_45.png,274,5.0,0.7272868000436574,,063,00,2025-03-21_13h55.41.427,Surprise recog test,2023.1.3,59.958077272352696,
274,0,274,0,,,,,,,,,,,,,,,,,,,,,,,,,,,,,,,,,,1664.5523103000596,1665.560946200043,1663.4029145000968,1663.4029145000968,1663.4029145000968,1663.4029145000968,new_fruit_26.png,275,5.0,1.1484528998844326,,063,00,2025-03-21_13h55.41.427,Surprise recog test,2023.1.3,59.958077272352696,
275,0,275,0,,,,,,,,,,,,,,,,,,,,,,,,,,,,,,,,,,1668.2952925001737,1669.3267886000685,1665.560946200043,1665.560946200043,1665.560946200043,1665.560946200043,old_stationery_46.png,276,2.0,2.7306490000337362,,063,00,2025-03-21_13h55.41.427,Surprise recog test,2023.1.3,59.958077272352696,
276,0,276,0,,,,,,,,,,,,,,,,,,,,,,,,,,,,,,,,,,1670.757445299998,1671.7773298001848,1669.3267886000685,1669.3267886000685,1669.3267886000685,1669.3267886000685,old_sceneOut_1.png,277,2.0,1.4301397998351604,,063,00,2025-03-21_13h55.41.427,Surprise recog test,2023.1.3,59.958077272352696,
277,0,277,0,,,,,,,,,,,,,,,,,,,,,,,,,,,,,,,,,,1673.462742100004,,1671.7773298001848,1671.7773298001848,1671.7773298001848,1671.7773298001848,new_stationery_14.png,278,5.0,1.6865654001012444,,063,00,2025-03-21_13h55.41.427,Surprise recog test,2023.1.3,59.958077272352696,
278,0,278,0,,,,,,,,,,,,,,,,,,,,,,,,,,,,,,,,,,1675.4327231000643,1676.4534555000719,1674.4865125000942,1674.4865125000942,1674.4865125000942,1674.4865125000942,new_stationery_21.png,279,5.0,0.9453555000945926,,063,00,2025-03-21_13h55.41.427,Surprise recog test,2023.1.3,59.958077272352696,
279,0,279,0,,,,,,,,,,,,,,,,,,,,,,,,,,,,,,,,,,1677.3787854001857,1678.3876315001398,1676.4534555000719,1676.4534555000719,1676.4534555000719,1676.4534555000719,new_fruit_15.png,280,5.0,0.9223435998428613,,063,00,2025-03-21_13h55.41.427,Surprise recog test,2023.1.3,59.958077272352696,
280,0,280,0,,,,,,,,,,,,,,,,,,,,,,,,,,,,,,,,,,1679.0477820001543,1680.06646370003,1678.3876315001398,1678.3876315001398,1678.3876315001398,1678.3876315001398,old_sceneOut_27.png,281,5.0,0.654835700057447,,063,00,2025-03-21_13h55.41.427,Surprise recog test,2023.1.3,59.958077272352696,
281,0,281,0,,,,,,,,,,,,,,,,,,,,,,,,,,,,,,,,,,1680.9667160999961,1681.9905348001048,1680.06646370003,1680.06646370003,1680.06646370003,1680.06646370003,old_fruit_41.png,282,5.0,0.901831499999389,,063,00,2025-03-21_13h55.41.427,Surprise recog test,2023.1.3,59.958077272352696,
282,0,282,0,,,,,,,,,,,,,,,,,,,,,,,,,,,,,,,,,,1682.6600218000822,1683.676439100178,1681.9905348001048,1681.9905348001048,1681.9905348001048,1681.9905348001048,old_sceneOut_32.png,283,5.0,0.6717211999930441,,063,00,2025-03-21_13h55.41.427,Surprise recog test,2023.1.3,59.958077272352696,
283,0,283,0,,,,,,,,,,,,,,,,,,,,,,,,,,,,,,,,,,1684.6483521000482,1685.6723953001201,1683.676439100178,1683.676439100178,1683.676439100178,1683.676439100178,old_sceneOut_13.png,284,5.0,0.9681061999872327,,063,00,2025-03-21_13h55.41.427,Surprise recog test,2023.1.3,59.958077272352696,
284,0,284,0,,,,,,,,,,,,,,,,,,,,,,,,,,,,,,,,,,1686.582962400047,1687.6051700001117,1685.6723953001201,1685.6723953001201,1685.6723953001201,1685.6723953001201,old_sceneIn_29.png,285,5.0,0.9112571000587195,,063,00,2025-03-21_13h55.41.427,Surprise recog test,2023.1.3,59.958077272352696,
285,0,285,0,,,,,,,,,,,,,,,,,,,,,,,,,,,,,,,,,,1689.2335807001218,1690.260412500007,1687.6051700001117,1687.6051700001117,1687.6051700001117,1687.6051700001117,old_sceneOut_9.png,286,4.0,1.628616799833253,,063,00,2025-03-21_13h55.41.427,Surprise recog test,2023.1.3,59.958077272352696,
286,0,286,0,,,,,,,,,,,,,,,,,,,,,,,,,,,,,,,,,,1691.7960087000392,,1690.260412500007,1690.260412500007,1690.260412500007,1690.260412500007,new_sceneIn_28.png,287,4.0,1.536607300164178,,063,00,2025-03-21_13h55.41.427,Surprise recog test,2023.1.3,59.958077272352696,
287,0,287,0,,,,,,,,,,,,,,,,,,,,,,,,,,,,,,,,,,1694.442175200209,1695.4618739001453,1692.8289149000775,1692.8289149000775,1692.8289149000775,1692.8289149000775,old_fruit_37.png,288,5.0,1.614522899966687,,063,00,2025-03-21_13h55.41.427,Surprise recog test,2023.1.3,59.958077272352696,
288,0,288,0,,,,,,,,,,,,,,,,,,,,,,,,,,,,,,,,,,1697.7205807000864,1698.7443451001309,1695.4618739001453,1695.4618739001453,1695.4618739001453,1695.4618739001453,new_stationery_1.png,289,2.0,2.2567498998250812,,063,00,2025-03-21_13h55.41.427,Surprise recog test,2023.1.3,59.958077272352696,
289,0,289,0,,,,,,,,,,,,,,,,,,,,,,,,,,,,,,,,,,1700.3696781999897,,1698.7443451001309,1698.7443451001309,1698.7443451001309,1698.7443451001309,new_fruit_17.png,290,3.0,1.6228172997944057,,063,00,2025-03-21_13h55.41.427,Surprise recog test,2023.1.3,59.958077272352696,
290,0,290,0,,,,,,,,,,,,,,,,,,,,,,,,,,,,,,,,,,1702.9011594001204,1703.9209352000616,1701.3970583002083,1701.3970583002083,1701.3970583002083,1701.3970583002083,old_stationery_14.png,291,1.0,1.5064329002052546,,063,00,2025-03-21_13h55.41.427,Surprise recog test,2023.1.3,59.958077272352696,
291,0,291,0,,,,,,,,,,,,,,,,,,,,,,,,,,,,,,,,,,1704.8858916000463,1705.905278700171,1703.9209352000616,1703.9209352000616,1703.9209352000616,1703.9209352000616,old_stationery_25.png,292,1.0,0.9595810000319034,,063,00,2025-03-21_13h55.41.427,Surprise recog test,2023.1.3,59.958077272352696,
292,0,292,0,,,,,,,,,,,,,,,,,,,,,,,,,,,,,,,,,,1707.5512676001526,1708.5754092000425,1705.905278700171,1705.905278700171,1705.905278700171,1705.905278700171,old_sceneOut_16.png,293,3.0,1.6484044000972062,,063,00,2025-03-21_13h55.41.427,Surprise recog test,2023.1.3,59.958077272352696,
293,0,293,0,,,,,,,,,,,,,,,,,,,,,,,,,,,,,,,,,,1711.3333959002048,1712.3494710000232,1708.5754092000425,1708.5754092000425,1708.5754092000425,1708.5754092000425,old_sceneOut_42.png,294,4.0,2.7594747999683022,,063,00,2025-03-21_13h55.41.427,Surprise recog test,2023.1.3,59.958077272352696,
294,0,294,0,,,,,,,,,,,,,,,,,,,,,,,,,,,,,,,,,,1713.8600123000797,1714.8800986001734,1712.3494710000232,1712.3494710000232,1712.3494710000232,1712.3494710000232,new_fruit_24.png,295,5.0,1.505551400128752,,063,00,2025-03-21_13h55.41.427,Surprise recog test,2023.1.3,59.958077272352696,
295,0,295,0,,,,,,,,,,,,,,,,,,,,,,,,,,,,,,,,,,1715.894415799994,1716.900099400198,1714.8800986001734,1714.8800986001734,1714.8800986001734,1714.8800986001734,new_stationery_11.png,296,5.0,1.0159492001403123,,063,00,2025-03-21_13h55.41.427,Surprise recog test,2023.1.3,59.958077272352696,
296,0,296,0,,,,,,,,,,,,,,,,,,,,,,,,,,,,,,,,,,1717.9082884001546,1718.9213906000368,1716.900099400198,1716.900099400198,1716.900099400198,1716.900099400198,new_sceneIn_2.png,297,5.0,1.0038227001205087,,063,00,2025-03-21_13h55.41.427,Surprise recog test,2023.1.3,59.958077272352696,
297,0,297,0,,,,,,,,,,,,,,,,,,,,,,,,,,,,,,,,,,1720.2665438000113,1721.2943471001927,1718.9213906000368,1718.9213906000368,1718.9213906000368,1718.9213906000368,old_stationery_34.png,298,1.0,1.3399078000802547,,063,00,2025-03-21_13h55.41.427,Surprise recog test,2023.1.3,59.958077272352696,
298,0,298,0,,,,,,,,,,,,,,,,,,,,,,,,,,,,,,,,,,1722.6966643000487,1723.7094098001253,1721.2943471001927,1721.2943471001927,1721.2943471001927,1721.2943471001927,new_sceneOut_46.png,299,5.0,1.4055808000266552,,063,00,2025-03-21_13h55.41.427,Surprise recog test,2023.1.3,59.958077272352696,
299,0,299,0,,,,,,,,,,,,,,,,,,,,,,,,,,,,,,,,,,1724.4555838999804,,1723.7094098001253,1723.7094098001253,1723.7094098001253,1723.7094098001253,old_sceneOut_46.png,300,5.0,0.7404188001528382,,063,00,2025-03-21_13h55.41.427,Surprise recog test,2023.1.3,59.958077272352696,
300,0,300,0,,,,,,,,,,,,,,,,,,,,,,,,,,,,,,,,,,1726.5730664001312,,1725.4891932001337,1725.4891932001337,1725.4891932001337,1725.4891932001337,old_sceneOut_4.png,301,5.0,1.0868620998226106,,063,00,2025-03-21_13h55.41.427,Surprise recog test,2023.1.3,59.958077272352696,
301,0,301,0,,,,,,,,,,,,,,,,,,,,,,,,,,,,,,,,,,1729.993111900054,,1727.6083955001086,1727.6083955001086,1727.6083955001086,1727.6083955001086,old_sceneOut_19.png,302,5.0,2.3878458000253886,,063,00,2025-03-21_13h55.41.427,Surprise recog test,2023.1.3,59.958077272352696,
302,0,302,0,,,,,,,,,,,,,,,,,,,,,,,,,,,,,,,,,,1733.2252546001691,1734.24800770008,1731.0158770000562,1731.0158770000562,1731.0158770000562,1731.0158770000562,new_sceneOut_47.png,303,3.0,2.206038099946454,,063,00,2025-03-21_13h55.41.427,Surprise recog test,2023.1.3,59.958077272352696,
303,0,303,0,,,,,,,,,,,,,,,,,,,,,,,,,,,,,,,,,,1735.995161200175,1737.0148366000503,1734.24800770008,1734.24800770008,1734.24800770008,1734.24800770008,old_stationery_13.png,304,1.0,1.744825700065121,,063,00,2025-03-21_13h55.41.427,Surprise recog test,2023.1.3,59.958077272352696,
304,0,304,0,,,,,,,,,,,,,,,,,,,,,,,,,,,,,,,,,,1738.9910508000758,1740.018142200075,1737.0148366000503,1737.0148366000503,1737.0148366000503,1737.0148366000503,new_sceneOut_39.png,305,4.0,1.9786462998017669,,063,00,2025-03-21_13h55.41.427,Surprise recog test,2023.1.3,59.958077272352696,
305,0,305,0,,,,,,,,,,,,,,,,,,,,,,,,,,,,,,,,,,1740.8657401001547,1741.8782330001704,1740.018142200075,1740.018142200075,1740.018142200075,1740.018142200075,old_sceneIn_22.png,306,4.0,0.8433715999126434,,063,00,2025-03-21_13h55.41.427,Surprise recog test,2023.1.3,59.958077272352696,
306,0,306,0,,,,,,,,,,,,,,,,,,,,,,,,,,,,,,,,,,1743.7082577000838,1744.7225699999835,1741.8782330001704,1741.8782330001704,1741.8782330001704,1741.8782330001704,new_fruit_33.png,307,5.0,1.8302984999027103,,063,00,2025-03-21_13h55.41.427,Surprise recog test,2023.1.3,59.958077272352696,
307,0,307,0,,,,,,,,,,,,,,,,,,,,,,,,,,,,,,,,,,1746.053447500104,1747.0599663001485,1744.7225699999835,1744.7225699999835,1744.7225699999835,1744.7225699999835,new_stationery_3.png,308,5.0,1.3204164998605847,,063,00,2025-03-21_13h55.41.427,Surprise recog test,2023.1.3,59.958077272352696,
308,0,308,0,,,,,,,,,,,,,,,,,,,,,,,,,,,,,,,,,,1748.2385829000268,1749.2440267000347,1747.0599663001485,1747.0599663001485,1747.0599663001485,1747.0599663001485,new_stationery_25.png,309,5.0,1.1699481999967247,,063,00,2025-03-21_13h55.41.427,Surprise recog test,2023.1.3,59.958077272352696,
309,0,309,0,,,,,,,,,,,,,,,,,,,,,,,,,,,,,,,,,,1750.3569252002053,1751.361837200122,1749.2440267000347,1749.2440267000347,1749.2440267000347,1749.2440267000347,new_sceneOut_33.png,310,5.0,1.1040242000017315,,063,00,2025-03-21_13h55.41.427,Surprise recog test,2023.1.3,59.958077272352696,
310,0,310,0,,,,,,,,,,,,,,,,,,,,,,,,,,,,,,,,,,1752.1085423000623,1753.1173340000678,1751.361837200122,1751.361837200122,1751.361837200122,1751.361837200122,old_sceneOut_5.png,311,5.0,0.7364471999462694,,063,00,2025-03-21_13h55.41.427,Surprise recog test,2023.1.3,59.958077272352696,
311,0,311,0,,,,,,,,,,,,,,,,,,,,,,,,,,,,,,,,,,1754.5104334000498,1755.5152718001045,1753.1173340000678,1753.1173340000678,1753.1173340000678,1753.1173340000678,old_stationery_4.png,312,1.0,1.387869699858129,,063,00,2025-03-21_13h55.41.427,Surprise recog test,2023.1.3,59.958077272352696,
312,0,312,0,,,,,,,,,,,,,,,,,,,,,,,,,,,,,,,,,,1757.4962355000898,1758.5108962000813,1755.5152718001045,1755.5152718001045,1755.5152718001045,1755.5152718001045,new_fruit_9.png,313,3.0,1.970689200097695,,063,00,2025-03-21_13h55.41.427,Surprise recog test,2023.1.3,59.958077272352696,
313,0,313,0,,,,,,,,,,,,,,,,,,,,,,,,,,,,,,,,,,1760.6188484001905,,1758.5108962000813,1758.5108962000813,1758.5108962000813,1758.5108962000813,new_stationery_31.png,314,5.0,2.101081999950111,,063,00,2025-03-21_13h55.41.427,Surprise recog test,2023.1.3,59.958077272352696,
314,0,314,0,,,,,,,,,,,,,,,,,,,,,,,,,,,,,,,,,,1763.8520432000514,1764.8584379001986,1761.647764600115,1761.647764600115,1761.647764600115,1761.647764600115,new_sceneOut_35.png,315,3.0,2.203587500145659,,063,00,2025-03-21_13h55.41.427,Surprise recog test,2023.1.3,59.958077272352696,
315,0,315,0,,,,,,,,,,,,,,,,,,,,,,,,,,,,,,,,,,1766.1036081002094,1767.1216586001683,1764.8584379001986,1764.8584379001986,1764.8584379001986,1764.8584379001986,old_stationery_31.png,316,1.0,1.2400837000459433,,063,00,2025-03-21_13h55.41.427,Surprise recog test,2023.1.3,59.958077272352696,
316,0,316,0,,,,,,,,,,,,,,,,,,,,,,,,,,,,,,,,,,1768.456266600173,1769.4707345000934,1767.1216586001683,1767.1216586001683,1767.1216586001683,1767.1216586001683,old_sceneIn_31.png,317,1.0,1.3375506999436766,,063,00,2025-03-21_13h55.41.427,Surprise recog test,2023.1.3,59.958077272352696,
317,0,317,0,,,,,,,,,,,,,,,,,,,,,,,,,,,,,,,,,,1770.3596954001114,,1769.4707345000934,1769.4707345000934,1769.4707345000934,1769.4707345000934,old_stationery_26.png,318,1.0,0.8897525002248585,,063,00,2025-03-21_13h55.41.427,Surprise recog test,2023.1.3,59.958077272352696,
318,0,318,0,,,,,,,,,,,,,,,,,,,,,,,,,,,,,,,,,,1773.329835700104,,1771.383022500202,1771.383022500202,1771.383022500202,1771.383022500202,old_fruit_21.png,319,1.0,1.941998700145632,,063,00,2025-03-21_13h55.41.427,Surprise recog test,2023.1.3,59.958077272352696,
319,0,319,0,,,,,,,,,,,,,,,,,,,,,,,,,,,,,,,,,,1775.418994500069,1776.4472382999957,1774.3616638001986,1774.3616638001986,1774.3616638001986,1774.3616638001986,new_fruit_28.png,320,1.0,1.0569576998241246,,063,00,2025-03-21_13h55.41.427,Surprise recog test,2023.1.3,59.958077272352696,
320,0,320,0,,,,,,,,,,,,,,,,,,,,,,,,,,,,,,,,,,1777.3974301000126,1778.4060593000613,1776.4472382999957,1776.4472382999957,1776.4472382999957,1776.4472382999957,old_stationery_37.png,321,1.0,0.9522788000758737,,063,00,2025-03-21_13h55.41.427,Surprise recog test,2023.1.3,59.958077272352696,
321,0,321,0,,,,,,,,,,,,,,,,,,,,,,,,,,,,,,,,,,1780.2439773001242,1781.2534227001015,1778.4060593000613,1778.4060593000613,1778.4060593000613,1778.4060593000613,old_sceneOut_22.png,322,3.0,1.8340920000337064,,063,00,2025-03-21_13h55.41.427,Surprise recog test,2023.1.3,59.958077272352696,
322,0,322,0,,,,,,,,,,,,,,,,,,,,,,,,,,,,,,,,,,1782.888854000019,,1781.2534227001015,1781.2534227001015,1781.2534227001015,1781.2534227001015,new_sceneIn_39.png,323,3.0,1.6285734998527914,,063,00,2025-03-21_13h55.41.427,Surprise recog test,2023.1.3,59.958077272352696,
323,0,323,0,,,,,,,,,,,,,,,,,,,,,,,,,,,,,,,,,,1785.1619909000583,1786.182329900097,1783.908785100095,1783.908785100095,1783.908785100095,1783.908785100095,old_stationery_39.png,324,1.0,1.2483850999269634,,063,00,2025-03-21_13h55.41.427,Surprise recog test,2023.1.3,59.958077272352696,
324,0,324,0,,,,,,,,,,,,,,,,,,,,,,,,,,,,,,,,,,1787.0140568001661,1788.043141900096,1786.182329900097,1786.182329900097,1786.182329900097,1786.182329900097,old_stationery_50.png,325,1.0,0.8325032000429928,,063,00,2025-03-21_13h55.41.427,Surprise recog test,2023.1.3,59.958077272352696,
325,0,325,0,,,,,,,,,,,,,,,,,,,,,,,,,,,,,,,,,,1789.521496700123,1790.5309225001838,1788.043141900096,1788.043141900096,1788.043141900096,1788.043141900096,new_sceneIn_23.png,326,1.0,1.480579099850729,,063,00,2025-03-21_13h55.41.427,Surprise recog test,2023.1.3,59.958077272352696,
326,0,326,0,,,,,,,,,,,,,,,,,,,,,,,,,,,,,,,,,,1791.725588100031,1792.7334889001213,1790.5309225001838,1790.5309225001838,1790.5309225001838,1790.5309225001838,old_stationery_6.png,327,1.0,1.189623299986124,,063,00,2025-03-21_13h55.41.427,Surprise recog test,2023.1.3,59.958077272352696,
327,0,327,0,,,,,,,,,,,,,,,,,,,,,,,,,,,,,,,,,,1794.6783358000685,1795.6925546000712,1792.7334889001213,1792.7334889001213,1792.7334889001213,1792.7334889001213,old_stationery_16.png,328,1.0,1.9403046001680195,,063,00,2025-03-21_13h55.41.427,Surprise recog test,2023.1.3,59.958077272352696,
328,0,328,0,,,,,,,,,,,,,,,,,,,,,,,,,,,,,,,,,,1798.3267769999802,1799.3385747000575,1795.6925546000712,1795.6925546000712,1795.6925546000712,1795.6925546000712,new_sceneIn_3.png,329,3.0,2.6345347000751644,,063,00,2025-03-21_13h55.41.427,Surprise recog test,2023.1.3,59.958077272352696,
329,0,329,0,,,,,,,,,,,,,,,,,,,,,,,,,,,,,,,,,,1801.4944215000141,1802.5088885000441,1799.3385747000575,1799.3385747000575,1799.3385747000575,1799.3385747000575,new_stationery_43.png,330,5.0,2.1513846998568624,,063,00,2025-03-21_13h55.41.427,Surprise recog test,2023.1.3,59.958077272352696,
330,0,330,0,,,,,,,,,,,,,,,,,,,,,,,,,,,,,,,,,,1803.772786000045,1804.8052676001098,1802.5088885000441,1802.5088885000441,1802.5088885000441,1802.5088885000441,old_stationery_21.png,331,1.0,1.259669299935922,,063,00,2025-03-21_13h55.41.427,Surprise recog test,2023.1.3,59.958077272352696,
331,0,331,0,,,,,,,,,,,,,,,,,,,,,,,,,,,,,,,,,,1806.5676424000412,1807.5830340001266,1804.8052676001098,1804.8052676001098,1804.8052676001098,1804.8052676001098,new_sceneOut_25.png,332,3.0,1.7644899999722838,,063,00,2025-03-21_13h55.41.427,Surprise recog test,2023.1.3,59.958077272352696,
332,0,332,0,,,,,,,,,,,,,,,,,,,,,,,,,,,,,,,,,,1809.0773961001541,1810.104408300016,1807.5830340001266,1807.5830340001266,1807.5830340001266,1807.5830340001266,new_stationery_34.png,333,1.0,1.4922497998923063,,063,00,2025-03-21_13h55.41.427,Surprise recog test,2023.1.3,59.958077272352696,
333,0,333,0,,,,,,,,,,,,,,,,,,,,,,,,,,,,,,,,,,1811.5558476999868,1812.5800483999774,1810.104408300016,1810.104408300016,1810.104408300016,1810.104408300016,new_fruit_46.png,334,3.0,1.450870200060308,,063,00,2025-03-21_13h55.41.427,Surprise recog test,2023.1.3,59.958077272352696,
334,0,334,0,,,,,,,,,,,,,,,,,,,,,,,,,,,,,,,,,,1815.3192041001748,1816.3498515000101,1812.5800483999774,1812.5800483999774,1812.5800483999774,1812.5800483999774,old_sceneOut_41.png,335,4.0,2.7423206998500973,,063,00,2025-03-21_13h55.41.427,Surprise recog test,2023.1.3,59.958077272352696,
335,0,335,0,,,,,,,,,,,,,,,,,,,,,,,,,,,,,,,,,,1818.4692582001444,1819.4975705000106,1816.3498515000101,1816.3498515000101,1816.3498515000101,1816.3498515000101,old_stationery_44.png,336,1.0,2.1212534999940544,,063,00,2025-03-21_13h55.41.427,Surprise recog test,2023.1.3,59.958077272352696,
336,0,336,0,,,,,,,,,,,,,,,,,,,,,,,,,,,,,,,,,,1820.8728879000992,1821.9064190001227,1819.4975705000106,1819.4975705000106,1819.4975705000106,1819.4975705000106,new_sceneOut_38.png,337,3.0,1.3764765001833439,,063,00,2025-03-21_13h55.41.427,Surprise recog test,2023.1.3,59.958077272352696,
337,0,337,0,,,,,,,,,,,,,,,,,,,,,,,,,,,,,,,,,,1823.4853485000785,1824.5008655001875,1821.9064190001227,1821.9064190001227,1821.9064190001227,1821.9064190001227,new_fruit_6.png,338,1.0,1.5823341000359505,,063,00,2025-03-21_13h55.41.427,Surprise recog test,2023.1.3,59.958077272352696,
338,0,338,0,,,,,,,,,,,,,,,,,,,,,,,,,,,,,,,,,,1825.9807780000847,1826.9947526000906,1824.5008655001875,1824.5008655001875,1824.5008655001875,1824.5008655001875,old_sceneIn_45.png,339,4.0,1.4820544999092817,,063,00,2025-03-21_13h55.41.427,Surprise recog test,2023.1.3,59.958077272352696,
339,0,339,0,,,,,,,,,,,,,,,,,,,,,,,,,,,,,,,,,,1828.2420678001363,,1826.9947526000906,1826.9947526000906,1826.9947526000906,1826.9947526000906,new_stationery_38.png,340,1.0,1.246044100029394,,063,00,2025-03-21_13h55.41.427,Surprise recog test,2023.1.3,59.958077272352696,
340,0,340,0,,,,,,,,,,,,,,,,,,,,,,,,,,,,,,,,,,1830.8539714000653,1831.8728098000865,1829.2743250001222,1829.2743250001222,1829.2743250001222,1829.2743250001222,old_stationery_15.png,341,1.0,1.5809106000233442,,063,00,2025-03-21_13h55.41.427,Surprise recog test,2023.1.3,59.958077272352696,
341,0,341,0,,,,,,,,,,,,,,,,,,,,,,,,,,,,,,,,,,1833.4162008999847,1834.4447747999802,1831.8728098000865,1831.8728098000865,1831.8728098000865,1831.8728098000865,old_sceneOut_31.png,342,3.0,1.5446399000938982,,063,00,2025-03-21_13h55.41.427,Surprise recog test,2023.1.3,59.958077272352696,
342,0,342,0,,,,,,,,,,,,,,,,,,,,,,,,,,,,,,,,,,1835.6279552001506,1836.6425690001342,1834.4447747999802,1834.4447747999802,1834.4447747999802,1834.4447747999802,old_stationery_19.png,343,1.0,1.1778574001509696,,063,00,2025-03-21_13h55.41.427,Surprise recog test,2023.1.3,59.958077272352696,
343,0,343,0,,,,,,,,,,,,,,,,,,,,,,,,,,,,,,,,,,1838.8393400001805,1839.8669726001099,1836.6425690001342,1836.6425690001342,1836.6425690001342,1836.6425690001342,old_sceneOut_37.png,344,2.0,2.1964006999041885,,063,00,2025-03-21_13h55.41.427,Surprise recog test,2023.1.3,59.958077272352696,
344,0,344,0,,,,,,,,,,,,,,,,,,,,,,,,,,,,,,,,,,1840.911078199977,1841.9346130001359,1839.8669726001099,1839.8669726001099,1839.8669726001099,1839.8669726001099,old_stationery_3.png,345,1.0,1.0465279999189079,,063,00,2025-03-21_13h55.41.427,Surprise recog test,2023.1.3,59.958077272352696,
345,0,345,0,,,,,,,,,,,,,,,,,,,,,,,,,,,,,,,,,,1844.8396831999999,,1841.9346130001359,1841.9346130001359,1841.9346130001359,1841.9346130001359,new_fruit_31.png,346,2.0,2.9076310999225825,,063,00,2025-03-21_13h55.41.427,Surprise recog test,2023.1.3,59.958077272352696,
346,0,346,0,,,,,,,,,,,,,,,,,,,,,,,,,,,,,,,,,,1847.4950656001456,1848.5126792001538,1845.8719290001318,1845.8719290001318,1845.8719290001318,1845.8719290001318,new_stationery_12.png,347,5.0,1.6230389000847936,,063,00,2025-03-21_13h55.41.427,Surprise recog test,2023.1.3,59.958077272352696,
347,0,347,0,,,,,,,,,,,,,,,,,,,,,,,,,,,,,,,,,,1849.6639863001183,1850.682324900059,1848.5126792001538,1848.5126792001538,1848.5126792001538,1848.5126792001538,new_sceneOut_19.png,348,5.0,1.1454199999570847,,063,00,2025-03-21_13h55.41.427,Surprise recog test,2023.1.3,59.958077272352696,
348,0,348,0,,,,,,,,,,,,,,,,,,,,,,,,,,,,,,,,,,1851.841121100122,1852.8499803000595,1850.682324900059,1850.682324900059,1850.682324900059,1850.682324900059,old_sceneIn_33.png,349,5.0,1.1560921999625862,,063,00,2025-03-21_13h55.41.427,Surprise recog test,2023.1.3,59.958077272352696,
