trial_loop.thisRepN,trial_loop.thisTrialN,trial_loop.thisN,trial_loop.thisIndex,VAS_slider.started,VAS_text.started,VAS_notstressed_text.started,VAS_stressed_text.started,continue_input.started,continue_text.started,label0.started,label10.started,label20.started,label30.started,label40.started,label50.started,label60.started,label70.started,label80.started,label90.started,label100.started,VAS_slider.response,VAS_slider.rt,VAS_slider.history,Answer_VAS,continue_input.keys,instruction_text.started,continue_text_2.started,continue_input_2.started,continue_input_2.keys,continue_input_2.rt,continue_input_2.duration,example_text.started,example_slider_2.started,example_image.started,example_slider_2.response,example_slider_2.rt,fixcross.started,fixcross.stopped,front_square.started,stim_images.started,trial_inst_images.started,slider_images.started,thisImg,trial_count,slider_images.response,slider_images.rt,outro.started,participant,condition,date,expName,psychopyVersion,frameRate,
,,,,1493.4160210001282,1493.4160210001282,1493.4160210001282,1493.4160210001282,1493.4160210001282,1493.4160210001282,1493.4160210001282,1493.4160210001282,1493.4160210001282,1493.4160210001282,1493.4160210001282,1493.4160210001282,1493.4160210001282,1493.4160210001282,1493.4160210001282,1493.4160210001282,1493.4160210001282,1.9333333333333336,3.8225477999076247,"[(1.9333333333333336, 3.8225477999076247)]",1.9333333333333336,None,,,,,,,,,,,,,,,,,,,,,,,064,10,2025-03-28_15h00.14.656,Surprise recog test,2023.1.3,59.95304478071905,
,,,,,,,,,,,,,,,,,,,,,,,,,,1497.2705743999686,1497.2705743999686,1497.2705743999686,space,27.56620080000721,None,,,,,,,,,,,,,,,,,064,10,2025-03-28_15h00.14.656,Surprise recog test,2023.1.3,59.95304478071905,
0,0,0,0,,,,,,,,,,,,,,,,,,,,,,,,,,,,,1524.9506753000896,1524.9506753000896,1524.9506753000896,5.0,8.347647400107235,1537.160722500179,1538.1865650000982,1534.2639198000543,1534.2639198000543,1534.2639198000543,1534.2639198000543,new_sceneOut_21.png,1,2.0,2.8966968001332134,,064,10,2025-03-28_15h00.14.656,Surprise recog test,2023.1.3,59.95304478071905,
1,0,1,0,,,,,,,,,,,,,,,,,,,,,,,,,,,,,,,,,,1539.9668402001262,1540.989603599999,1538.1865650000982,1538.1865650000982,1538.1865650000982,1538.1865650000982,new_sceneIn_34.png,2,1.0,1.7820563998539,,064,10,2025-03-28_15h00.14.656,Surprise recog test,2023.1.3,59.95304478071905,
2,0,2,0,,,,,,,,,,,,,,,,,,,,,,,,,,,,,,,,,,1544.0280083001126,1545.0490359000396,1540.989603599999,1540.989603599999,1540.989603599999,1540.989603599999,new_fruit_26.png,3,3.0,3.0398416998796165,,064,10,2025-03-28_15h00.14.656,Surprise recog test,2023.1.3,59.95304478071905,
3,0,3,0,,,,,,,,,,,,,,,,,,,,,,,,,,,,,,,,,,1547.1754787000827,1548.194609099999,1545.0490359000396,1545.0490359000396,1545.0490359000396,1545.0490359000396,old_fruit_50.png,4,4.0,2.118751399917528,,064,10,2025-03-28_15h00.14.656,Surprise recog test,2023.1.3,59.95304478071905,
4,0,4,0,,,,,,,,,,,,,,,,,,,,,,,,,,,,,,,,,,1549.6592822000384,1550.6690696000587,1548.194609099999,1548.194609099999,1548.194609099999,1548.194609099999,old_stationery_14.png,5,1.0,1.4665141999721527,,064,10,2025-03-28_15h00.14.656,Surprise recog test,2023.1.3,59.95304478071905,
5,0,5,0,,,,,,,,,,,,,,,,,,,,,,,,,,,,,,,,,,1551.9810615000315,1552.9834851999767,1550.6690696000587,1550.6690696000587,1550.6690696000587,1550.6690696000587,old_stationery_33.png,6,1.0,1.3075377000495791,,064,10,2025-03-28_15h00.14.656,Surprise recog test,2023.1.3,59.95304478071905,
6,0,6,0,,,,,,,,,,,,,,,,,,,,,,,,,,,,,,,,,,1554.8294026001822,1555.8507771000732,1552.9834851999767,1552.9834851999767,1552.9834851999767,1552.9834851999767,new_stationery_1.png,7,2.0,1.8407302000559866,,064,10,2025-03-28_15h00.14.656,Surprise recog test,2023.1.3,59.95304478071905,
7,0,7,0,,,,,,,,,,,,,,,,,,,,,,,,,,,,,,,,,,1557.3430845001712,1558.3642829000019,1555.8507771000732,1555.8507771000732,1555.8507771000732,1555.8507771000732,new_stationery_35.png,8,1.0,1.4936975999735296,,064,10,2025-03-28_15h00.14.656,Surprise recog test,2023.1.3,59.95304478071905,
8,0,8,0,,,,,,,,,,,,,,,,,,,,,,,,,,,,,,,,,,1560.1078473001253,1561.138116599992,1558.3642829000019,1558.3642829000019,1558.3642829000019,1558.3642829000019,new_sceneOut_22.png,9,4.0,1.7417710998561233,,064,10,2025-03-28_15h00.14.656,Surprise recog test,2023.1.3,59.95304478071905,
9,0,9,0,,,,,,,,,,,,,,,,,,,,,,,,,,,,,,,,,,1563.6154340000357,1564.6443558000028,1561.138116599992,1561.138116599992,1561.138116599992,1561.138116599992,old_sceneOut_17.png,10,3.0,2.480647800024599,,064,10,2025-03-28_15h00.14.656,Surprise recog test,2023.1.3,59.95304478071905,
10,0,10,0,,,,,,,,,,,,,,,,,,,,,,,,,,,,,,,,,,1567.3084063001443,1568.325934200082,1564.6443558000028,1564.6443558000028,1564.6443558000028,1564.6443558000028,new_stationery_25.png,11,3.0,2.665262599941343,,064,10,2025-03-28_15h00.14.656,Surprise recog test,2023.1.3,59.95304478071905,
11,0,11,0,,,,,,,,,,,,,,,,,,,,,,,,,,,,,,,,,,1569.8656413001008,,1568.325934200082,1568.325934200082,1568.325934200082,1568.325934200082,new_fruit_27.png,12,1.0,1.5405455001164228,,064,10,2025-03-28_15h00.14.656,Surprise recog test,2023.1.3,59.95304478071905,
12,0,12,0,,,,,,,,,,,,,,,,,,,,,,,,,,,,,,,,,,1572.7413645000197,1573.7696895999834,1570.8977122001816,1570.8977122001816,1570.8977122001816,1570.8977122001816,new_sceneIn_47.png,13,2.0,1.8450827000197023,,064,10,2025-03-28_15h00.14.656,Surprise recog test,2023.1.3,59.95304478071905,
13,0,13,0,,,,,,,,,,,,,,,,,,,,,,,,,,,,,,,,,,1575.285761800129,,1573.7696895999834,1573.7696895999834,1573.7696895999834,1573.7696895999834,new_fruit_35.png,14,1.0,1.5197555001359433,,064,10,2025-03-28_15h00.14.656,Surprise recog test,2023.1.3,59.95304478071905,
14,0,14,0,,,,,,,,,,,,,,,,,,,,,,,,,,,,,,,,,,1579.335327200126,1580.3567368001677,1576.3036893000826,1576.3036893000826,1576.3036893000826,1576.3036893000826,old_stationery_11.png,15,2.0,3.027676400030032,,064,10,2025-03-28_15h00.14.656,Surprise recog test,2023.1.3,59.95304478071905,
15,0,15,0,,,,,,,,,,,,,,,,,,,,,,,,,,,,,,,,,,1582.1714763001073,1583.1930015999824,1580.3567368001677,1580.3567368001677,1580.3567368001677,1580.3567368001677,new_sceneIn_26.png,16,3.0,1.817009299993515,,064,10,2025-03-28_15h00.14.656,Surprise recog test,2023.1.3,59.95304478071905,
16,0,16,0,,,,,,,,,,,,,,,,,,,,,,,,,,,,,,,,,,1585.3015697000083,1586.3258919001091,1583.1930015999824,1583.1930015999824,1583.1930015999824,1583.1930015999824,old_sceneIn_38.png,17,4.0,2.1104305000044405,,064,10,2025-03-28_15h00.14.656,Surprise recog test,2023.1.3,59.95304478071905,
17,0,17,0,,,,,,,,,,,,,,,,,,,,,,,,,,,,,,,,,,1588.0304472001735,,1586.3258919001091,1586.3258919001091,1586.3258919001091,1586.3258919001091,old_stationery_35.png,18,1.0,1.7059372998774052,,064,10,2025-03-28_15h00.14.656,Surprise recog test,2023.1.3,59.95304478071905,
18,0,18,0,,,,,,,,,,,,,,,,,,,,,,,,,,,,,,,,,,1590.4325561001897,1591.4490319001488,1589.0624391001184,1589.0624391001184,1589.0624391001184,1589.0624391001184,new_fruit_15.png,19,1.0,1.3717724999878556,,064,10,2025-03-28_15h00.14.656,Surprise recog test,2023.1.3,59.95304478071905,
19,0,19,0,,,,,,,,,,,,,,,,,,,,,,,,,,,,,,,,,,1592.597074800171,1593.6146371001378,1591.4490319001488,1591.4490319001488,1591.4490319001488,1591.4490319001488,old_stationery_18.png,20,1.0,1.143794700037688,,064,10,2025-03-28_15h00.14.656,Surprise recog test,2023.1.3,59.95304478071905,
20,0,20,0,,,,,,,,,,,,,,,,,,,,,,,,,,,,,,,,,,1595.4155790000223,1596.4287264000159,1593.6146371001378,1593.6146371001378,1593.6146371001378,1593.6146371001378,new_fruit_37.png,21,2.0,1.8006653999909759,,064,10,2025-03-28_15h00.14.656,Surprise recog test,2023.1.3,59.95304478071905,
21,0,21,0,,,,,,,,,,,,,,,,,,,,,,,,,,,,,,,,,,1599.411403000122,1600.4401948000304,1596.4287264000159,1596.4287264000159,1596.4287264000159,1596.4287264000159,old_sceneOut_36.png,22,3.0,2.9834623001515865,,064,10,2025-03-28_15h00.14.656,Surprise recog test,2023.1.3,59.95304478071905,
22,0,22,0,,,,,,,,,,,,,,,,,,,,,,,,,,,,,,,,,,1602.2288146000355,1603.2576521001756,1600.4401948000304,1600.4401948000304,1600.4401948000304,1600.4401948000304,new_stationery_30.png,23,4.0,1.7910496001131833,,064,10,2025-03-28_15h00.14.656,Surprise recog test,2023.1.3,59.95304478071905,
23,0,23,0,,,,,,,,,,,,,,,,,,,,,,,,,,,,,,,,,,1605.0748378001153,1606.0896870000288,1603.2576521001756,1603.2576521001756,1603.2576521001756,1603.2576521001756,old_stationery_31.png,24,1.0,1.8161577000282705,,064,10,2025-03-28_15h00.14.656,Surprise recog test,2023.1.3,59.95304478071905,
24,0,24,0,,,,,,,,,,,,,,,,,,,,,,,,,,,,,,,,,,1607.4321008999832,1608.456286400091,1606.0896870000288,1606.0896870000288,1606.0896870000288,1606.0896870000288,new_sceneIn_15.png,25,1.0,1.3411903001833707,,064,10,2025-03-28_15h00.14.656,Surprise recog test,2023.1.3,59.95304478071905,
25,0,25,0,,,,,,,,,,,,,,,,,,,,,,,,,,,,,,,,,,1611.2119285000954,1612.2212891001254,1608.456286400091,1608.456286400091,1608.456286400091,1608.456286400091,old_fruit_42.png,26,2.0,2.75399830006063,,064,10,2025-03-28_15h00.14.656,Surprise recog test,2023.1.3,59.95304478071905,
26,0,26,0,,,,,,,,,,,,,,,,,,,,,,,,,,,,,,,,,,1613.7407188001089,1614.7550387000665,1612.2212891001254,1612.2212891001254,1612.2212891001254,1612.2212891001254,old_stationery_25.png,27,1.0,1.5187647000420839,,064,10,2025-03-28_15h00.14.656,Surprise recog test,2023.1.3,59.95304478071905,
27,0,27,0,,,,,,,,,,,,,,,,,,,,,,,,,,,,,,,,,,1617.1871933001094,,1614.7550387000665,1614.7550387000665,1614.7550387000665,1614.7550387000665,new_sceneOut_17.png,28,4.0,2.418967599980533,,064,10,2025-03-28_15h00.14.656,Surprise recog test,2023.1.3,59.95304478071905,
28,0,28,0,,,,,,,,,,,,,,,,,,,,,,,,,,,,,,,,,,1620.419660600135,1621.4239042000845,1618.2055618001614,1618.2055618001614,1618.2055618001614,1618.2055618001614,old_sceneIn_8.png,29,2.0,2.204553000163287,,064,10,2025-03-28_15h00.14.656,Surprise recog test,2023.1.3,59.95304478071905,
29,0,29,0,,,,,,,,,,,,,,,,,,,,,,,,,,,,,,,,,,1623.972539999988,1624.9772320999764,1621.4239042000845,1621.4239042000845,1621.4239042000845,1621.4239042000845,new_stationery_23.png,30,2.0,2.537727399962023,,064,10,2025-03-28_15h00.14.656,Surprise recog test,2023.1.3,59.95304478071905,
30,0,30,0,,,,,,,,,,,,,,,,,,,,,,,,,,,,,,,,,,1627.6090302001685,1628.6147470001597,1624.9772320999764,1624.9772320999764,1624.9772320999764,1624.9772320999764,old_sceneOut_30.png,31,5.0,2.621309299953282,,064,10,2025-03-28_15h00.14.656,Surprise recog test,2023.1.3,59.95304478071905,
31,0,31,0,,,,,,,,,,,,,,,,,,,,,,,,,,,,,,,,,,1630.4280052001122,1631.433919500094,1628.6147470001597,1628.6147470001597,1628.6147470001597,1628.6147470001597,new_stationery_22.png,32,2.0,1.802949900040403,,064,10,2025-03-28_15h00.14.656,Surprise recog test,2023.1.3,59.95304478071905,
32,0,32,0,,,,,,,,,,,,,,,,,,,,,,,,,,,,,,,,,,1633.7307700000238,1634.7353625001851,1631.433919500094,1631.433919500094,1631.433919500094,1631.433919500094,old_sceneIn_44.png,33,4.0,2.2906440999358892,,064,10,2025-03-28_15h00.14.656,Surprise recog test,2023.1.3,59.95304478071905,
33,0,33,0,,,,,,,,,,,,,,,,,,,,,,,,,,,,,,,,,,1637.4173596000765,1638.4315826999955,1634.7353625001851,1634.7353625001851,1634.7353625001851,1634.7353625001851,new_sceneOut_36.png,34,4.0,2.6755099000874907,,064,10,2025-03-28_15h00.14.656,Surprise recog test,2023.1.3,59.95304478071905,
34,0,34,0,,,,,,,,,,,,,,,,,,,,,,,,,,,,,,,,,,1640.7539478000253,1641.7726078999694,1638.4315826999955,1638.4315826999955,1638.4315826999955,1638.4315826999955,new_sceneOut_35.png,35,4.0,2.321502299979329,,064,10,2025-03-28_15h00.14.656,Surprise recog test,2023.1.3,59.95304478071905,
35,0,35,0,,,,,,,,,,,,,,,,,,,,,,,,,,,,,,,,,,1643.7718917999882,1644.7910619999748,1641.7726078999694,1641.7726078999694,1641.7726078999694,1641.7726078999694,new_stationery_41.png,36,4.0,2.0017142998985946,,064,10,2025-03-28_15h00.14.656,Surprise recog test,2023.1.3,59.95304478071905,
36,0,36,0,,,,,,,,,,,,,,,,,,,,,,,,,,,,,,,,,,1646.714027200127,1647.7322381001431,1644.7910619999748,1644.7910619999748,1644.7910619999748,1644.7910619999748,new_sceneIn_32.png,37,5.0,1.920202000066638,,064,10,2025-03-28_15h00.14.656,Surprise recog test,2023.1.3,59.95304478071905,
37,0,37,0,,,,,,,,,,,,,,,,,,,,,,,,,,,,,,,,,,1649.6905543999746,1650.702497899998,1647.7322381001431,1647.7322381001431,1647.7322381001431,1647.7322381001431,new_sceneIn_27.png,38,2.0,1.9545150001067668,,064,10,2025-03-28_15h00.14.656,Surprise recog test,2023.1.3,59.95304478071905,
38,0,38,0,,,,,,,,,,,,,,,,,,,,,,,,,,,,,,,,,,1652.5295005000662,1653.5370897001121,1650.702497899998,1650.702497899998,1650.702497899998,1650.702497899998,new_fruit_40.png,39,3.0,1.820682100020349,,064,10,2025-03-28_15h00.14.656,Surprise recog test,2023.1.3,59.95304478071905,
39,0,39,0,,,,,,,,,,,,,,,,,,,,,,,,,,,,,,,,,,1655.2987294001505,1656.3075930001214,1653.5370897001121,1653.5370897001121,1653.5370897001121,1653.5370897001121,old_stationery_42.png,40,2.0,1.7514861000236124,,064,10,2025-03-28_15h00.14.656,Surprise recog test,2023.1.3,59.95304478071905,
40,0,40,0,,,,,,,,,,,,,,,,,,,,,,,,,,,,,,,,,,1658.6735168001615,1659.7058584999759,1656.3075930001214,1656.3075930001214,1656.3075930001214,1656.3075930001214,old_fruit_49.png,41,3.0,2.361833800096065,,064,10,2025-03-28_15h00.14.656,Surprise recog test,2023.1.3,59.95304478071905,
41,0,41,0,,,,,,,,,,,,,,,,,,,,,,,,,,,,,,,,,,1661.491510400083,,1659.7058584999759,1659.7058584999759,1659.7058584999759,1659.7058584999759,new_fruit_8.png,42,1.0,1.7880662998650223,,064,10,2025-03-28_15h00.14.656,Surprise recog test,2023.1.3,59.95304478071905,
42,0,42,0,,,,,,,,,,,,,,,,,,,,,,,,,,,,,,,,,,1663.7358508000616,1664.7627081000246,1662.5262368000112,1662.5262368000112,1662.5262368000112,1662.5262368000112,old_sceneIn_50.png,43,1.0,1.2098785999696702,,064,10,2025-03-28_15h00.14.656,Surprise recog test,2023.1.3,59.95304478071905,
43,0,43,0,,,,,,,,,,,,,,,,,,,,,,,,,,,,,,,,,,1667.5110619000625,,1664.7627081000246,1664.7627081000246,1664.7627081000246,1664.7627081000246,new_fruit_24.png,44,4.0,2.747775100171566,,064,10,2025-03-28_15h00.14.656,Surprise recog test,2023.1.3,59.95304478071905,
44,0,44,0,,,,,,,,,,,,,,,,,,,,,,,,,,,,,,,,,,1670.1112042001914,1671.128731300123,1668.5301369000226,1668.5301369000226,1668.5301369000226,1668.5301369000226,old_sceneIn_45.png,45,2.0,1.5769401001743972,,064,10,2025-03-28_15h00.14.656,Surprise recog test,2023.1.3,59.95304478071905,
45,0,45,0,,,,,,,,,,,,,,,,,,,,,,,,,,,,,,,,,,1673.1170175999869,,1671.128731300123,1671.128731300123,1671.128731300123,1671.128731300123,old_sceneOut_38.png,46,4.0,1.9869108002167195,,064,10,2025-03-28_15h00.14.656,Surprise recog test,2023.1.3,59.95304478071905,
46,0,46,0,,,,,,,,,,,,,,,,,,,,,,,,,,,,,,,,,,1676.3719319000375,1677.4002823999617,1674.1378512000665,1674.1378512000665,1674.1378512000665,1674.1378512000665,old_sceneOut_39.png,47,5.0,2.227824700064957,,064,10,2025-03-28_15h00.14.656,Surprise recog test,2023.1.3,59.95304478071905,
47,0,47,0,,,,,,,,,,,,,,,,,,,,,,,,,,,,,,,,,,1680.030876000179,1681.0443339999765,1677.4002823999617,1677.4002823999617,1677.4002823999617,1677.4002823999617,old_sceneIn_32.png,48,3.0,2.6317753000184894,,064,10,2025-03-28_15h00.14.656,Surprise recog test,2023.1.3,59.95304478071905,
48,0,48,0,,,,,,,,,,,,,,,,,,,,,,,,,,,,,,,,,,1682.53811329999,1683.5618851000909,1681.0443339999765,1681.0443339999765,1681.0443339999765,1681.0443339999765,old_stationery_9.png,49,2.0,1.483536999905482,,064,10,2025-03-28_15h00.14.656,Surprise recog test,2023.1.3,59.95304478071905,
49,0,49,0,,,,,,,,,,,,,,,,,,,,,,,,,,,,,,,,,,1685.7575219001155,1686.7784288001712,1683.5618851000909,1683.5618851000909,1683.5618851000909,1683.5618851000909,new_stationery_33.png,50,2.0,2.199977299897,,064,10,2025-03-28_15h00.14.656,Surprise recog test,2023.1.3,59.95304478071905,
50,0,50,0,,,,,,,,,,,,,,,,,,,,,,,,,,,,,,,,,,1688.6464629000984,,1686.7784288001712,1686.7784288001712,1686.7784288001712,1686.7784288001712,old_sceneOut_37.png,51,4.0,1.8706831000745296,,064,10,2025-03-28_15h00.14.656,Surprise recog test,2023.1.3,59.95304478071905,
51,0,51,0,,,,,,,,,,,,,,,,,,,,,,,,,,,,,,,,,,1691.7204243000597,1692.748307300033,1689.6774606001563,1689.6774606001563,1689.6774606001563,1689.6774606001563,new_stationery_46.png,52,4.0,2.0448035998269916,,064,10,2025-03-28_15h00.14.656,Surprise recog test,2023.1.3,59.95304478071905,
52,0,52,0,,,,,,,,,,,,,,,,,,,,,,,,,,,,,,,,,,1693.881246900186,1694.898543999996,1692.748307300033,1692.748307300033,1692.748307300033,1692.748307300033,new_sceneIn_12.png,53,4.0,1.134353900095448,,064,10,2025-03-28_15h00.14.656,Surprise recog test,2023.1.3,59.95304478071905,
53,0,53,0,,,,,,,,,,,,,,,,,,,,,,,,,,,,,,,,,,1696.6267291000113,1697.6529972001445,1694.898543999996,1694.898543999996,1694.898543999996,1694.898543999996,new_sceneIn_2.png,54,5.0,1.7306146000046283,,064,10,2025-03-28_15h00.14.656,Surprise recog test,2023.1.3,59.95304478071905,
54,0,54,0,,,,,,,,,,,,,,,,,,,,,,,,,,,,,,,,,,1699.3980889001396,1700.4103831001557,1697.6529972001445,1697.6529972001445,1697.6529972001445,1697.6529972001445,new_fruit_16.png,55,4.0,1.7475940000731498,,064,10,2025-03-28_15h00.14.656,Surprise recog test,2023.1.3,59.95304478071905,
55,0,55,0,,,,,,,,,,,,,,,,,,,,,,,,,,,,,,,,,,1701.8023791001178,1702.8098761001602,1700.4103831001557,1700.4103831001557,1700.4103831001557,1700.4103831001557,new_sceneIn_16.png,56,5.0,1.3874292999971658,,064,10,2025-03-28_15h00.14.656,Surprise recog test,2023.1.3,59.95304478071905,
56,0,56,0,,,,,,,,,,,,,,,,,,,,,,,,,,,,,,,,,,1705.463078700006,1706.4954140000045,1702.8098761001602,1702.8098761001602,1702.8098761001602,1702.8098761001602,old_stationery_38.png,57,2.0,2.6503444998525083,,064,10,2025-03-28_15h00.14.656,Surprise recog test,2023.1.3,59.95304478071905,
57,0,57,0,,,,,,,,,,,,,,,,,,,,,,,,,,,,,,,,,,1708.1552538000979,1709.1691717000213,1706.4954140000045,1706.4954140000045,1706.4954140000045,1706.4954140000045,old_sceneIn_19.png,58,1.0,1.6624650999438018,,064,10,2025-03-28_15h00.14.656,Surprise recog test,2023.1.3,59.95304478071905,
58,0,58,0,,,,,,,,,,,,,,,,,,,,,,,,,,,,,,,,,,1710.98373420001,1712.0158171001822,1709.1691717000213,1709.1691717000213,1709.1691717000213,1709.1691717000213,new_sceneOut_13.png,59,4.0,1.8101349000353366,,064,10,2025-03-28_15h00.14.656,Surprise recog test,2023.1.3,59.95304478071905,
59,0,59,0,,,,,,,,,,,,,,,,,,,,,,,,,,,,,,,,,,1713.881088900147,1714.8874967000447,1712.0158171001822,1712.0158171001822,1712.0158171001822,1712.0158171001822,old_sceneOut_34.png,60,2.0,1.8606058000586927,,064,10,2025-03-28_15h00.14.656,Surprise recog test,2023.1.3,59.95304478071905,
60,0,60,0,,,,,,,,,,,,,,,,,,,,,,,,,,,,,,,,,,1716.6932443999685,1717.7201955001801,1714.8874967000447,1714.8874967000447,1714.8874967000447,1714.8874967000447,new_sceneOut_19.png,61,3.0,1.8006236001383513,,064,10,2025-03-28_15h00.14.656,Surprise recog test,2023.1.3,59.95304478071905,
61,0,61,0,,,,,,,,,,,,,,,,,,,,,,,,,,,,,,,,,,1719.6570797001477,1720.6790128999855,1717.7201955001801,1717.7201955001801,1717.7201955001801,1717.7201955001801,new_stationery_19.png,62,4.0,1.9371521999128163,,064,10,2025-03-28_15h00.14.656,Surprise recog test,2023.1.3,59.95304478071905,
62,0,62,0,,,,,,,,,,,,,,,,,,,,,,,,,,,,,,,,,,1722.767075699987,1723.7963092001155,1720.6790128999855,1720.6790128999855,1720.6790128999855,1720.6790128999855,new_sceneIn_11.png,63,3.0,2.0840562998782843,,064,10,2025-03-28_15h00.14.656,Surprise recog test,2023.1.3,59.95304478071905,
63,0,63,0,,,,,,,,,,,,,,,,,,,,,,,,,,,,,,,,,,1725.4709975000005,1726.4934262000024,1723.7963092001155,1723.7963092001155,1723.7963092001155,1723.7963092001155,old_sceneIn_5.png,64,4.0,1.6772798001766205,,064,10,2025-03-28_15h00.14.656,Surprise recog test,2023.1.3,59.95304478071905,
64,0,64,0,,,,,,,,,,,,,,,,,,,,,,,,,,,,,,,,,,1728.7427266000304,1729.7578891001176,1726.4934262000024,1726.4934262000024,1726.4934262000024,1726.4934262000024,old_sceneIn_36.png,65,4.0,2.250818100059405,,064,10,2025-03-28_15h00.14.656,Surprise recog test,2023.1.3,59.95304478071905,
65,0,65,0,,,,,,,,,,,,,,,,,,,,,,,,,,,,,,,,,,1731.2126971001271,1732.233159400057,1729.7578891001176,1729.7578891001176,1729.7578891001176,1729.7578891001176,old_sceneIn_20.png,66,5.0,1.4560805999208242,,064,10,2025-03-28_15h00.14.656,Surprise recog test,2023.1.3,59.95304478071905,
66,0,66,0,,,,,,,,,,,,,,,,,,,,,,,,,,,,,,,,,,1734.3271182000171,1735.3544189000968,1732.233159400057,1732.233159400057,1732.233159400057,1732.233159400057,old_sceneIn_1.png,67,3.0,2.096966999815777,,064,10,2025-03-28_15h00.14.656,Surprise recog test,2023.1.3,59.95304478071905,
67,0,67,0,,,,,,,,,,,,,,,,,,,,,,,,,,,,,,,,,,1737.7173459001351,1738.7425614001695,1735.3544189000968,1735.3544189000968,1735.3544189000968,1735.3544189000968,new_sceneIn_23.png,68,5.0,2.3594281000550836,,064,10,2025-03-28_15h00.14.656,Surprise recog test,2023.1.3,59.95304478071905,
68,0,68,0,,,,,,,,,,,,,,,,,,,,,,,,,,,,,,,,,,1740.562971400097,1741.590492400108,1738.7425614001695,1738.7425614001695,1738.7425614001695,1738.7425614001695,old_sceneIn_31.png,69,1.0,1.8231760000344366,,064,10,2025-03-28_15h00.14.656,Surprise recog test,2023.1.3,59.95304478071905,
69,0,69,0,,,,,,,,,,,,,,,,,,,,,,,,,,,,,,,,,,1743.6064478000626,1744.6280965001788,1741.590492400108,1741.590492400108,1741.590492400108,1741.590492400108,new_stationery_27.png,70,4.0,2.0176946001593024,,064,10,2025-03-28_15h00.14.656,Surprise recog test,2023.1.3,59.95304478071905,
70,0,70,0,,,,,,,,,,,,,,,,,,,,,,,,,,,,,,,,,,1746.885487700114,1747.9052797001787,1744.6280965001788,1744.6280965001788,1744.6280965001788,1744.6280965001788,new_sceneIn_42.png,71,4.0,2.258016999810934,,064,10,2025-03-28_15h00.14.656,Surprise recog test,2023.1.3,59.95304478071905,
71,0,71,0,,,,,,,,,,,,,,,,,,,,,,,,,,,,,,,,,,1749.7705377000384,1750.7930195000954,1747.9052797001787,1747.9052797001787,1747.9052797001787,1747.9052797001787,new_fruit_29.png,72,2.0,1.8644123999401927,,064,10,2025-03-28_15h00.14.656,Surprise recog test,2023.1.3,59.95304478071905,
72,0,72,0,,,,,,,,,,,,,,,,,,,,,,,,,,,,,,,,,,1752.8812426000368,1753.8984296000563,1750.7930195000954,1750.7930195000954,1750.7930195000954,1750.7930195000954,old_stationery_36.png,73,3.0,2.089492900064215,,064,10,2025-03-28_15h00.14.656,Surprise recog test,2023.1.3,59.95304478071905,
73,0,73,0,,,,,,,,,,,,,,,,,,,,,,,,,,,,,,,,,,1755.3827462000772,1756.3899934999645,1753.8984296000563,1753.8984296000563,1753.8984296000563,1753.8984296000563,old_fruit_27.png,74,3.0,1.4854361000470817,,064,10,2025-03-28_15h00.14.656,Surprise recog test,2023.1.3,59.95304478071905,
74,0,74,0,,,,,,,,,,,,,,,,,,,,,,,,,,,,,,,,,,1757.9012772999704,1758.9100246999878,1756.3899934999645,1756.3899934999645,1756.3899934999645,1756.3899934999645,new_sceneOut_8.png,75,5.0,1.5065119001083076,,064,10,2025-03-28_15h00.14.656,Surprise recog test,2023.1.3,59.95304478071905,
75,0,75,0,,,,,,,,,,,,,,,,,,,,,,,,,,,,,,,,,,1760.6931714999955,1761.7235417000484,1758.9100246999878,1758.9100246999878,1758.9100246999878,1758.9100246999878,old_stationery_8.png,76,1.0,1.7790571001823992,,064,10,2025-03-28_15h00.14.656,Surprise recog test,2023.1.3,59.95304478071905,
76,0,76,0,,,,,,,,,,,,,,,,,,,,,,,,,,,,,,,,,,1763.6609031001572,1764.6891326999757,1761.7235417000484,1761.7235417000484,1761.7235417000484,1761.7235417000484,new_sceneIn_8.png,77,2.0,1.9393511998932809,,064,10,2025-03-28_15h00.14.656,Surprise recog test,2023.1.3,59.95304478071905,
77,0,77,0,,,,,,,,,,,,,,,,,,,,,,,,,,,,,,,,,,1766.2104832001496,,1764.6891326999757,1764.6891326999757,1764.6891326999757,1764.6891326999757,old_fruit_32.png,78,1.0,1.5226910000201315,,064,10,2025-03-28_15h00.14.656,Surprise recog test,2023.1.3,59.95304478071905,
78,0,78,0,,,,,,,,,,,,,,,,,,,,,,,,,,,,,,,,,,1768.809901200002,1769.8143792001065,1767.2388699001167,1767.2388699001167,1767.2388699001167,1767.2388699001167,new_stationery_28.png,79,1.0,1.5666519000660628,,064,10,2025-03-28_15h00.14.656,Surprise recog test,2023.1.3,59.95304478071905,
79,0,79,0,,,,,,,,,,,,,,,,,,,,,,,,,,,,,,,,,,1772.1074296999723,1773.12061920017,1769.8143792001065,1769.8143792001065,1769.8143792001065,1769.8143792001065,new_sceneOut_2.png,80,4.0,2.2869986000005156,,064,10,2025-03-28_15h00.14.656,Surprise recog test,2023.1.3,59.95304478071905,
80,0,80,0,,,,,,,,,,,,,,,,,,,,,,,,,,,,,,,,,,1775.291659800103,1776.3228947999887,1773.12061920017,1773.12061920017,1773.12061920017,1773.12061920017,old_sceneIn_40.png,81,3.0,2.1650837999768555,,064,10,2025-03-28_15h00.14.656,Surprise recog test,2023.1.3,59.95304478071905,
81,0,81,0,,,,,,,,,,,,,,,,,,,,,,,,,,,,,,,,,,1778.7716182000004,,1776.3228947999887,1776.3228947999887,1776.3228947999887,1776.3228947999887,old_fruit_31.png,82,2.0,2.4510490999091417,,064,10,2025-03-28_15h00.14.656,Surprise recog test,2023.1.3,59.95304478071905,
82,0,82,0,,,,,,,,,,,,,,,,,,,,,,,,,,,,,,,,,,1781.588181399973,1782.5947082000785,1779.7991492999718,1779.7991492999718,1779.7991492999718,1779.7991492999718,old_stationery_15.png,83,3.0,1.7906516999937594,,064,10,2025-03-28_15h00.14.656,Surprise recog test,2023.1.3,59.95304478071905,
83,0,83,0,,,,,,,,,,,,,,,,,,,,,,,,,,,,,,,,,,1784.3894576001912,1785.3975651001092,1782.5947082000785,1782.5947082000785,1782.5947082000785,1782.5947082000785,new_sceneIn_21.png,84,4.0,1.7873680000193417,,064,10,2025-03-28_15h00.14.656,Surprise recog test,2023.1.3,59.95304478071905,
84,0,84,0,,,,,,,,,,,,,,,,,,,,,,,,,,,,,,,,,,1787.6757430001162,1788.682937500067,1785.3975651001092,1785.3975651001092,1785.3975651001092,1785.3975651001092,old_stationery_24.png,85,2.0,2.272433799924329,,064,10,2025-03-28_15h00.14.656,Surprise recog test,2023.1.3,59.95304478071905,
85,0,85,0,,,,,,,,,,,,,,,,,,,,,,,,,,,,,,,,,,1790.7489178001415,,1788.682937500067,1788.682937500067,1788.682937500067,1788.682937500067,old_sceneOut_4.png,86,4.0,2.061896099941805,,064,10,2025-03-28_15h00.14.656,Surprise recog test,2023.1.3,59.95304478071905,
86,0,86,0,,,,,,,,,,,,,,,,,,,,,,,,,,,,,,,,,,1793.5999287001323,,1791.7694314999972,1791.7694314999972,1791.7694314999972,1791.7694314999972,old_fruit_35.png,87,3.0,1.8271822000388056,,064,10,2025-03-28_15h00.14.656,Surprise recog test,2023.1.3,59.95304478071905,
87,0,87,0,,,,,,,,,,,,,,,,,,,,,,,,,,,,,,,,,,1796.490830700146,1797.5164447000716,1794.622056900058,1794.622056900058,1794.622056900058,1794.622056900058,new_sceneOut_12.png,88,4.0,1.8647169000469148,,064,10,2025-03-28_15h00.14.656,Surprise recog test,2023.1.3,59.95304478071905,
88,0,88,0,,,,,,,,,,,,,,,,,,,,,,,,,,,,,,,,,,1799.5931504999753,1800.6237407000735,1797.5164447000716,1797.5164447000716,1797.5164447000716,1797.5164447000716,new_stationery_7.png,89,2.0,2.0770735000260174,,064,10,2025-03-28_15h00.14.656,Surprise recog test,2023.1.3,59.95304478071905,
89,0,89,0,,,,,,,,,,,,,,,,,,,,,,,,,,,,,,,,,,1802.421202500118,1803.4358356001321,1800.6237407000735,1800.6237407000735,1800.6237407000735,1800.6237407000735,old_fruit_28.png,90,3.0,1.7986882000695914,,064,10,2025-03-28_15h00.14.656,Surprise recog test,2023.1.3,59.95304478071905,
90,0,90,0,,,,,,,,,,,,,,,,,,,,,,,,,,,,,,,,,,1805.0596225000918,,1803.4358356001321,1803.4358356001321,1803.4358356001321,1803.4358356001321,old_sceneOut_7.png,91,4.0,1.6226916001178324,,064,10,2025-03-28_15h00.14.656,Surprise recog test,2023.1.3,59.95304478071905,
91,0,91,0,,,,,,,,,,,,,,,,,,,,,,,,,,,,,,,,,,1807.3238105000928,1808.343584000133,1806.0901613000315,1806.0901613000315,1806.0901613000315,1806.0901613000315,old_sceneIn_17.png,92,4.0,1.2331954999826849,,064,10,2025-03-28_15h00.14.656,Surprise recog test,2023.1.3,59.95304478071905,
92,0,92,0,,,,,,,,,,,,,,,,,,,,,,,,,,,,,,,,,,1809.7882384001277,1810.8155293001328,1808.343584000133,1808.343584000133,1808.343584000133,1808.343584000133,old_sceneIn_49.png,93,4.0,1.444268099963665,,064,10,2025-03-28_15h00.14.656,Surprise recog test,2023.1.3,59.95304478071905,
93,0,93,0,,,,,,,,,,,,,,,,,,,,,,,,,,,,,,,,,,1812.624709600117,1813.6364536001347,1810.8155293001328,1810.8155293001328,1810.8155293001328,1810.8155293001328,new_stationery_6.png,94,2.0,1.810760100139305,,064,10,2025-03-28_15h00.14.656,Surprise recog test,2023.1.3,59.95304478071905,
94,0,94,0,,,,,,,,,,,,,,,,,,,,,,,,,,,,,,,,,,1815.7157563001383,1816.735351700103,1813.6364536001347,1813.6364536001347,1813.6364536001347,1813.6364536001347,old_fruit_12.png,95,1.0,2.0706526001449674,,064,10,2025-03-28_15h00.14.656,Surprise recog test,2023.1.3,59.95304478071905,
95,0,95,0,,,,,,,,,,,,,,,,,,,,,,,,,,,,,,,,,,1818.6845540001523,1819.7044832999818,1816.735351700103,1816.735351700103,1816.735351700103,1816.735351700103,old_sceneIn_46.png,96,4.0,1.9523805000353605,,064,10,2025-03-28_15h00.14.656,Surprise recog test,2023.1.3,59.95304478071905,
96,0,96,0,,,,,,,,,,,,,,,,,,,,,,,,,,,,,,,,,,1821.2428823001683,1822.2775914000813,1819.7044832999818,1819.7044832999818,1819.7044832999818,1819.7044832999818,old_sceneIn_29.png,97,5.0,1.5405912999995053,,064,10,2025-03-28_15h00.14.656,Surprise recog test,2023.1.3,59.95304478071905,
97,0,97,0,,,,,,,,,,,,,,,,,,,,,,,,,,,,,,,,,,1823.8287276001647,1824.8479049999733,1822.2775914000813,1822.2775914000813,1822.2775914000813,1822.2775914000813,old_fruit_9.png,98,2.0,1.5538790998980403,,064,10,2025-03-28_15h00.14.656,Surprise recog test,2023.1.3,59.95304478071905,
98,0,98,0,,,,,,,,,,,,,,,,,,,,,,,,,,,,,,,,,,1826.8415131000802,1827.8494138000533,1824.8479049999733,1824.8479049999733,1824.8479049999733,1824.8479049999733,old_stationery_5.png,99,4.0,1.9845143998973072,,064,10,2025-03-28_15h00.14.656,Surprise recog test,2023.1.3,59.95304478071905,
99,0,99,0,,,,,,,,,,,,,,,,,,,,,,,,,,,,,,,,,,1829.6734323001,1830.6966329000425,1827.8494138000533,1827.8494138000533,1827.8494138000533,1827.8494138000533,new_fruit_20.png,100,1.0,1.819493900053203,,064,10,2025-03-28_15h00.14.656,Surprise recog test,2023.1.3,59.95304478071905,
100,0,100,0,,,,,,,,,,,,,,,,,,,,,,,,,,,,,,,,,,1832.9942893001717,1834.0182777000591,1830.6966329000425,1830.6966329000425,1830.6966329000425,1830.6966329000425,new_sceneIn_45.png,101,3.0,2.300199299817905,,064,10,2025-03-28_15h00.14.656,Surprise recog test,2023.1.3,59.95304478071905,
101,0,101,0,,,,,,,,,,,,,,,,,,,,,,,,,,,,,,,,,,1835.5424306001514,1836.5656591001898,1834.0182777000591,1834.0182777000591,1834.0182777000591,1834.0182777000591,new_sceneOut_48.png,102,4.0,1.5259779999032617,,064,10,2025-03-28_15h00.14.656,Surprise recog test,2023.1.3,59.95304478071905,
102,0,102,0,,,,,,,,,,,,,,,,,,,,,,,,,,,,,,,,,,1838.2976009000558,1839.3197683000471,1836.5656591001898,1836.5656591001898,1836.5656591001898,1836.5656591001898,new_sceneIn_5.png,103,4.0,1.7338797999545932,,064,10,2025-03-28_15h00.14.656,Surprise recog test,2023.1.3,59.95304478071905,
103,0,103,0,,,,,,,,,,,,,,,,,,,,,,,,,,,,,,,,,,1841.2702683000825,1842.2895563000347,1839.3197683000471,1839.3197683000471,1839.3197683000471,1839.3197683000471,old_sceneIn_35.png,104,4.0,1.947791500017047,,064,10,2025-03-28_15h00.14.656,Surprise recog test,2023.1.3,59.95304478071905,
104,0,104,0,,,,,,,,,,,,,,,,,,,,,,,,,,,,,,,,,,1845.4013288000133,1846.4272996000946,1842.2895563000347,1842.2895563000347,1842.2895563000347,1842.2895563000347,new_fruit_34.png,105,3.0,3.1136898999102414,,064,10,2025-03-28_15h00.14.656,Surprise recog test,2023.1.3,59.95304478071905,
105,0,105,0,,,,,,,,,,,,,,,,,,,,,,,,,,,,,,,,,,1848.1611550000962,1849.1780050001107,1846.4272996000946,1846.4272996000946,1846.4272996000946,1846.4272996000946,old_fruit_34.png,106,1.0,1.7341088999528438,,064,10,2025-03-28_15h00.14.656,Surprise recog test,2023.1.3,59.95304478071905,
106,0,106,0,,,,,,,,,,,,,,,,,,,,,,,,,,,,,,,,,,1852.6178526000585,1853.6458197000902,1849.1780050001107,1849.1780050001107,1849.1780050001107,1849.1780050001107,old_sceneOut_23.png,107,4.0,3.438907800009474,,064,10,2025-03-28_15h00.14.656,Surprise recog test,2023.1.3,59.95304478071905,
107,0,107,0,,,,,,,,,,,,,,,,,,,,,,,,,,,,,,,,,,1855.035824000137,,1853.6458197000902,1853.6458197000902,1853.6458197000902,1853.6458197000902,new_fruit_18.png,108,2.0,1.3917143000289798,,064,10,2025-03-28_15h00.14.656,Surprise recog test,2023.1.3,59.95304478071905,
108,0,108,0,,,,,,,,,,,,,,,,,,,,,,,,,,,,,,,,,,1857.7669617000502,1858.7722096999642,1856.0743076000363,1856.0743076000363,1856.0743076000363,1856.0743076000363,new_sceneIn_41.png,109,3.0,1.692328100092709,,064,10,2025-03-28_15h00.14.656,Surprise recog test,2023.1.3,59.95304478071905,
109,0,109,0,,,,,,,,,,,,,,,,,,,,,,,,,,,,,,,,,,1860.635582700139,1861.6559646001551,1858.7722096999642,1858.7722096999642,1858.7722096999642,1858.7722096999642,new_fruit_10.png,110,5.0,1.8567366998177022,,064,10,2025-03-28_15h00.14.656,Surprise recog test,2023.1.3,59.95304478071905,
110,0,110,0,,,,,,,,,,,,,,,,,,,,,,,,,,,,,,,,,,1864.3868007001001,1865.4086749001872,1861.6559646001551,1861.6559646001551,1861.6559646001551,1861.6559646001551,old_sceneOut_20.png,111,4.0,2.733257799874991,,064,10,2025-03-28_15h00.14.656,Surprise recog test,2023.1.3,59.95304478071905,
111,0,111,0,,,,,,,,,,,,,,,,,,,,,,,,,,,,,,,,,,1867.3971832001116,1868.4229993000627,1865.4086749001872,1865.4086749001872,1865.4086749001872,1865.4086749001872,new_sceneOut_9.png,112,1.0,1.9888643000740558,,064,10,2025-03-28_15h00.14.656,Surprise recog test,2023.1.3,59.95304478071905,
112,0,112,0,,,,,,,,,,,,,,,,,,,,,,,,,,,,,,,,,,1869.7273364001885,1870.7435622001067,1868.4229993000627,1868.4229993000627,1868.4229993000627,1868.4229993000627,old_fruit_24.png,113,1.0,1.305782200070098,,064,10,2025-03-28_15h00.14.656,Surprise recog test,2023.1.3,59.95304478071905,
113,0,113,0,,,,,,,,,,,,,,,,,,,,,,,,,,,,,,,,,,1872.673816200113,1873.6951019000262,1870.7435622001067,1870.7435622001067,1870.7435622001067,1870.7435622001067,new_sceneIn_4.png,114,3.0,1.9305465000215918,,064,10,2025-03-28_15h00.14.656,Surprise recog test,2023.1.3,59.95304478071905,
114,0,114,0,,,,,,,,,,,,,,,,,,,,,,,,,,,,,,,,,,1875.8120681999717,1876.835805100156,1873.6951019000262,1873.6951019000262,1873.6951019000262,1873.6951019000262,old_stationery_23.png,115,4.0,2.118961500003934,,064,10,2025-03-28_15h00.14.656,Surprise recog test,2023.1.3,59.95304478071905,
115,0,115,0,,,,,,,,,,,,,,,,,,,,,,,,,,,,,,,,,,1878.5727021000348,1879.603410599986,1876.835805100156,1876.835805100156,1876.835805100156,1876.835805100156,old_stationery_30.png,116,1.0,1.7383926999755204,,064,10,2025-03-28_15h00.14.656,Surprise recog test,2023.1.3,59.95304478071905,
116,0,116,0,,,,,,,,,,,,,,,,,,,,,,,,,,,,,,,,,,1881.6677898000926,1882.690245400183,1879.603410599986,1879.603410599986,1879.603410599986,1879.603410599986,new_sceneOut_46.png,117,3.0,2.0666522001847625,,064,10,2025-03-28_15h00.14.656,Surprise recog test,2023.1.3,59.95304478071905,
117,0,117,0,,,,,,,,,,,,,,,,,,,,,,,,,,,,,,,,,,1884.8738392000087,1885.8821425000206,1882.690245400183,1882.690245400183,1882.690245400183,1882.690245400183,old_stationery_44.png,118,1.0,2.1857757999096066,,064,10,2025-03-28_15h00.14.656,Surprise recog test,2023.1.3,59.95304478071905,
118,0,118,0,,,,,,,,,,,,,,,,,,,,,,,,,,,,,,,,,,1888.0611144001596,,1885.8821425000206,1885.8821425000206,1885.8821425000206,1885.8821425000206,new_stationery_13.png,119,2.0,2.174677799921483,,064,10,2025-03-28_15h00.14.656,Surprise recog test,2023.1.3,59.95304478071905,
119,0,119,0,,,,,,,,,,,,,,,,,,,,,,,,,,,,,,,,,,1891.4923470001668,1892.5199674000032,1889.0825426999945,1889.0825426999945,1889.0825426999945,1889.0825426999945,new_sceneOut_49.png,120,3.0,2.405866499990225,,064,10,2025-03-28_15h00.14.656,Surprise recog test,2023.1.3,59.95304478071905,
120,0,120,0,,,,,,,,,,,,,,,,,,,,,,,,,,,,,,,,,,1894.055684100138,1895.0729682999663,1892.5199674000032,1892.5199674000032,1892.5199674000032,1892.5199674000032,old_sceneIn_41.png,121,4.0,1.5402583999093622,,064,10,2025-03-28_15h00.14.656,Surprise recog test,2023.1.3,59.95304478071905,
121,0,121,0,,,,,,,,,,,,,,,,,,,,,,,,,,,,,,,,,,1897.1485727999825,1898.177144100191,1895.0729682999663,1895.0729682999663,1895.0729682999663,1895.0729682999663,new_sceneIn_36.png,122,4.0,2.0714938000310212,,064,10,2025-03-28_15h00.14.656,Surprise recog test,2023.1.3,59.95304478071905,
122,0,122,0,,,,,,,,,,,,,,,,,,,,,,,,,,,,,,,,,,1899.5263808001764,1900.558639400173,1898.177144100191,1898.177144100191,1898.177144100191,1898.177144100191,old_fruit_48.png,123,2.0,1.3533147999551147,,064,10,2025-03-28_15h00.14.656,Surprise recog test,2023.1.3,59.95304478071905,
123,0,123,0,,,,,,,,,,,,,,,,,,,,,,,,,,,,,,,,,,1902.2018997000996,1903.2229005000554,1900.558639400173,1900.558639400173,1900.558639400173,1900.558639400173,old_sceneOut_44.png,124,3.0,1.6460327999666333,,064,10,2025-03-28_15h00.14.656,Surprise recog test,2023.1.3,59.95304478071905,
124,0,124,0,,,,,,,,,,,,,,,,,,,,,,,,,,,,,,,,,,1905.4192761001177,1906.446574300062,1903.2229005000554,1903.2229005000554,1903.2229005000554,1903.2229005000554,old_stationery_16.png,125,2.0,2.1980456998571754,,064,10,2025-03-28_15h00.14.656,Surprise recog test,2023.1.3,59.95304478071905,
125,0,125,0,,,,,,,,,,,,,,,,,,,,,,,,,,,,,,,,,,1908.9348143001553,1909.9516877001151,1906.446574300062,1906.446574300062,1906.446574300062,1906.446574300062,old_sceneOut_3.png,126,4.0,2.4910508000757545,,064,10,2025-03-28_15h00.14.656,Surprise recog test,2023.1.3,59.95304478071905,
126,0,126,0,,,,,,,,,,,,,,,,,,,,,,,,,,,,,,,,,,1911.6622888001148,1912.6822290001437,1909.9516877001151,1909.9516877001151,1909.9516877001151,1909.9516877001151,old_fruit_39.png,127,1.0,1.7045336000155658,,064,10,2025-03-28_15h00.14.656,Surprise recog test,2023.1.3,59.95304478071905,
127,0,127,0,,,,,,,,,,,,,,,,,,,,,,,,,,,,,,,,,,1914.8833010001108,1915.9009918000083,1912.6822290001437,1912.6822290001437,1912.6822290001437,1912.6822290001437,new_sceneIn_28.png,128,2.0,2.200539099983871,,064,10,2025-03-28_15h00.14.656,Surprise recog test,2023.1.3,59.95304478071905,
128,0,128,0,,,,,,,,,,,,,,,,,,,,,,,,,,,,,,,,,,1917.0494943000376,1918.0672061999794,1915.9009918000083,1915.9009918000083,1915.9009918000083,1915.9009918000083,new_sceneOut_3.png,129,2.0,1.1495315998326987,,064,10,2025-03-28_15h00.14.656,Surprise recog test,2023.1.3,59.95304478071905,
129,0,129,0,,,,,,,,,,,,,,,,,,,,,,,,,,,,,,,,,,1919.7575111000333,1920.776160800131,1918.0672061999794,1918.0672061999794,1918.0672061999794,1918.0672061999794,old_sceneIn_2.png,130,4.0,1.684730099979788,,064,10,2025-03-28_15h00.14.656,Surprise recog test,2023.1.3,59.95304478071905,
130,0,130,0,,,,,,,,,,,,,,,,,,,,,,,,,,,,,,,,,,1922.471159600187,1923.4799780000467,1920.776160800131,1920.776160800131,1920.776160800131,1920.776160800131,new_sceneOut_18.png,131,4.0,1.6887265001423657,,064,10,2025-03-28_15h00.14.656,Surprise recog test,2023.1.3,59.95304478071905,
131,0,131,0,,,,,,,,,,,,,,,,,,,,,,,,,,,,,,,,,,1925.0326364000794,1926.0552209001034,1923.4799780000467,1923.4799780000467,1923.4799780000467,1923.4799780000467,old_fruit_44.png,132,3.0,1.5483100998681039,,064,10,2025-03-28_15h00.14.656,Surprise recog test,2023.1.3,59.95304478071905,
132,0,132,0,,,,,,,,,,,,,,,,,,,,,,,,,,,,,,,,,,1927.5456404001452,,1926.0552209001034,1926.0552209001034,1926.0552209001034,1926.0552209001034,new_fruit_31.png,133,2.0,1.4878930998966098,,064,10,2025-03-28_15h00.14.656,Surprise recog test,2023.1.3,59.95304478071905,
133,0,133,0,,,,,,,,,,,,,,,,,,,,,,,,,,,,,,,,,,1930.5472415001132,,1928.5656471000984,1928.5656471000984,1928.5656471000984,1928.5656471000984,new_fruit_33.png,134,3.0,1.9776007002219558,,064,10,2025-03-28_15h00.14.656,Surprise recog test,2023.1.3,59.95304478071905,
134,0,134,0,,,,,,,,,,,,,,,,,,,,,,,,,,,,,,,,,,1933.7806166000664,1934.7950675000902,1931.581615400035,1931.581615400035,1931.581615400035,1931.581615400035,old_stationery_29.png,135,1.0,2.1974584001582116,,064,10,2025-03-28_15h00.14.656,Surprise recog test,2023.1.3,59.95304478071905,
135,0,135,0,,,,,,,,,,,,,,,,,,,,,,,,,,,,,,,,,,1936.7009797999635,1937.7078199000098,1934.7950675000902,1934.7950675000902,1934.7950675000902,1934.7950675000902,new_stationery_12.png,136,2.0,1.9048588001169264,,064,10,2025-03-28_15h00.14.656,Surprise recog test,2023.1.3,59.95304478071905,
136,0,136,0,,,,,,,,,,,,,,,,,,,,,,,,,,,,,,,,,,1939.4731505999807,1940.4933438000735,1937.7078199000098,1937.7078199000098,1937.7078199000098,1937.7078199000098,old_fruit_6.png,137,1.0,1.761446600081399,,064,10,2025-03-28_15h00.14.656,Surprise recog test,2023.1.3,59.95304478071905,
137,0,137,0,,,,,,,,,,,,,,,,,,,,,,,,,,,,,,,,,,1942.3408091000747,,1940.4933438000735,1940.4933438000735,1940.4933438000735,1940.4933438000735,new_fruit_30.png,138,2.0,1.8412859998643398,,064,10,2025-03-28_15h00.14.656,Surprise recog test,2023.1.3,59.95304478071905,
138,0,138,0,,,,,,,,,,,,,,,,,,,,,,,,,,,,,,,,,,1944.8658594000153,1945.8989993000869,1943.3753383001313,1943.3753383001313,1943.3753383001313,1943.3753383001313,old_fruit_47.png,139,1.0,1.4927155000623316,,064,10,2025-03-28_15h00.14.656,Surprise recog test,2023.1.3,59.95304478071905,
139,0,139,0,,,,,,,,,,,,,,,,,,,,,,,,,,,,,,,,,,1947.3148034999613,1948.3337487999815,1945.8989993000869,1945.8989993000869,1945.8989993000869,1945.8989993000869,new_sceneIn_1.png,140,3.0,1.4180745999328792,,064,10,2025-03-28_15h00.14.656,Surprise recog test,2023.1.3,59.95304478071905,
140,0,140,0,,,,,,,,,,,,,,,,,,,,,,,,,,,,,,,,,,1949.6303652999923,,1948.3337487999815,1948.3337487999815,1948.3337487999815,1948.3337487999815,new_sceneIn_9.png,141,4.0,1.2897684001363814,,064,10,2025-03-28_15h00.14.656,Surprise recog test,2023.1.3,59.95304478071905,
141,0,141,0,,,,,,,,,,,,,,,,,,,,,,,,,,,,,,,,,,1952.7143689000513,1953.7327370999847,1950.650908100186,1950.650908100186,1950.650908100186,1950.650908100186,new_sceneOut_40.png,142,4.0,2.0568162000272423,,064,10,2025-03-28_15h00.14.656,Surprise recog test,2023.1.3,59.95304478071905,
142,0,142,0,,,,,,,,,,,,,,,,,,,,,,,,,,,,,,,,,,1955.8398029000964,1956.863636400085,1953.7327370999847,1953.7327370999847,1953.7327370999847,1953.7327370999847,old_sceneOut_8.png,143,2.0,2.1088908999226987,,064,10,2025-03-28_15h00.14.656,Surprise recog test,2023.1.3,59.95304478071905,
143,0,143,0,,,,,,,,,,,,,,,,,,,,,,,,,,,,,,,,,,1959.5853441001382,1960.593700000085,1956.863636400085,1956.863636400085,1956.863636400085,1956.863636400085,old_fruit_36.png,144,1.0,2.7166271000169218,,064,10,2025-03-28_15h00.14.656,Surprise recog test,2023.1.3,59.95304478071905,
144,0,144,0,,,,,,,,,,,,,,,,,,,,,,,,,,,,,,,,,,1962.5378758001607,1963.5484821000136,1960.593700000085,1960.593700000085,1960.593700000085,1960.593700000085,new_sceneOut_50.png,145,3.0,1.937667699996382,,064,10,2025-03-28_15h00.14.656,Surprise recog test,2023.1.3,59.95304478071905,
145,0,145,0,,,,,,,,,,,,,,,,,,,,,,,,,,,,,,,,,,1965.405526000075,1966.4262030001264,1963.5484821000136,1963.5484821000136,1963.5484821000136,1963.5484821000136,new_sceneOut_10.png,146,3.0,1.8547428001184016,,064,10,2025-03-28_15h00.14.656,Surprise recog test,2023.1.3,59.95304478071905,
146,0,146,0,,,,,,,,,,,,,,,,,,,,,,,,,,,,,,,,,,1968.2185223000124,1969.2462574001402,1966.4262030001264,1966.4262030001264,1966.4262030001264,1966.4262030001264,new_stationery_45.png,147,2.0,1.7944289001170546,,064,10,2025-03-28_15h00.14.656,Surprise recog test,2023.1.3,59.95304478071905,
147,0,147,0,,,,,,,,,,,,,,,,,,,,,,,,,,,,,,,,,,1970.7280133999884,1971.7365178000182,1969.2462574001402,1969.2462574001402,1969.2462574001402,1969.2462574001402,old_stationery_4.png,148,2.0,1.4767642000224441,,064,10,2025-03-28_15h00.14.656,Surprise recog test,2023.1.3,59.95304478071905,
148,0,148,0,,,,,,,,,,,,,,,,,,,,,,,,,,,,,,,,,,1973.1385858000722,1974.168914400041,1971.7365178000182,1971.7365178000182,1971.7365178000182,1971.7365178000182,old_stationery_27.png,149,3.0,1.3969449000433087,,064,10,2025-03-28_15h00.14.656,Surprise recog test,2023.1.3,59.95304478071905,
149,0,149,0,,,,,,,,,,,,,,,,,,,,,,,,,,,,,,,,,,1976.7902410000097,1977.8219080001581,1974.168914400041,1974.168914400041,1974.168914400041,1974.168914400041,new_fruit_3.png,150,2.0,2.6242096999194473,,064,10,2025-03-28_15h00.14.656,Surprise recog test,2023.1.3,59.95304478071905,
150,0,150,0,,,,,,,,,,,,,,,,,,,,,,,,,,,,,,,,,,1979.3926242999732,1980.409995800117,1977.8219080001581,1977.8219080001581,1977.8219080001581,1977.8219080001581,new_fruit_42.png,151,4.0,1.573637500172481,,064,10,2025-03-28_15h00.14.656,Surprise recog test,2023.1.3,59.95304478071905,
151,0,151,0,,,,,,,,,,,,,,,,,,,,,,,,,,,,,,,,,,1982.1990185000468,1983.2227072999813,1980.409995800117,1980.409995800117,1980.409995800117,1980.409995800117,old_sceneOut_21.png,152,4.0,1.7810061001218855,,064,10,2025-03-28_15h00.14.656,Surprise recog test,2023.1.3,59.95304478071905,
152,0,152,0,,,,,,,,,,,,,,,,,,,,,,,,,,,,,,,,,,1984.8804024001583,1985.9127180001233,1983.2227072999813,1983.2227072999813,1983.2227072999813,1983.2227072999813,new_fruit_21.png,153,3.0,1.659206499811262,,064,10,2025-03-28_15h00.14.656,Surprise recog test,2023.1.3,59.95304478071905,
153,0,153,0,,,,,,,,,,,,,,,,,,,,,,,,,,,,,,,,,,1987.8598462000955,1988.8753738000523,1985.9127180001233,1985.9127180001233,1985.9127180001233,1985.9127180001233,old_stationery_19.png,154,4.0,1.9485518001019955,,064,10,2025-03-28_15h00.14.656,Surprise recog test,2023.1.3,59.95304478071905,
154,0,154,0,,,,,,,,,,,,,,,,,,,,,,,,,,,,,,,,,,1990.288274400169,1991.309469500091,1988.8753738000523,1988.8753738000523,1988.8753738000523,1988.8753738000523,new_sceneIn_39.png,155,4.0,1.40717349993065,,064,10,2025-03-28_15h00.14.656,Surprise recog test,2023.1.3,59.95304478071905,
155,0,155,0,,,,,,,,,,,,,,,,,,,,,,,,,,,,,,,,,,1992.7250898999628,1993.7494715000503,1991.309469500091,1991.309469500091,1991.309469500091,1991.309469500091,new_sceneOut_45.png,156,3.0,1.4116218001581728,,064,10,2025-03-28_15h00.14.656,Surprise recog test,2023.1.3,59.95304478071905,
156,0,156,0,,,,,,,,,,,,,,,,,,,,,,,,,,,,,,,,,,1995.991644000169,1997.0154371000826,1993.7494715000503,1993.7494715000503,1993.7494715000503,1993.7494715000503,new_fruit_47.png,157,5.0,2.2424207001458853,,064,10,2025-03-28_15h00.14.656,Surprise recog test,2023.1.3,59.95304478071905,
157,0,157,0,,,,,,,,,,,,,,,,,,,,,,,,,,,,,,,,,,1998.6512476000935,1999.669765100116,1997.0154371000826,1997.0154371000826,1997.0154371000826,1997.0154371000826,old_fruit_5.png,158,3.0,1.6394253000617027,,064,10,2025-03-28_15h00.14.656,Surprise recog test,2023.1.3,59.95304478071905,
158,0,158,0,,,,,,,,,,,,,,,,,,,,,,,,,,,,,,,,,,2001.2045780001208,2002.223164099967,1999.669765100116,1999.669765100116,1999.669765100116,1999.669765100116,old_sceneOut_33.png,159,4.0,1.5369563999120146,,064,10,2025-03-28_15h00.14.656,Surprise recog test,2023.1.3,59.95304478071905,
159,0,159,0,,,,,,,,,,,,,,,,,,,,,,,,,,,,,,,,,,2003.5997829001863,2004.613497799961,2002.223164099967,2002.223164099967,2002.223164099967,2002.223164099967,old_sceneIn_18.png,160,4.0,1.3789487001486123,,064,10,2025-03-28_15h00.14.656,Surprise recog test,2023.1.3,59.95304478071905,
160,0,160,0,,,,,,,,,,,,,,,,,,,,,,,,,,,,,,,,,,2006.2382920000236,2007.2587733000983,2004.613497799961,2004.613497799961,2004.613497799961,2004.613497799961,new_sceneIn_37.png,161,1.0,1.6194087998010218,,064,10,2025-03-28_15h00.14.656,Surprise recog test,2023.1.3,59.95304478071905,
161,0,161,0,,,,,,,,,,,,,,,,,,,,,,,,,,,,,,,,,,2008.926262400113,2009.945716400165,2007.2587733000983,2007.2587733000983,2007.2587733000983,2007.2587733000983,new_stationery_9.png,162,2.0,1.6690336999017745,,064,10,2025-03-28_15h00.14.656,Surprise recog test,2023.1.3,59.95304478071905,
162,0,162,0,,,,,,,,,,,,,,,,,,,,,,,,,,,,,,,,,,2012.14653560007,2013.1620424999855,2009.945716400165,2009.945716400165,2009.945716400165,2009.945716400165,old_stationery_20.png,163,4.0,2.202677399851382,,064,10,2025-03-28_15h00.14.656,Surprise recog test,2023.1.3,59.95304478071905,
163,0,163,0,,,,,,,,,,,,,,,,,,,,,,,,,,,,,,,,,,2014.7974511999637,2015.8167469999753,2013.1620424999855,2013.1620424999855,2013.1620424999855,2013.1620424999855,old_stationery_45.png,164,5.0,1.6367162999231368,,064,10,2025-03-28_15h00.14.656,Surprise recog test,2023.1.3,59.95304478071905,
164,0,164,0,,,,,,,,,,,,,,,,,,,,,,,,,,,,,,,,,,2017.636733100051,,2015.8167469999753,2015.8167469999753,2015.8167469999753,2015.8167469999753,old_sceneOut_31.png,165,3.0,1.8215546000283211,,064,10,2025-03-28_15h00.14.656,Surprise recog test,2023.1.3,59.95304478071905,
165,0,165,0,,,,,,,,,,,,,,,,,,,,,,,,,,,,,,,,,,2020.3633449999616,2021.3875704000238,2018.6584990001284,2018.6584990001284,2018.6584990001284,2018.6584990001284,old_sceneOut_11.png,166,4.0,1.7018438999075443,,064,10,2025-03-28_15h00.14.656,Surprise recog test,2023.1.3,59.95304478071905,
166,0,166,0,,,,,,,,,,,,,,,,,,,,,,,,,,,,,,,,,,2023.41135030007,2024.437942800112,2021.3875704000238,2021.3875704000238,2021.3875704000238,2021.3875704000238,old_stationery_13.png,167,4.0,2.02600309997797,,064,10,2025-03-28_15h00.14.656,Surprise recog test,2023.1.3,59.95304478071905,
167,0,167,0,,,,,,,,,,,,,,,,,,,,,,,,,,,,,,,,,,2025.9597767000087,,2024.437942800112,2024.437942800112,2024.437942800112,2024.437942800112,new_sceneOut_6.png,168,3.0,1.5226899001281708,,064,10,2025-03-28_15h00.14.656,Surprise recog test,2023.1.3,59.95304478071905,
168,0,168,0,,,,,,,,,,,,,,,,,,,,,,,,,,,,,,,,,,2028.3708576001227,2029.3890414000489,2026.9927922000643,2026.9927922000643,2026.9927922000643,2026.9927922000643,old_stationery_17.png,169,4.0,1.38004200020805,,064,10,2025-03-28_15h00.14.656,Surprise recog test,2023.1.3,59.95304478071905,
169,0,169,0,,,,,,,,,,,,,,,,,,,,,,,,,,,,,,,,,,2030.9209457000252,2031.9363308001775,2029.3890414000489,2029.3890414000489,2029.3890414000489,2029.3890414000489,new_stationery_10.png,170,5.0,1.5322254002094269,,064,10,2025-03-28_15h00.14.656,Surprise recog test,2023.1.3,59.95304478071905,
170,0,170,0,,,,,,,,,,,,,,,,,,,,,,,,,,,,,,,,,,2033.3591676000506,2034.3714422001503,2031.9363308001775,2031.9363308001775,2031.9363308001775,2031.9363308001775,old_sceneIn_10.png,171,5.0,1.4180151000618935,,064,10,2025-03-28_15h00.14.656,Surprise recog test,2023.1.3,59.95304478071905,
171,0,171,0,,,,,,,,,,,,,,,,,,,,,,,,,,,,,,,,,,2036.1342760000844,2037.1531678000465,2034.3714422001503,2034.3714422001503,2034.3714422001503,2034.3714422001503,new_sceneOut_39.png,172,5.0,1.757844900013879,,064,10,2025-03-28_15h00.14.656,Surprise recog test,2023.1.3,59.95304478071905,
172,0,172,0,,,,,,,,,,,,,,,,,,,,,,,,,,,,,,,,,,2038.666723900009,2039.6835010000505,2037.1531678000465,2037.1531678000465,2037.1531678000465,2037.1531678000465,new_sceneOut_20.png,173,5.0,1.5158140000421554,,064,10,2025-03-28_15h00.14.656,Surprise recog test,2023.1.3,59.95304478071905,
173,0,173,0,,,,,,,,,,,,,,,,,,,,,,,,,,,,,,,,,,2040.746150100138,2041.7670301001053,2039.6835010000505,2039.6835010000505,2039.6835010000505,2039.6835010000505,new_sceneIn_31.png,174,5.0,1.0650435001589358,,064,10,2025-03-28_15h00.14.656,Surprise recog test,2023.1.3,59.95304478071905,
174,0,174,0,,,,,,,,,,,,,,,,,,,,,,,,,,,,,,,,,,2043.3216494000517,2044.3396244000178,2041.7670301001053,2041.7670301001053,2041.7670301001053,2041.7670301001053,old_stationery_40.png,175,1.0,1.5546947999391705,,064,10,2025-03-28_15h00.14.656,Surprise recog test,2023.1.3,59.95304478071905,
175,0,175,0,,,,,,,,,,,,,,,,,,,,,,,,,,,,,,,,,,2046.9425001000054,2047.954305600142,2044.3396244000178,2044.3396244000178,2044.3396244000178,2044.3396244000178,old_fruit_46.png,176,2.0,2.606029599905014,,064,10,2025-03-28_15h00.14.656,Surprise recog test,2023.1.3,59.95304478071905,
176,0,176,0,,,,,,,,,,,,,,,,,,,,,,,,,,,,,,,,,,2049.6473752001766,,2047.954305600142,2047.954305600142,2047.954305600142,2047.954305600142,new_sceneIn_19.png,177,2.0,1.6937333999667317,,064,10,2025-03-28_15h00.14.656,Surprise recog test,2023.1.3,59.95304478071905,
177,0,177,0,,,,,,,,,,,,,,,,,,,,,,,,,,,,,,,,,,2052.9767181000207,2053.998985200189,2050.679401300149,2050.679401300149,2050.679401300149,2050.679401300149,new_fruit_14.png,178,4.0,2.2988764999900013,,064,10,2025-03-28_15h00.14.656,Surprise recog test,2023.1.3,59.95304478071905,
178,0,178,0,,,,,,,,,,,,,,,,,,,,,,,,,,,,,,,,,,2055.465055500157,2056.4701543999836,2053.998985200189,2053.998985200189,2053.998985200189,2053.998985200189,new_sceneIn_6.png,179,5.0,1.4626611000858247,,064,10,2025-03-28_15h00.14.656,Surprise recog test,2023.1.3,59.95304478071905,
179,0,179,0,,,,,,,,,,,,,,,,,,,,,,,,,,,,,,,,,,2057.9338412000798,2058.93804080016,2056.4701543999836,2056.4701543999836,2056.4701543999836,2056.4701543999836,new_fruit_17.png,180,1.0,1.4538926999084651,,064,10,2025-03-28_15h00.14.656,Surprise recog test,2023.1.3,59.95304478071905,
180,0,180,0,,,,,,,,,,,,,,,,,,,,,,,,,,,,,,,,,,2060.6860648000147,2061.6908574001864,2058.93804080016,2058.93804080016,2058.93804080016,2058.93804080016,new_stationery_47.png,181,3.0,1.7371631001587957,,064,10,2025-03-28_15h00.14.656,Surprise recog test,2023.1.3,59.95304478071905,
181,0,181,0,,,,,,,,,,,,,,,,,,,,,,,,,,,,,,,,,,2063.2048600001726,2064.2093603000976,2061.6908574001864,2061.6908574001864,2061.6908574001864,2061.6908574001864,old_sceneOut_22.png,182,4.0,1.5056723000016063,,064,10,2025-03-28_15h00.14.656,Surprise recog test,2023.1.3,59.95304478071905,
182,0,182,0,,,,,,,,,,,,,,,,,,,,,,,,,,,,,,,,,,2065.373396900017,2066.377541200025,2064.2093603000976,2064.2093603000976,2064.2093603000976,2064.2093603000976,new_sceneOut_29.png,183,4.0,1.1537896001245826,,064,10,2025-03-28_15h00.14.656,Surprise recog test,2023.1.3,59.95304478071905,
183,0,183,0,,,,,,,,,,,,,,,,,,,,,,,,,,,,,,,,,,2068.3925107000396,2069.398118400015,2066.377541200025,2066.377541200025,2066.377541200025,2066.377541200025,old_fruit_41.png,184,3.0,2.004190299892798,,064,10,2025-03-28_15h00.14.656,Surprise recog test,2023.1.3,59.95304478071905,
184,0,184,0,,,,,,,,,,,,,,,,,,,,,,,,,,,,,,,,,,2071.5451477000024,2072.54972050013,2069.398118400015,2069.398118400015,2069.398118400015,2069.398118400015,old_fruit_33.png,185,2.0,2.1378059000708163,,064,10,2025-03-28_15h00.14.656,Surprise recog test,2023.1.3,59.95304478071905,
185,0,185,0,,,,,,,,,,,,,,,,,,,,,,,,,,,,,,,,,,2074.864561600145,2075.8710258000065,2072.54972050013,2072.54972050013,2072.54972050013,2072.54972050013,old_sceneIn_47.png,186,4.0,2.30445949989371,,064,10,2025-03-28_15h00.14.656,Surprise recog test,2023.1.3,59.95304478071905,
186,0,186,0,,,,,,,,,,,,,,,,,,,,,,,,,,,,,,,,,,2077.6835759000387,2078.688364200061,2075.8710258000065,2075.8710258000065,2075.8710258000065,2075.8710258000065,old_sceneIn_11.png,187,4.0,1.8066052000503987,,064,10,2025-03-28_15h00.14.656,Surprise recog test,2023.1.3,59.95304478071905,
187,0,187,0,,,,,,,,,,,,,,,,,,,,,,,,,,,,,,,,,,2081.0530690001324,2082.057665399974,2078.688364200061,2078.688364200061,2078.688364200061,2078.688364200061,new_sceneOut_27.png,188,4.0,2.354255799902603,,064,10,2025-03-28_15h00.14.656,Surprise recog test,2023.1.3,59.95304478071905,
188,0,188,0,,,,,,,,,,,,,,,,,,,,,,,,,,,,,,,,,,2083.8501777001657,2084.860082600033,2082.057665399974,2082.057665399974,2082.057665399974,2082.057665399974,new_fruit_36.png,189,2.0,1.7892195000313222,,064,10,2025-03-28_15h00.14.656,Surprise recog test,2023.1.3,59.95304478071905,
189,0,189,0,,,,,,,,,,,,,,,,,,,,,,,,,,,,,,,,,,2086.8394991999958,2087.86160579999,2084.860082600033,2084.860082600033,2084.860082600033,2084.860082600033,new_fruit_38.png,190,4.0,1.9754985999315977,,064,10,2025-03-28_15h00.14.656,Surprise recog test,2023.1.3,59.95304478071905,
190,0,190,0,,,,,,,,,,,,,,,,,,,,,,,,,,,,,,,,,,2090.1331909999717,2091.153690100182,2087.86160579999,2087.86160579999,2087.86160579999,2087.86160579999,old_sceneIn_15.png,191,4.0,2.274039800046012,,064,10,2025-03-28_15h00.14.656,Surprise recog test,2023.1.3,59.95304478071905,
191,0,191,0,,,,,,,,,,,,,,,,,,,,,,,,,,,,,,,,,,2092.7647897000425,2093.783137400169,2091.153690100182,2091.153690100182,2091.153690100182,2091.153690100182,old_stationery_41.png,192,2.0,1.6067817001603544,,064,10,2025-03-28_15h00.14.656,Surprise recog test,2023.1.3,59.95304478071905,
192,0,192,0,,,,,,,,,,,,,,,,,,,,,,,,,,,,,,,,,,2095.8951447000727,2096.9243309001904,2093.783137400169,2093.783137400169,2093.783137400169,2093.783137400169,old_sceneOut_48.png,193,4.0,2.1130794999189675,,064,10,2025-03-28_15h00.14.656,Surprise recog test,2023.1.3,59.95304478071905,
193,0,193,0,,,,,,,,,,,,,,,,,,,,,,,,,,,,,,,,,,2099.2032290999778,2100.222846900113,2096.9243309001904,2096.9243309001904,2096.9243309001904,2096.9243309001904,new_fruit_13.png,194,1.0,2.2803863999433815,,064,10,2025-03-28_15h00.14.656,Surprise recog test,2023.1.3,59.95304478071905,
194,0,194,0,,,,,,,,,,,,,,,,,,,,,,,,,,,,,,,,,,2101.8074893001467,,2100.222846900113,2100.222846900113,2100.222846900113,2100.222846900113,new_sceneOut_43.png,195,3.0,1.587200399953872,,064,10,2025-03-28_15h00.14.656,Surprise recog test,2023.1.3,59.95304478071905,
195,0,195,0,,,,,,,,,,,,,,,,,,,,,,,,,,,,,,,,,,2104.6916932000313,,2102.8287217000034,2102.8287217000034,2102.8287217000034,2102.8287217000034,old_sceneOut_40.png,196,3.0,1.8596210998948663,,064,10,2025-03-28_15h00.14.656,Surprise recog test,2023.1.3,59.95304478071905,
196,0,196,0,,,,,,,,,,,,,,,,,,,,,,,,,,,,,,,,,,2107.339355100179,2108.3614638000727,2105.7289001001045,2105.7289001001045,2105.7289001001045,2105.7289001001045,old_stationery_43.png,197,4.0,1.6124996999278665,,064,10,2025-03-28_15h00.14.656,Surprise recog test,2023.1.3,59.95304478071905,
197,0,197,0,,,,,,,,,,,,,,,,,,,,,,,,,,,,,,,,,,2110.661280100001,2111.676225400064,2108.3614638000727,2108.3614638000727,2108.3614638000727,2108.3614638000727,new_sceneOut_1.png,198,3.0,2.30182270007208,,064,10,2025-03-28_15h00.14.656,Surprise recog test,2023.1.3,59.95304478071905,
198,0,198,0,,,,,,,,,,,,,,,,,,,,,,,,,,,,,,,,,,2113.4504348000046,,2111.676225400064,2111.676225400064,2111.676225400064,2111.676225400064,old_fruit_29.png,199,1.0,1.7757637999020517,,064,10,2025-03-28_15h00.14.656,Surprise recog test,2023.1.3,59.95304478071905,
199,0,199,0,,,,,,,,,,,,,,,,,,,,,,,,,,,,,,,,,,2116.1834170999937,2117.199406000087,2114.467612200184,2114.467612200184,2114.467612200184,2114.467612200184,old_sceneOut_5.png,200,4.0,1.7120266000274569,,064,10,2025-03-28_15h00.14.656,Surprise recog test,2023.1.3,59.95304478071905,
200,0,200,0,,,,,,,,,,,,,,,,,,,,,,,,,,,,,,,,,,2118.9171639000997,2119.937982800184,2117.199406000087,2117.199406000087,2117.199406000087,2117.199406000087,new_sceneOut_25.png,201,2.0,1.7173855998553336,,064,10,2025-03-28_15h00.14.656,Surprise recog test,2023.1.3,59.95304478071905,
201,0,201,0,,,,,,,,,,,,,,,,,,,,,,,,,,,,,,,,,,2122.02543340018,2123.055173699977,2119.937982800184,2119.937982800184,2119.937982800184,2119.937982800184,old_stationery_34.png,202,2.0,2.0887873999308795,,064,10,2025-03-28_15h00.14.656,Surprise recog test,2023.1.3,59.95304478071905,
202,0,202,0,,,,,,,,,,,,,,,,,,,,,,,,,,,,,,,,,,2124.4237409001216,2125.4421402001753,2123.055173699977,2123.055173699977,2123.055173699977,2123.055173699977,old_sceneOut_15.png,203,4.0,1.3699922999367118,,064,10,2025-03-28_15h00.14.656,Surprise recog test,2023.1.3,59.95304478071905,
203,0,203,0,,,,,,,,,,,,,,,,,,,,,,,,,,,,,,,,,,2127.0615556000266,,2125.4421402001753,2125.4421402001753,2125.4421402001753,2125.4421402001753,new_stationery_15.png,204,1.0,1.6212576001416892,,064,10,2025-03-28_15h00.14.656,Surprise recog test,2023.1.3,59.95304478071905,
204,0,204,0,,,,,,,,,,,,,,,,,,,,,,,,,,,,,,,,,,2129.624919099966,2130.6467230001,2128.102503400063,2128.102503400063,2128.102503400063,2128.102503400063,old_sceneOut_32.png,205,3.0,1.524994800100103,,064,10,2025-03-28_15h00.14.656,Surprise recog test,2023.1.3,59.95304478071905,
205,0,205,0,,,,,,,,,,,,,,,,,,,,,,,,,,,,,,,,,,2132.4767875000834,2133.5005365000106,2130.6467230001,2130.6467230001,2130.6467230001,2130.6467230001,old_sceneOut_46.png,206,3.0,1.832015700172633,,064,10,2025-03-28_15h00.14.656,Surprise recog test,2023.1.3,59.95304478071905,
206,0,206,0,,,,,,,,,,,,,,,,,,,,,,,,,,,,,,,,,,2135.1530945000704,2136.186832100153,2133.5005365000106,2133.5005365000106,2133.5005365000106,2133.5005365000106,old_stationery_49.png,207,1.0,1.6541432000230998,,064,10,2025-03-28_15h00.14.656,Surprise recog test,2023.1.3,59.95304478071905,
207,0,207,0,,,,,,,,,,,,,,,,,,,,,,,,,,,,,,,,,,2138.342498800019,2139.367728400044,2136.186832100153,2136.186832100153,2136.186832100153,2136.186832100153,new_stationery_29.png,208,4.0,2.1570753999985754,,064,10,2025-03-28_15h00.14.656,Surprise recog test,2023.1.3,59.95304478071905,
208,0,208,0,,,,,,,,,,,,,,,,,,,,,,,,,,,,,,,,,,2141.002509500133,2142.0223889001645,2139.367728400044,2139.367728400044,2139.367728400044,2139.367728400044,new_sceneIn_50.png,209,2.0,1.636544199893251,,064,10,2025-03-28_15h00.14.656,Surprise recog test,2023.1.3,59.95304478071905,
209,0,209,0,,,,,,,,,,,,,,,,,,,,,,,,,,,,,,,,,,2143.208060800098,,2142.0223889001645,2142.0223889001645,2142.0223889001645,2142.0223889001645,old_sceneIn_39.png,210,2.0,1.187653899891302,,064,10,2025-03-28_15h00.14.656,Surprise recog test,2023.1.3,59.95304478071905,
210,0,210,0,,,,,,,,,,,,,,,,,,,,,,,,,,,,,,,,,,2145.7068877001293,2146.7288222000934,2144.2415253999643,2144.2415253999643,2144.2415253999643,2144.2415253999643,new_sceneIn_14.png,211,4.0,1.4634195000398904,,064,10,2025-03-28_15h00.14.656,Surprise recog test,2023.1.3,59.95304478071905,
211,0,211,0,,,,,,,,,,,,,,,,,,,,,,,,,,,,,,,,,,2148.3575397999957,2149.375114100054,2146.7288222000934,2146.7288222000934,2146.7288222000934,2146.7288222000934,old_stationery_37.png,212,4.0,1.6302743998821825,,064,10,2025-03-28_15h00.14.656,Surprise recog test,2023.1.3,59.95304478071905,
212,0,212,0,,,,,,,,,,,,,,,,,,,,,,,,,,,,,,,,,,2150.7782564000227,2151.798134600045,2149.375114100054,2149.375114100054,2149.375114100054,2149.375114100054,new_sceneOut_16.png,213,3.0,1.4033681000582874,,064,10,2025-03-28_15h00.14.656,Surprise recog test,2023.1.3,59.95304478071905,
213,0,213,0,,,,,,,,,,,,,,,,,,,,,,,,,,,,,,,,,,2153.3157832999714,,2151.798134600045,2151.798134600045,2151.798134600045,2151.798134600045,old_sceneIn_42.png,214,3.0,1.5190500000026077,,064,10,2025-03-28_15h00.14.656,Surprise recog test,2023.1.3,59.95304478071905,
214,0,214,0,,,,,,,,,,,,,,,,,,,,,,,,,,,,,,,,,,2156.717309900094,2157.732348000165,2154.337480199989,2154.337480199989,2154.337480199989,2154.337480199989,new_stationery_14.png,215,3.0,2.375714300200343,,064,10,2025-03-28_15h00.14.656,Surprise recog test,2023.1.3,59.95304478071905,
215,0,215,0,,,,,,,,,,,,,,,,,,,,,,,,,,,,,,,,,,2158.968298100168,2159.987134500174,2157.732348000165,2157.732348000165,2157.732348000165,2157.732348000165,old_sceneOut_12.png,216,4.0,1.2351042998488992,,064,10,2025-03-28_15h00.14.656,Surprise recog test,2023.1.3,59.95304478071905,
216,0,216,0,,,,,,,,,,,,,,,,,,,,,,,,,,,,,,,,,,2161.504141600104,2162.510997500038,2159.987134500174,2159.987134500174,2159.987134500174,2159.987134500174,new_stationery_38.png,217,2.0,1.5133632998913527,,064,10,2025-03-28_15h00.14.656,Surprise recog test,2023.1.3,59.95304478071905,
217,0,217,0,,,,,,,,,,,,,,,,,,,,,,,,,,,,,,,,,,2164.435428700177,2165.4470879000146,2162.510997500038,2162.510997500038,2162.510997500038,2162.510997500038,old_stationery_7.png,218,4.0,1.9197277000639588,,064,10,2025-03-28_15h00.14.656,Surprise recog test,2023.1.3,59.95304478071905,
218,0,218,0,,,,,,,,,,,,,,,,,,,,,,,,,,,,,,,,,,2167.093066100031,2168.1104393000714,2165.4470879000146,2165.4470879000146,2165.4470879000146,2165.4470879000146,old_sceneOut_16.png,219,4.0,1.6417465000413358,,064,10,2025-03-28_15h00.14.656,Surprise recog test,2023.1.3,59.95304478071905,
219,0,219,0,,,,,,,,,,,,,,,,,,,,,,,,,,,,,,,,,,2170.034242999973,2171.0519958001096,2168.1104393000714,2168.1104393000714,2168.1104393000714,2168.1104393000714,new_sceneIn_20.png,220,3.0,1.9258377000223845,,064,10,2025-03-28_15h00.14.656,Surprise recog test,2023.1.3,59.95304478071905,
220,0,220,0,,,,,,,,,,,,,,,,,,,,,,,,,,,,,,,,,,2173.6003241001163,,2171.0519958001096,2171.0519958001096,2171.0519958001096,2171.0519958001096,old_sceneIn_13.png,221,1.0,2.544377699960023,,064,10,2025-03-28_15h00.14.656,Surprise recog test,2023.1.3,59.95304478071905,
221,0,221,0,,,,,,,,,,,,,,,,,,,,,,,,,,,,,,,,,,2175.9348950001877,,2174.6277328999713,2174.6277328999713,2174.6277328999713,2174.6277328999713,old_fruit_13.png,222,1.0,1.3067193999886513,,064,10,2025-03-28_15h00.14.656,Surprise recog test,2023.1.3,59.95304478071905,
222,0,222,0,,,,,,,,,,,,,,,,,,,,,,,,,,,,,,,,,,2179.017915399978,2180.0376085999887,2176.9676016999874,2176.9676016999874,2176.9676016999874,2176.9676016999874,new_sceneOut_37.png,223,4.0,2.0453238000627607,,064,10,2025-03-28_15h00.14.656,Surprise recog test,2023.1.3,59.95304478071905,
223,0,223,0,,,,,,,,,,,,,,,,,,,,,,,,,,,,,,,,,,2181.6949634000193,2182.7240121001378,2180.0376085999887,2180.0376085999887,2180.0376085999887,2180.0376085999887,new_sceneIn_33.png,224,3.0,1.6596681999508291,,064,10,2025-03-28_15h00.14.656,Surprise recog test,2023.1.3,59.95304478071905,
224,0,224,0,,,,,,,,,,,,,,,,,,,,,,,,,,,,,,,,,,2184.358698999975,,2182.7240121001378,2182.7240121001378,2182.7240121001378,2182.7240121001378,new_fruit_32.png,225,2.0,1.6375693001318723,,064,10,2025-03-28_15h00.14.656,Surprise recog test,2023.1.3,59.95304478071905,
225,0,225,0,,,,,,,,,,,,,,,,,,,,,,,,,,,,,,,,,,2187.5933887001593,2188.605773500167,2185.393106300151,2185.393106300151,2185.393106300151,2185.393106300151,old_sceneIn_37.png,226,4.0,2.202391800004989,,064,10,2025-03-28_15h00.14.656,Surprise recog test,2023.1.3,59.95304478071905,
226,0,226,0,,,,,,,,,,,,,,,,,,,,,,,,,,,,,,,,,,2190.2854343999643,2191.3137960000895,2188.605773500167,2188.605773500167,2188.605773500167,2188.605773500167,new_sceneIn_30.png,227,4.0,1.6812955001369119,,064,10,2025-03-28_15h00.14.656,Surprise recog test,2023.1.3,59.95304478071905,
227,0,227,0,,,,,,,,,,,,,,,,,,,,,,,,,,,,,,,,,,2192.400239800103,,2191.3137960000895,2191.3137960000895,2191.3137960000895,2191.3137960000895,old_sceneIn_27.png,228,4.0,1.0882046001497656,,064,10,2025-03-28_15h00.14.656,Surprise recog test,2023.1.3,59.95304478071905,
228,0,228,0,,,,,,,,,,,,,,,,,,,,,,,,,,,,,,,,,,2194.9514676001854,,2193.426312700147,2193.426312700147,2193.426312700147,2193.426312700147,new_stationery_32.png,229,3.0,1.5214404000435024,,064,10,2025-03-28_15h00.14.656,Surprise recog test,2023.1.3,59.95304478071905,
229,0,229,0,,,,,,,,,,,,,,,,,,,,,,,,,,,,,,,,,,2197.3523933000397,,2195.9781540001277,2195.9781540001277,2195.9781540001277,2195.9781540001277,old_sceneOut_41.png,230,4.0,1.3724926998838782,,064,10,2025-03-28_15h00.14.656,Surprise recog test,2023.1.3,59.95304478071905,
230,0,230,0,,,,,,,,,,,,,,,,,,,,,,,,,,,,,,,,,,2200.2863338000607,2201.3042739001103,2198.3941997000948,2198.3941997000948,2198.3941997000948,2198.3941997000948,new_fruit_2.png,231,1.0,1.8972449998836964,,064,10,2025-03-28_15h00.14.656,Surprise recog test,2023.1.3,59.95304478071905,
231,0,231,0,,,,,,,,,,,,,,,,,,,,,,,,,,,,,,,,,,2202.8490989001,2203.8737963000312,2201.3042739001103,2201.3042739001103,2201.3042739001103,2201.3042739001103,old_fruit_38.png,232,2.0,1.5470904998946935,,064,10,2025-03-28_15h00.14.656,Surprise recog test,2023.1.3,59.95304478071905,
232,0,232,0,,,,,,,,,,,,,,,,,,,,,,,,,,,,,,,,,,2205.734406300122,2206.7586173000745,2203.8737963000312,2203.8737963000312,2203.8737963000312,2203.8737963000312,new_sceneOut_47.png,233,3.0,1.8589359000325203,,064,10,2025-03-28_15h00.14.656,Surprise recog test,2023.1.3,59.95304478071905,
233,0,233,0,,,,,,,,,,,,,,,,,,,,,,,,,,,,,,,,,,2208.468426699983,2209.486258200137,2206.7586173000745,2206.7586173000745,2206.7586173000745,2206.7586173000745,old_sceneIn_4.png,234,4.0,1.7085925999563187,,064,10,2025-03-28_15h00.14.656,Surprise recog test,2023.1.3,59.95304478071905,
234,0,234,0,,,,,,,,,,,,,,,,,,,,,,,,,,,,,,,,,,2212.503937000176,2213.5286999000236,2209.486258200137,2209.486258200137,2209.486258200137,2209.486258200137,old_stationery_2.png,235,4.0,3.0151674998924136,,064,10,2025-03-28_15h00.14.656,Surprise recog test,2023.1.3,59.95304478071905,
235,0,235,0,,,,,,,,,,,,,,,,,,,,,,,,,,,,,,,,,,2214.7297784001566,2215.753332799999,2213.5286999000236,2213.5286999000236,2213.5286999000236,2213.5286999000236,new_fruit_11.png,236,2.0,1.2025993999559432,,064,10,2025-03-28_15h00.14.656,Surprise recog test,2023.1.3,59.95304478071905,
236,0,236,0,,,,,,,,,,,,,,,,,,,,,,,,,,,,,,,,,,2217.0093791000545,2218.0248602000065,2215.753332799999,2215.753332799999,2215.753332799999,2215.753332799999,old_fruit_3.png,237,1.0,1.2567608000244945,,064,10,2025-03-28_15h00.14.656,Surprise recog test,2023.1.3,59.95304478071905,
237,0,237,0,,,,,,,,,,,,,,,,,,,,,,,,,,,,,,,,,,2219.8286801001523,2220.8426491001155,2218.0248602000065,2218.0248602000065,2218.0248602000065,2218.0248602000065,new_sceneIn_29.png,238,4.0,1.797454799991101,,064,10,2025-03-28_15h00.14.656,Surprise recog test,2023.1.3,59.95304478071905,
238,0,238,0,,,,,,,,,,,,,,,,,,,,,,,,,,,,,,,,,,2222.5251295999624,,2220.8426491001155,2220.8426491001155,2220.8426491001155,2220.8426491001155,old_fruit_2.png,239,3.0,1.6772744001355022,,064,10,2025-03-28_15h00.14.656,Surprise recog test,2023.1.3,59.95304478071905,
239,0,239,0,,,,,,,,,,,,,,,,,,,,,,,,,,,,,,,,,,2225.1406986000948,2226.162124700146,2223.556663400028,2223.556663400028,2223.556663400028,2223.556663400028,new_sceneOut_11.png,240,4.0,1.586016200017184,,064,10,2025-03-28_15h00.14.656,Surprise recog test,2023.1.3,59.95304478071905,
240,0,240,0,,,,,,,,,,,,,,,,,,,,,,,,,,,,,,,,,,2227.3462268000003,2228.377210700186,2226.162124700146,2226.162124700146,2226.162124700146,2226.162124700146,old_sceneIn_28.png,241,4.0,1.1869938999880105,,064,10,2025-03-28_15h00.14.656,Surprise recog test,2023.1.3,59.95304478071905,
241,0,241,0,,,,,,,,,,,,,,,,,,,,,,,,,,,,,,,,,,2229.525275000138,2230.5480726000387,2228.377210700186,2228.377210700186,2228.377210700186,2228.377210700186,new_stationery_39.png,242,4.0,1.1496484000235796,,064,10,2025-03-28_15h00.14.656,Surprise recog test,2023.1.3,59.95304478071905,
242,0,242,0,,,,,,,,,,,,,,,,,,,,,,,,,,,,,,,,,,2232.5977174001746,2233.6052214000374,2230.5480726000387,2230.5480726000387,2230.5480726000387,2230.5480726000387,old_sceneIn_21.png,243,2.0,2.0520323999226093,,064,10,2025-03-28_15h00.14.656,Surprise recog test,2023.1.3,59.95304478071905,
243,0,243,0,,,,,,,,,,,,,,,,,,,,,,,,,,,,,,,,,,2235.059268400073,2236.085884800181,2233.6052214000374,2233.6052214000374,2233.6052214000374,2233.6052214000374,new_sceneIn_18.png,244,3.0,1.4516610999125987,,064,10,2025-03-28_15h00.14.656,Surprise recog test,2023.1.3,59.95304478071905,
244,0,244,0,,,,,,,,,,,,,,,,,,,,,,,,,,,,,,,,,,2238.1171942001674,2239.1229133000597,2236.085884800181,2236.085884800181,2236.085884800181,2236.085884800181,new_fruit_4.png,245,4.0,2.027641300112009,,064,10,2025-03-28_15h00.14.656,Surprise recog test,2023.1.3,59.95304478071905,
245,0,245,0,,,,,,,,,,,,,,,,,,,,,,,,,,,,,,,,,,2240.6162636000663,2241.627302300185,2239.1229133000597,2239.1229133000597,2239.1229133000597,2239.1229133000597,old_fruit_15.png,246,1.0,1.4884019000455737,,064,10,2025-03-28_15h00.14.656,Surprise recog test,2023.1.3,59.95304478071905,
246,0,246,0,,,,,,,,,,,,,,,,,,,,,,,,,,,,,,,,,,2244.4661906000692,2245.494206200121,2241.627302300185,2241.627302300185,2241.627302300185,2241.627302300185,new_sceneIn_25.png,247,4.0,2.8321811999194324,,064,10,2025-03-28_15h00.14.656,Surprise recog test,2023.1.3,59.95304478071905,
247,0,247,0,,,,,,,,,,,,,,,,,,,,,,,,,,,,,,,,,,2247.1011883001775,2248.1202160001267,2245.494206200121,2245.494206200121,2245.494206200121,2245.494206200121,old_fruit_43.png,248,4.0,1.607683700043708,,064,10,2025-03-28_15h00.14.656,Surprise recog test,2023.1.3,59.95304478071905,
248,0,248,0,,,,,,,,,,,,,,,,,,,,,,,,,,,,,,,,,,2250.151591000147,2251.168875399977,2248.1202160001267,2248.1202160001267,2248.1202160001267,2248.1202160001267,old_sceneIn_7.png,249,4.0,2.024116300046444,,064,10,2025-03-28_15h00.14.656,Surprise recog test,2023.1.3,59.95304478071905,
249,0,249,0,,,,,,,,,,,,,,,,,,,,,,,,,,,,,,,,,,2252.8998136001173,,2251.168875399977,2251.168875399977,2251.168875399977,2251.168875399977,new_fruit_39.png,250,1.0,1.7244493998587132,,064,10,2025-03-28_15h00.14.656,Surprise recog test,2023.1.3,59.95304478071905,
250,0,250,0,,,,,,,,,,,,,,,,,,,,,,,,,,,,,,,,,,2255.2373012001626,2256.2672802000307,2253.9271802001167,2253.9271802001167,2253.9271802001167,2253.9271802001167,new_stationery_36.png,251,1.0,1.3122004999313504,,064,10,2025-03-28_15h00.14.656,Surprise recog test,2023.1.3,59.95304478071905,
251,0,251,0,,,,,,,,,,,,,,,,,,,,,,,,,,,,,,,,,,2258.085977200186,,2256.2672802000307,2256.2672802000307,2256.2672802000307,2256.2672802000307,old_sceneOut_45.png,252,3.0,1.8212168000172824,,064,10,2025-03-28_15h00.14.656,Surprise recog test,2023.1.3,59.95304478071905,
252,0,252,0,,,,,,,,,,,,,,,,,,,,,,,,,,,,,,,,,,2260.7454614001326,2261.764494400006,2259.1216236001346,2259.1216236001346,2259.1216236001346,2259.1216236001346,new_sceneIn_3.png,253,2.0,1.628679399844259,,064,10,2025-03-28_15h00.14.656,Surprise recog test,2023.1.3,59.95304478071905,
253,0,253,0,,,,,,,,,,,,,,,,,,,,,,,,,,,,,,,,,,2263.9163887000177,2264.941105300095,2261.764494400006,2261.764494400006,2261.764494400006,2261.764494400006,new_stationery_8.png,254,5.0,2.151821400038898,,064,10,2025-03-28_15h00.14.656,Surprise recog test,2023.1.3,59.95304478071905,
254,0,254,0,,,,,,,,,,,,,,,,,,,,,,,,,,,,,,,,,,2266.4313926000614,2267.460725400131,2264.941105300095,2264.941105300095,2264.941105300095,2264.941105300095,new_stationery_3.png,255,4.0,1.4923543001059443,,064,10,2025-03-28_15h00.14.656,Surprise recog test,2023.1.3,59.95304478071905,
255,0,255,0,,,,,,,,,,,,,,,,,,,,,,,,,,,,,,,,,,2269.3590748000424,2270.377250700025,2267.460725400131,2267.460725400131,2267.460725400131,2267.460725400131,new_sceneIn_7.png,256,3.0,1.9021000999491662,,064,10,2025-03-28_15h00.14.656,Surprise recog test,2023.1.3,59.95304478071905,
256,0,256,0,,,,,,,,,,,,,,,,,,,,,,,,,,,,,,,,,,2272.009155200096,2273.026800499996,2270.377250700025,2270.377250700025,2270.377250700025,2270.377250700025,new_stationery_26.png,257,4.0,1.6318251001648605,,064,10,2025-03-28_15h00.14.656,Surprise recog test,2023.1.3,59.95304478071905,
257,0,257,0,,,,,,,,,,,,,,,,,,,,,,,,,,,,,,,,,,2274.563137799967,2275.5843247000594,2273.026800499996,2273.026800499996,2273.026800499996,2273.026800499996,old_fruit_16.png,258,1.0,1.5360671000089496,,064,10,2025-03-28_15h00.14.656,Surprise recog test,2023.1.3,59.95304478071905,
258,0,258,0,,,,,,,,,,,,,,,,,,,,,,,,,,,,,,,,,,2277.8206212001387,,2275.5843247000594,2275.5843247000594,2275.5843247000594,2275.5843247000594,new_fruit_1.png,259,3.0,2.2389138999860734,,064,10,2025-03-28_15h00.14.656,Surprise recog test,2023.1.3,59.95304478071905,
259,0,259,0,,,,,,,,,,,,,,,,,,,,,,,,,,,,,,,,,,2280.928736000089,2281.959329500096,2278.8494868001435,2278.8494868001435,2278.8494868001435,2278.8494868001435,old_fruit_17.png,260,1.0,2.078999700024724,,064,10,2025-03-28_15h00.14.656,Surprise recog test,2023.1.3,59.95304478071905,
260,0,260,0,,,,,,,,,,,,,,,,,,,,,,,,,,,,,,,,,,2284.1228358000517,2285.142577300081,2281.959329500096,2281.959329500096,2281.959329500096,2281.959329500096,new_sceneOut_31.png,261,3.0,2.166484999936074,,064,10,2025-03-28_15h00.14.656,Surprise recog test,2023.1.3,59.95304478071905,
261,0,261,0,,,,,,,,,,,,,,,,,,,,,,,,,,,,,,,,,,2286.555985300103,2287.5774332000874,2285.142577300081,2285.142577300081,2285.142577300081,2285.142577300081,old_stationery_28.png,262,1.0,1.413452500011772,,064,10,2025-03-28_15h00.14.656,Surprise recog test,2023.1.3,59.95304478071905,
262,0,262,0,,,,,,,,,,,,,,,,,,,,,,,,,,,,,,,,,,2289.019158100011,2290.0479091000743,2287.5774332000874,2287.5774332000874,2287.5774332000874,2287.5774332000874,new_sceneOut_4.png,263,4.0,1.4426225000061095,,064,10,2025-03-28_15h00.14.656,Surprise recog test,2023.1.3,59.95304478071905,
263,0,263,0,,,,,,,,,,,,,,,,,,,,,,,,,,,,,,,,,,2291.537261400139,2292.5508585001808,2290.0479091000743,2290.0479091000743,2290.0479091000743,2290.0479091000743,new_sceneIn_10.png,264,4.0,1.4878175999037921,,064,10,2025-03-28_15h00.14.656,Surprise recog test,2023.1.3,59.95304478071905,
264,0,264,0,,,,,,,,,,,,,,,,,,,,,,,,,,,,,,,,,,2294.385567500023,2295.416527800029,2292.5508585001808,2292.5508585001808,2292.5508585001808,2292.5508585001808,new_stationery_18.png,265,3.0,1.8318008999340236,,064,10,2025-03-28_15h00.14.656,Surprise recog test,2023.1.3,59.95304478071905,
265,0,265,0,,,,,,,,,,,,,,,,,,,,,,,,,,,,,,,,,,2296.984957000008,2298.005611000117,2295.416527800029,2295.416527800029,2295.416527800029,2295.416527800029,old_sceneIn_34.png,266,4.0,1.5715337998699397,,064,10,2025-03-28_15h00.14.656,Surprise recog test,2023.1.3,59.95304478071905,
266,0,266,0,,,,,,,,,,,,,,,,,,,,,,,,,,,,,,,,,,2300.8079719999805,2301.827997500077,2298.005611000117,2298.005611000117,2298.005611000117,2298.005611000117,new_fruit_22.png,267,3.0,2.805798100074753,,064,10,2025-03-28_15h00.14.656,Surprise recog test,2023.1.3,59.95304478071905,
267,0,267,0,,,,,,,,,,,,,,,,,,,,,,,,,,,,,,,,,,2303.339088200126,2304.3559130001813,2301.827997500077,2301.827997500077,2301.827997500077,2301.827997500077,new_stationery_20.png,268,4.0,1.5072507001459599,,064,10,2025-03-28_15h00.14.656,Surprise recog test,2023.1.3,59.95304478071905,
268,0,268,0,,,,,,,,,,,,,,,,,,,,,,,,,,,,,,,,,,2306.5823472000193,2307.598725200165,2304.3559130001813,2304.3559130001813,2304.3559130001813,2304.3559130001813,new_sceneIn_48.png,269,3.0,2.227821599924937,,064,10,2025-03-28_15h00.14.656,Surprise recog test,2023.1.3,59.95304478071905,
269,0,269,0,,,,,,,,,,,,,,,,,,,,,,,,,,,,,,,,,,2308.8065835000016,2309.833432900021,2307.598725200165,2307.598725200165,2307.598725200165,2307.598725200165,new_sceneIn_24.png,270,3.0,1.203036000020802,,064,10,2025-03-28_15h00.14.656,Surprise recog test,2023.1.3,59.95304478071905,
270,0,270,0,,,,,,,,,,,,,,,,,,,,,,,,,,,,,,,,,,2311.586984800175,2312.6034218000714,2309.833432900021,2309.833432900021,2309.833432900021,2309.833432900021,old_sceneIn_14.png,271,2.0,1.7565811998210847,,064,10,2025-03-28_15h00.14.656,Surprise recog test,2023.1.3,59.95304478071905,
271,0,271,0,,,,,,,,,,,,,,,,,,,,,,,,,,,,,,,,,,2314.18222409999,2315.1850205000956,2312.6034218000714,2312.6034218000714,2312.6034218000714,2312.6034218000714,new_sceneIn_17.png,272,4.0,1.5725283999927342,,064,10,2025-03-28_15h00.14.656,Surprise recog test,2023.1.3,59.95304478071905,
272,0,272,0,,,,,,,,,,,,,,,,,,,,,,,,,,,,,,,,,,2318.0715863001533,2319.0967388001736,2315.1850205000956,2315.1850205000956,2315.1850205000956,2315.1850205000956,new_fruit_23.png,273,4.0,2.8811289998702705,,064,10,2025-03-28_15h00.14.656,Surprise recog test,2023.1.3,59.95304478071905,
273,0,273,0,,,,,,,,,,,,,,,,,,,,,,,,,,,,,,,,,,2320.894960500067,2321.9220736999996,2319.0967388001736,2319.0967388001736,2319.0967388001736,2319.0967388001736,new_fruit_28.png,274,1.0,1.793596199946478,,064,10,2025-03-28_15h00.14.656,Surprise recog test,2023.1.3,59.95304478071905,
274,0,274,0,,,,,,,,,,,,,,,,,,,,,,,,,,,,,,,,,,2323.846130199963,2324.86782829999,2321.9220736999996,2321.9220736999996,2321.9220736999996,2321.9220736999996,old_sceneOut_9.png,275,3.0,1.926754399901256,,064,10,2025-03-28_15h00.14.656,Surprise recog test,2023.1.3,59.95304478071905,
275,0,275,0,,,,,,,,,,,,,,,,,,,,,,,,,,,,,,,,,,2326.328484200174,,2324.86782829999,2324.86782829999,2324.86782829999,2324.86782829999,new_sceneOut_41.png,276,3.0,1.4610741999931633,,064,10,2025-03-28_15h00.14.656,Surprise recog test,2023.1.3,59.95304478071905,
276,0,276,0,,,,,,,,,,,,,,,,,,,,,,,,,,,,,,,,,,2328.9674031999893,2329.983849400189,2327.3683194001205,2327.3683194001205,2327.3683194001205,2327.3683194001205,new_stationery_2.png,277,4.0,1.604744300013408,,064,10,2025-03-28_15h00.14.656,Surprise recog test,2023.1.3,59.95304478071905,
277,0,277,0,,,,,,,,,,,,,,,,,,,,,,,,,,,,,,,,,,2331.8209868001286,2332.8369730999693,2329.983849400189,2329.983849400189,2329.983849400189,2329.983849400189,new_sceneOut_42.png,278,3.0,1.8329790998250246,,064,10,2025-03-28_15h00.14.656,Surprise recog test,2023.1.3,59.95304478071905,
278,0,278,0,,,,,,,,,,,,,,,,,,,,,,,,,,,,,,,,,,2334.711013900116,2335.7232584999874,2332.8369730999693,2332.8369730999693,2332.8369730999693,2332.8369730999693,new_sceneOut_23.png,279,2.0,1.8699506998527795,,064,10,2025-03-28_15h00.14.656,Surprise recog test,2023.1.3,59.95304478071905,
279,0,279,0,,,,,,,,,,,,,,,,,,,,,,,,,,,,,,,,,,2337.488462000154,2338.5083310999908,2335.7232584999874,2335.7232584999874,2335.7232584999874,2335.7232584999874,old_sceneIn_48.png,280,4.0,1.7616115999408066,,064,10,2025-03-28_15h00.14.656,Surprise recog test,2023.1.3,59.95304478071905,
280,0,280,0,,,,,,,,,,,,,,,,,,,,,,,,,,,,,,,,,,2340.724058800144,2341.756933600176,2338.5083310999908,2338.5083310999908,2338.5083310999908,2338.5083310999908,old_fruit_1.png,281,2.0,2.21238199993968,,064,10,2025-03-28_15h00.14.656,Surprise recog test,2023.1.3,59.95304478071905,
281,0,281,0,,,,,,,,,,,,,,,,,,,,,,,,,,,,,,,,,,2343.244986400008,2344.2713442000095,2341.756933600176,2341.756933600176,2341.756933600176,2341.756933600176,old_stationery_6.png,282,3.0,1.4908196998294443,,064,10,2025-03-28_15h00.14.656,Surprise recog test,2023.1.3,59.95304478071905,
282,0,282,0,,,,,,,,,,,,,,,,,,,,,,,,,,,,,,,,,,2346.1031608001795,2347.1268700000364,2344.2713442000095,2344.2713442000095,2344.2713442000095,2344.2713442000095,new_sceneIn_49.png,283,4.0,1.8354247000534087,,064,10,2025-03-28_15h00.14.656,Surprise recog test,2023.1.3,59.95304478071905,
283,0,283,0,,,,,,,,,,,,,,,,,,,,,,,,,,,,,,,,,,2348.222407300025,2349.2401823999826,2347.1268700000364,2347.1268700000364,2347.1268700000364,2347.1268700000364,new_sceneIn_46.png,284,4.0,1.0979773001745343,,064,10,2025-03-28_15h00.14.656,Surprise recog test,2023.1.3,59.95304478071905,
284,0,284,0,,,,,,,,,,,,,,,,,,,,,,,,,,,,,,,,,,2350.5657593000215,2351.5963712001685,2349.2401823999826,2349.2401823999826,2349.2401823999826,2349.2401823999826,new_sceneOut_14.png,285,2.0,1.327212599804625,,064,10,2025-03-28_15h00.14.656,Surprise recog test,2023.1.3,59.95304478071905,
285,0,285,0,,,,,,,,,,,,,,,,,,,,,,,,,,,,,,,,,,2354.4453662000597,2355.469742000103,2351.5963712001685,2351.5963712001685,2351.5963712001685,2351.5963712001685,old_fruit_14.png,286,3.0,2.849368300056085,,064,10,2025-03-28_15h00.14.656,Surprise recog test,2023.1.3,59.95304478071905,
286,0,286,0,,,,,,,,,,,,,,,,,,,,,,,,,,,,,,,,,,2356.9493863000534,2357.958124099998,2355.469742000103,2355.469742000103,2355.469742000103,2355.469742000103,new_sceneOut_30.png,287,3.0,1.4769644001498818,,064,10,2025-03-28_15h00.14.656,Surprise recog test,2023.1.3,59.95304478071905,
287,0,287,0,,,,,,,,,,,,,,,,,,,,,,,,,,,,,,,,,,2359.4347674001474,2360.442890400067,2357.958124099998,2357.958124099998,2357.958124099998,2357.958124099998,old_fruit_23.png,288,2.0,1.465630100108683,,064,10,2025-03-28_15h00.14.656,Surprise recog test,2023.1.3,59.95304478071905,
288,0,288,0,,,,,,,,,,,,,,,,,,,,,,,,,,,,,,,,,,2362.33124830015,2363.358904000139,2360.442890400067,2360.442890400067,2360.442890400067,2360.442890400067,new_stationery_42.png,289,4.0,1.881796999834478,,064,10,2025-03-28_15h00.14.656,Surprise recog test,2023.1.3,59.95304478071905,
289,0,289,0,,,,,,,,,,,,,,,,,,,,,,,,,,,,,,,,,,2365.2088840000797,,2363.358904000139,2363.358904000139,2363.358904000139,2363.358904000139,old_stationery_48.png,290,1.0,1.8529495000839233,,064,10,2025-03-28_15h00.14.656,Surprise recog test,2023.1.3,59.95304478071905,
290,0,290,0,,,,,,,,,,,,,,,,,,,,,,,,,,,,,,,,,,2367.594362300122,,2366.242736000102,2366.242736000102,2366.242736000102,2366.242736000102,old_sceneOut_35.png,291,3.0,1.3540425999090075,,064,10,2025-03-28_15h00.14.656,Surprise recog test,2023.1.3,59.95304478071905,
291,0,291,0,,,,,,,,,,,,,,,,,,,,,,,,,,,,,,,,,,2370.125089700101,2371.1495271001477,2368.615474899998,2368.615474899998,2368.615474899998,2368.615474899998,old_fruit_45.png,292,1.0,1.5062317999545485,,064,10,2025-03-28_15h00.14.656,Surprise recog test,2023.1.3,59.95304478071905,
292,0,292,0,,,,,,,,,,,,,,,,,,,,,,,,,,,,,,,,,,2372.9850115000736,2374.005675500026,2371.1495271001477,2371.1495271001477,2371.1495271001477,2371.1495271001477,new_sceneIn_13.png,293,2.0,1.838420799933374,,064,10,2025-03-28_15h00.14.656,Surprise recog test,2023.1.3,59.95304478071905,
293,0,293,0,,,,,,,,,,,,,,,,,,,,,,,,,,,,,,,,,,2375.7889233999886,2376.8126487000845,2374.005675500026,2374.005675500026,2374.005675500026,2374.005675500026,new_fruit_7.png,294,4.0,1.78180140000768,,064,10,2025-03-28_15h00.14.656,Surprise recog test,2023.1.3,59.95304478071905,
294,0,294,0,,,,,,,,,,,,,,,,,,,,,,,,,,,,,,,,,,2378.384156699991,2379.400118800113,2376.8126487000845,2376.8126487000845,2376.8126487000845,2376.8126487000845,new_fruit_46.png,295,2.0,1.5724208999890834,,064,10,2025-03-28_15h00.14.656,Surprise recog test,2023.1.3,59.95304478071905,
295,0,295,0,,,,,,,,,,,,,,,,,,,,,,,,,,,,,,,,,,2380.956984200049,2381.97394990013,2379.400118800113,2379.400118800113,2379.400118800113,2379.400118800113,old_stationery_3.png,296,1.0,1.5579937999136746,,064,10,2025-03-28_15h00.14.656,Surprise recog test,2023.1.3,59.95304478071905,
296,0,296,0,,,,,,,,,,,,,,,,,,,,,,,,,,,,,,,,,,2384.1064867000096,2385.1256598001346,2381.97394990013,2381.97394990013,2381.97394990013,2381.97394990013,old_stationery_46.png,297,4.0,2.126724800094962,,064,10,2025-03-28_15h00.14.656,Surprise recog test,2023.1.3,59.95304478071905,
297,0,297,0,,,,,,,,,,,,,,,,,,,,,,,,,,,,,,,,,,2387.297609000001,2388.312354300171,2385.1256598001346,2385.1256598001346,2385.1256598001346,2385.1256598001346,new_sceneOut_26.png,298,3.0,2.1734638998750597,,064,10,2025-03-28_15h00.14.656,Surprise recog test,2023.1.3,59.95304478071905,
298,0,298,0,,,,,,,,,,,,,,,,,,,,,,,,,,,,,,,,,,2390.042189600179,2391.0662678000517,2388.312354300171,2388.312354300171,2388.312354300171,2388.312354300171,old_sceneIn_3.png,299,4.0,1.7256677001714706,,064,10,2025-03-28_15h00.14.656,Surprise recog test,2023.1.3,59.95304478071905,
299,0,299,0,,,,,,,,,,,,,,,,,,,,,,,,,,,,,,,,,,2392.7020885001402,2393.720366100082,2391.0662678000517,2391.0662678000517,2391.0662678000517,2391.0662678000517,old_sceneOut_1.png,300,4.0,1.6383473000023514,,064,10,2025-03-28_15h00.14.656,Surprise recog test,2023.1.3,59.95304478071905,
300,0,300,0,,,,,,,,,,,,,,,,,,,,,,,,,,,,,,,,,,2395.2622966000345,2396.285530399997,2393.720366100082,2393.720366100082,2393.720366100082,2393.720366100082,new_sceneOut_5.png,301,2.0,1.5354818999767303,,064,10,2025-03-28_15h00.14.656,Surprise recog test,2023.1.3,59.95304478071905,
301,0,301,0,,,,,,,,,,,,,,,,,,,,,,,,,,,,,,,,,,2397.5935891000554,2398.623369600158,2396.285530399997,2396.285530399997,2396.285530399997,2396.285530399997,old_sceneIn_24.png,302,3.0,1.3106935999821872,,064,10,2025-03-28_15h00.14.656,Surprise recog test,2023.1.3,59.95304478071905,
302,0,302,0,,,,,,,,,,,,,,,,,,,,,,,,,,,,,,,,,,2400.1438877000473,2401.1719698000234,2398.623369600158,2398.623369600158,2398.623369600158,2398.623369600158,new_sceneIn_22.png,303,2.0,1.5225537000223994,,064,10,2025-03-28_15h00.14.656,Surprise recog test,2023.1.3,59.95304478071905,
303,0,303,0,,,,,,,,,,,,,,,,,,,,,,,,,,,,,,,,,,2402.6267518000677,2403.655218400061,2401.1719698000234,2401.1719698000234,2401.1719698000234,2401.1719698000234,new_stationery_48.png,304,2.0,1.4566112000029534,,064,10,2025-03-28_15h00.14.656,Surprise recog test,2023.1.3,59.95304478071905,
304,0,304,0,,,,,,,,,,,,,,,,,,,,,,,,,,,,,,,,,,2405.4097257000394,,2403.655218400061,2403.655218400061,2403.655218400061,2403.655218400061,new_stationery_21.png,305,4.0,1.7551520999986678,,064,10,2025-03-28_15h00.14.656,Surprise recog test,2023.1.3,59.95304478071905,
305,0,305,0,,,,,,,,,,,,,,,,,,,,,,,,,,,,,,,,,,2407.5684852001723,2408.582907299977,2406.426912300056,2406.426912300056,2406.426912300056,2406.426912300056,new_stationery_5.png,306,4.0,1.136976899811998,,064,10,2025-03-28_15h00.14.656,Surprise recog test,2023.1.3,59.95304478071905,
306,0,306,0,,,,,,,,,,,,,,,,,,,,,,,,,,,,,,,,,,2410.366693600081,2411.394724600017,2408.582907299977,2408.582907299977,2408.582907299977,2408.582907299977,new_sceneIn_38.png,307,4.0,1.778330500004813,,064,10,2025-03-28_15h00.14.656,Surprise recog test,2023.1.3,59.95304478071905,
307,0,307,0,,,,,,,,,,,,,,,,,,,,,,,,,,,,,,,,,,2413.99682260002,2415.014288500184,2411.394724600017,2411.394724600017,2411.394724600017,2411.394724600017,old_stationery_50.png,308,2.0,2.597824600059539,,064,10,2025-03-28_15h00.14.656,Surprise recog test,2023.1.3,59.95304478071905,
308,0,308,0,,,,,,,,,,,,,,,,,,,,,,,,,,,,,,,,,,2416.080600599991,2417.0964959000703,2415.014288500184,2415.014288500184,2415.014288500184,2415.014288500184,old_fruit_22.png,309,2.0,1.0653492000419647,,064,10,2025-03-28_15h00.14.656,Surprise recog test,2023.1.3,59.95304478071905,
309,0,309,0,,,,,,,,,,,,,,,,,,,,,,,,,,,,,,,,,,2418.855457399972,2419.8858992999885,2417.0964959000703,2417.0964959000703,2417.0964959000703,2417.0964959000703,old_stationery_47.png,310,4.0,1.76048759999685,,064,10,2025-03-28_15h00.14.656,Surprise recog test,2023.1.3,59.95304478071905,
310,0,310,0,,,,,,,,,,,,,,,,,,,,,,,,,,,,,,,,,,2421.1194490999915,2422.1397802000865,2419.8858992999885,2419.8858992999885,2419.8858992999885,2419.8858992999885,new_fruit_43.png,311,4.0,1.2308024000376463,,064,10,2025-03-28_15h00.14.656,Surprise recog test,2023.1.3,59.95304478071905,
311,0,311,0,,,,,,,,,,,,,,,,,,,,,,,,,,,,,,,,,,2423.749825600069,2424.7752796001732,2422.1397802000865,2422.1397802000865,2422.1397802000865,2422.1397802000865,new_fruit_49.png,312,2.0,1.610572700155899,,064,10,2025-03-28_15h00.14.656,Surprise recog test,2023.1.3,59.95304478071905,
312,0,312,0,,,,,,,,,,,,,,,,,,,,,,,,,,,,,,,,,,2426.477554399986,,2424.7752796001732,2424.7752796001732,2424.7752796001732,2424.7752796001732,old_sceneOut_43.png,313,3.0,1.7036383000668138,,064,10,2025-03-28_15h00.14.656,Surprise recog test,2023.1.3,59.95304478071905,
313,0,313,0,,,,,,,,,,,,,,,,,,,,,,,,,,,,,,,,,,2428.6781056001782,,2427.498356900178,2427.498356900178,2427.498356900178,2427.498356900178,old_sceneOut_10.png,314,3.0,1.17806959990412,,064,10,2025-03-28_15h00.14.656,Surprise recog test,2023.1.3,59.95304478071905,
314,0,314,0,,,,,,,,,,,,,,,,,,,,,,,,,,,,,,,,,,2431.025561100105,2432.0519044999965,2429.7136387999635,2429.7136387999635,2429.7136387999635,2429.7136387999635,new_sceneIn_40.png,315,3.0,1.3139230001252145,,064,10,2025-03-28_15h00.14.656,Surprise recog test,2023.1.3,59.95304478071905,
315,0,315,0,,,,,,,,,,,,,,,,,,,,,,,,,,,,,,,,,,2433.412720600143,2434.4187686999794,2432.0519044999965,2432.0519044999965,2432.0519044999965,2432.0519044999965,new_stationery_24.png,316,1.0,1.364605600014329,,064,10,2025-03-28_15h00.14.656,Surprise recog test,2023.1.3,59.95304478071905,
316,0,316,0,,,,,,,,,,,,,,,,,,,,,,,,,,,,,,,,,,2435.6814906999934,2436.6889009000733,2434.4187686999794,2434.4187686999794,2434.4187686999794,2434.4187686999794,old_fruit_4.png,317,2.0,1.2551990000065416,,064,10,2025-03-28_15h00.14.656,Surprise recog test,2023.1.3,59.95304478071905,
317,0,317,0,,,,,,,,,,,,,,,,,,,,,,,,,,,,,,,,,,2437.986452399986,,2436.6889009000733,2436.6889009000733,2436.6889009000733,2436.6889009000733,old_sceneIn_25.png,318,4.0,1.2933996999636292,,064,10,2025-03-28_15h00.14.656,Surprise recog test,2023.1.3,59.95304478071905,
318,0,318,0,,,,,,,,,,,,,,,,,,,,,,,,,,,,,,,,,,2439.931319599971,2440.95954099996,2439.0218702000566,2439.0218702000566,2439.0218702000566,2439.0218702000566,old_sceneOut_25.png,319,4.0,0.911102200159803,,064,10,2025-03-28_15h00.14.656,Surprise recog test,2023.1.3,59.95304478071905,
319,0,319,0,,,,,,,,,,,,,,,,,,,,,,,,,,,,,,,,,,2442.7353294000495,2443.758062500041,2440.95954099996,2440.95954099996,2440.95954099996,2440.95954099996,new_fruit_45.png,320,3.0,1.7772226000670344,,064,10,2025-03-28_15h00.14.656,Surprise recog test,2023.1.3,59.95304478071905,
320,0,320,0,,,,,,,,,,,,,,,,,,,,,,,,,,,,,,,,,,2445.251497300109,2446.2645062000956,2443.758062500041,2443.758062500041,2443.758062500041,2443.758062500041,old_sceneOut_49.png,321,4.0,1.494664300000295,,064,10,2025-03-28_15h00.14.656,Surprise recog test,2023.1.3,59.95304478071905,
321,0,321,0,,,,,,,,,,,,,,,,,,,,,,,,,,,,,,,,,,2448.8301149001345,,2446.2645062000956,2446.2645062000956,2446.2645062000956,2446.2645062000956,new_stationery_44.png,322,4.0,2.5618118001148105,,064,10,2025-03-28_15h00.14.656,Surprise recog test,2023.1.3,59.95304478071905,
322,0,322,0,,,,,,,,,,,,,,,,,,,,,,,,,,,,,,,,,,2451.657019900158,2452.6865571001545,2449.8582513001747,2449.8582513001747,2449.8582513001747,2449.8582513001747,old_fruit_40.png,323,2.0,1.8004568999167532,,064,10,2025-03-28_15h00.14.656,Surprise recog test,2023.1.3,59.95304478071905,
323,0,323,0,,,,,,,,,,,,,,,,,,,,,,,,,,,,,,,,,,2454.077878399985,2455.086013399996,2452.6865571001545,2452.6865571001545,2452.6865571001545,2452.6865571001545,new_sceneOut_38.png,324,4.0,1.3942885000724345,,064,10,2025-03-28_15h00.14.656,Surprise recog test,2023.1.3,59.95304478071905,
324,0,324,0,,,,,,,,,,,,,,,,,,,,,,,,,,,,,,,,,,2456.6796029000543,2457.6902197001036,2455.086013399996,2455.086013399996,2455.086013399996,2455.086013399996,old_stationery_22.png,325,4.0,1.590855099959299,,064,10,2025-03-28_15h00.14.656,Surprise recog test,2023.1.3,59.95304478071905,
325,0,325,0,,,,,,,,,,,,,,,,,,,,,,,,,,,,,,,,,,2459.001842000056,2460.0226194001734,2457.6902197001036,2457.6902197001036,2457.6902197001036,2457.6902197001036,new_sceneIn_43.png,326,4.0,1.3085537001024932,,064,10,2025-03-28_15h00.14.656,Surprise recog test,2023.1.3,59.95304478071905,
326,0,326,0,,,,,,,,,,,,,,,,,,,,,,,,,,,,,,,,,,2461.4499860000797,2462.471559500089,2460.0226194001734,2460.0226194001734,2460.0226194001734,2460.0226194001734,old_sceneOut_2.png,327,4.0,1.4306175999809057,,064,10,2025-03-28_15h00.14.656,Surprise recog test,2023.1.3,59.95304478071905,
327,0,327,0,,,,,,,,,,,,,,,,,,,,,,,,,,,,,,,,,,2463.76429800014,2464.790623600129,2462.471559500089,2462.471559500089,2462.471559500089,2462.471559500089,old_fruit_19.png,328,4.0,1.294465099927038,,064,10,2025-03-28_15h00.14.656,Surprise recog test,2023.1.3,59.95304478071905,
328,0,328,0,,,,,,,,,,,,,,,,,,,,,,,,,,,,,,,,,,2465.7829905999824,2466.8130288000684,2464.790623600129,2464.790623600129,2464.790623600129,2464.790623600129,new_stationery_37.png,329,4.0,0.9925635000690818,,064,10,2025-03-28_15h00.14.656,Surprise recog test,2023.1.3,59.95304478071905,
329,0,329,0,,,,,,,,,,,,,,,,,,,,,,,,,,,,,,,,,,2467.761515900027,,2466.8130288000684,2466.8130288000684,2466.8130288000684,2466.8130288000684,old_sceneOut_28.png,330,4.0,0.9496142999269068,,064,10,2025-03-28_15h00.14.656,Surprise recog test,2023.1.3,59.95304478071905,
330,0,330,0,,,,,,,,,,,,,,,,,,,,,,,,,,,,,,,,,,2470.5134260000195,,2468.795062400168,2468.795062400168,2468.795062400168,2468.795062400168,old_fruit_30.png,331,1.0,1.7179355002008379,,064,10,2025-03-28_15h00.14.656,Surprise recog test,2023.1.3,59.95304478071905,
331,0,331,0,,,,,,,,,,,,,,,,,,,,,,,,,,,,,,,,,,2472.9208585000597,2473.9432856000494,2471.532259100117,2471.532259100117,2471.532259100117,2471.532259100117,old_stationery_26.png,332,2.0,1.3849528999999166,,064,10,2025-03-28_15h00.14.656,Surprise recog test,2023.1.3,59.95304478071905,
332,0,332,0,,,,,,,,,,,,,,,,,,,,,,,,,,,,,,,,,,2475.257245399989,2476.273459200049,2473.9432856000494,2473.9432856000494,2473.9432856000494,2473.9432856000494,new_fruit_9.png,333,2.0,1.314506899798289,,064,10,2025-03-28_15h00.14.656,Surprise recog test,2023.1.3,59.95304478071905,
333,0,333,0,,,,,,,,,,,,,,,,,,,,,,,,,,,,,,,,,,2477.889678500127,2478.91738850018,2476.273459200049,2476.273459200049,2476.273459200049,2476.273459200049,old_sceneIn_33.png,334,4.0,1.6122185999993235,,064,10,2025-03-28_15h00.14.656,Surprise recog test,2023.1.3,59.95304478071905,
334,0,334,0,,,,,,,,,,,,,,,,,,,,,,,,,,,,,,,,,,2480.321728600189,,2478.91738850018,2478.91738850018,2478.91738850018,2478.91738850018,old_sceneIn_23.png,335,4.0,1.4062199001200497,,064,10,2025-03-28_15h00.14.656,Surprise recog test,2023.1.3,59.95304478071905,
335,0,335,0,,,,,,,,,,,,,,,,,,,,,,,,,,,,,,,,,,2482.758140000049,,2481.342531700153,2481.342531700153,2481.342531700153,2481.342531700153,old_stationery_1.png,336,2.0,1.411513000028208,,064,10,2025-03-28_15h00.14.656,Surprise recog test,2023.1.3,59.95304478071905,
336,0,336,0,,,,,,,,,,,,,,,,,,,,,,,,,,,,,,,,,,2485.2409690001514,2486.2537497000303,2483.7888837000355,2483.7888837000355,2483.7888837000355,2483.7888837000355,new_stationery_11.png,337,3.0,1.4541666000150144,,064,10,2025-03-28_15h00.14.656,Surprise recog test,2023.1.3,59.95304478071905,
337,0,337,0,,,,,,,,,,,,,,,,,,,,,,,,,,,,,,,,,,2487.861532200128,,2486.2537497000303,2486.2537497000303,2486.2537497000303,2486.2537497000303,new_stationery_4.png,338,4.0,1.6076682000420988,,064,10,2025-03-28_15h00.14.656,Surprise recog test,2023.1.3,59.95304478071905,
338,0,338,0,,,,,,,,,,,,,,,,,,,,,,,,,,,,,,,,,,2490.224605600117,2491.2443923000246,2488.8957191000227,2488.8957191000227,2488.8957191000227,2488.8957191000227,new_sceneIn_44.png,339,4.0,1.331711000064388,,064,10,2025-03-28_15h00.14.656,Surprise recog test,2023.1.3,59.95304478071905,
339,0,339,0,,,,,,,,,,,,,,,,,,,,,,,,,,,,,,,,,,2492.790521600051,2493.8081259001046,2491.2443923000246,2491.2443923000246,2491.2443923000246,2491.2443923000246,new_fruit_44.png,340,2.0,1.5452755999285728,,064,10,2025-03-28_15h00.14.656,Surprise recog test,2023.1.3,59.95304478071905,
340,0,340,0,,,,,,,,,,,,,,,,,,,,,,,,,,,,,,,,,,2495.8790023999754,2496.897104300093,2493.8081259001046,2493.8081259001046,2493.8081259001046,2493.8081259001046,old_sceneOut_27.png,341,3.0,2.0662665001582354,,064,10,2025-03-28_15h00.14.656,Surprise recog test,2023.1.3,59.95304478071905,
341,0,341,0,,,,,,,,,,,,,,,,,,,,,,,,,,,,,,,,,,2497.976378099993,2499.0086937001906,2496.897104300093,2496.897104300093,2496.897104300093,2496.897104300093,new_sceneOut_33.png,342,3.0,1.0755239001009613,,064,10,2025-03-28_15h00.14.656,Surprise recog test,2023.1.3,59.95304478071905,
342,0,342,0,,,,,,,,,,,,,,,,,,,,,,,,,,,,,,,,,,2500.4855871000327,2501.5040380000137,2499.0086937001906,2499.0086937001906,2499.0086937001906,2499.0086937001906,new_sceneOut_15.png,343,1.0,1.4735347998794168,,064,10,2025-03-28_15h00.14.656,Surprise recog test,2023.1.3,59.95304478071905,
343,0,343,0,,,,,,,,,,,,,,,,,,,,,,,,,,,,,,,,,,2503.310723300092,2504.342472200049,2501.5040380000137,2501.5040380000137,2501.5040380000137,2501.5040380000137,old_fruit_7.png,344,2.0,1.8064843998290598,,064,10,2025-03-28_15h00.14.656,Surprise recog test,2023.1.3,59.95304478071905,
344,0,344,0,,,,,,,,,,,,,,,,,,,,,,,,,,,,,,,,,,2505.476064100163,,2504.342472200049,2504.342472200049,2504.342472200049,2504.342472200049,old_sceneIn_26.png,345,4.0,1.136929600033909,,064,10,2025-03-28_15h00.14.656,Surprise recog test,2023.1.3,59.95304478071905,
345,0,345,0,,,,,,,,,,,,,,,,,,,,,,,,,,,,,,,,,,2507.6025945001747,2508.6345550999977,2506.5052353001665,2506.5052353001665,2506.5052353001665,2506.5052353001665,old_sceneIn_16.png,346,4.0,1.1003696999978274,,064,10,2025-03-28_15h00.14.656,Surprise recog test,2023.1.3,59.95304478071905,
346,0,346,0,,,,,,,,,,,,,,,,,,,,,,,,,,,,,,,,,,2510.4438932000194,2511.463707300136,2508.6345550999977,2508.6345550999977,2508.6345550999977,2508.6345550999977,old_sceneIn_30.png,347,2.0,1.8090007998980582,,064,10,2025-03-28_15h00.14.656,Surprise recog test,2023.1.3,59.95304478071905,
347,0,347,0,,,,,,,,,,,,,,,,,,,,,,,,,,,,,,,,,,2512.7354077000637,2513.751303800149,2511.463707300136,2511.463707300136,2511.463707300136,2511.463707300136,old_sceneIn_43.png,348,3.0,1.2731542000547051,,064,10,2025-03-28_15h00.14.656,Surprise recog test,2023.1.3,59.95304478071905,
348,0,348,0,,,,,,,,,,,,,,,,,,,,,,,,,,,,,,,,,,2515.5980700000655,2516.602762500057,2513.751303800149,2513.751303800149,2513.751303800149,2513.751303800149,old_sceneOut_50.png,349,4.0,1.837262799963355,,064,10,2025-03-28_15h00.14.656,Surprise recog test,2023.1.3,59.95304478071905,
349,0,349,0,,,,,,,,,,,,,,,,,,,,,,,,,,,,,,,,,,2517.67022119998,,2516.602762500057,2516.602762500057,2516.602762500057,2516.602762500057,new_stationery_43.png,350,4.0,1.063928599935025,,064,10,2025-03-28_15h00.14.656,Surprise recog test,2023.1.3,59.95304478071905,
350,0,350,0,,,,,,,,,,,,,,,,,,,,,,,,,,,,,,,,,,2520.02370710019,2521.0510951001197,2518.706011600094,2518.706011600094,2518.706011600094,2518.706011600094,new_sceneOut_28.png,351,4.0,1.3192151000257581,,064,10,2025-03-28_15h00.14.656,Surprise recog test,2023.1.3,59.95304478071905,
