trial_loop.thisRepN,trial_loop.thisTrialN,trial_loop.thisN,trial_loop.thisIndex,VAS_slider.started,VAS_text.started,VAS_notstressed_text.started,VAS_stressed_text.started,continue_input.started,continue_text.started,label0.started,label10.started,label20.started,label30.started,label40.started,label50.started,label60.started,label70.started,label80.started,label90.started,label100.started,VAS_slider.response,VAS_slider.rt,VAS_slider.history,Answer_VAS,continue_input.keys,instruction_text.started,continue_text_2.started,continue_input_2.started,continue_input_2.keys,continue_input_2.rt,continue_input_2.duration,example_text.started,example_slider_2.started,example_image.started,example_slider_2.response,example_slider_2.rt,fixcross.started,fixcross.stopped,front_square.started,stim_images.started,trial_inst_images.started,slider_images.started,thisImg,trial_count,slider_images.response,slider_images.rt,slider_images.stopped,outro.started,participant,condition,date,expName,psychopyVersion,frameRate,
,,,,1070.575568900007,1070.575568900007,1070.575568900007,1070.575568900007,1070.575568900007,1070.575568900007,1070.575568900007,1070.575568900007,1070.575568900007,1070.575568900007,1070.575568900007,1070.575568900007,1070.575568900007,1070.575568900007,1070.575568900007,1070.575568900007,1070.575568900007,3.961111111111111,8.9797186999931,"[(3.961111111111111, 8.9797186999931)]",3.961111111111111,None,,,,,,,,,,,,,,,,,,,,,,,,065,01,2025-04-04_13h59.04.811,Surprise recog test,2023.1.3,59.95419499870822,
,,,,,,,,,,,,,,,,,,,,,,,,,,1079.5834248000028,1079.5834248000028,1079.5834248000028,space,21.5420504000067,None,,,,,,,,,,,,,,,,,,065,01,2025-04-04_13h59.04.811,Surprise recog test,2023.1.3,59.95419499870822,
0,0,0,0,,,,,,,,,,,,,,,,,,,,,,,,,,,,,1101.2490752000012,1101.2490752000012,1101.2490752000012,2.0,19.125930599999265,1124.7451735000068,1125.7684688000008,1121.3551825000031,1121.3551825000031,1121.3551825000031,1121.3551825000031,old_sceneIn_10.png,1,4.0,3.394178299990017,,,065,01,2025-04-04_13h59.04.811,Surprise recog test,2023.1.3,59.95419499870822,
1,0,1,0,,,,,,,,,,,,,,,,,,,,,,,,,,,,,,,,,,1127.8296254000015,1128.8502474999987,1125.7684688000008,1125.7684688000008,1125.7684688000008,1125.7684688000008,new_sceneOut_13.png,2,5.0,2.061919300002046,,,065,01,2025-04-04_13h59.04.811,Surprise recog test,2023.1.3,59.95419499870822,
2,0,2,0,,,,,,,,,,,,,,,,,,,,,,,,,,,,,,,,,,1130.8935576000076,1131.9156780000048,1128.8502474999987,1128.8502474999987,1128.8502474999987,1128.8502474999987,old_fruit_31.png,3,2.0,2.037406200004625,,,065,01,2025-04-04_13h59.04.811,Surprise recog test,2023.1.3,59.95419499870822,
3,0,3,0,,,,,,,,,,,,,,,,,,,,,,,,,,,,,,,,,,1133.7347809000057,1134.7666214000055,1131.9156780000048,1131.9156780000048,1131.9156780000048,1131.9156780000048,old_fruit_18.png,4,4.0,1.8176883999985876,,,065,01,2025-04-04_13h59.04.811,Surprise recog test,2023.1.3,59.95419499870822,
4,0,4,0,,,,,,,,,,,,,,,,,,,,,,,,,,,,,,,,,,1137.878900900003,1138.9031093000085,1134.7666214000055,1134.7666214000055,1134.7666214000055,1134.7666214000055,old_fruit_22.png,5,2.0,3.113713899991126,,,065,01,2025-04-04_13h59.04.811,Surprise recog test,2023.1.3,59.95419499870822,
5,0,5,0,,,,,,,,,,,,,,,,,,,,,,,,,,,,,,,,,,1140.4457062000001,1141.4792734000075,1138.9031093000085,1138.9031093000085,1138.9031093000085,1138.9031093000085,old_stationery_34.png,6,1.0,1.545437499997206,,,065,01,2025-04-04_13h59.04.811,Surprise recog test,2023.1.3,59.95419499870822,
6,0,6,0,,,,,,,,,,,,,,,,,,,,,,,,,,,,,,,,,,1144.4218090000068,1145.4338575000002,1141.4792734000075,1141.4792734000075,1141.4792734000075,1141.4792734000075,new_sceneOut_41.png,7,4.0,2.9450959999958286,,,065,01,2025-04-04_13h59.04.811,Surprise recog test,2023.1.3,59.95419499870822,
7,0,7,0,,,,,,,,,,,,,,,,,,,,,,,,,,,,,,,,,,1147.1517840000015,1148.1763762000046,1145.4338575000002,1145.4338575000002,1145.4338575000002,1145.4338575000002,new_fruit_26.png,8,2.0,1.71703789998719,,,065,01,2025-04-04_13h59.04.811,Surprise recog test,2023.1.3,59.95419499870822,
8,0,8,0,,,,,,,,,,,,,,,,,,,,,,,,,,,,,,,,,,1152.1303834999999,,1148.1763762000046,1148.1763762000046,1148.1763762000046,1148.1763762000046,old_fruit_16.png,9,4.0,3.9563267000048654,,,065,01,2025-04-04_13h59.04.811,Surprise recog test,2023.1.3,59.95419499870822,
9,0,9,0,,,,,,,,,,,,,,,,,,,,,,,,,,,,,,,,,,1155.03904470001,1156.0670243000059,1153.1521346000081,1153.1521346000081,1153.1521346000081,1153.1521346000081,old_sceneOut_19.png,10,5.0,1.8801911000045948,,,065,01,2025-04-04_13h59.04.811,Surprise recog test,2023.1.3,59.95419499870822,
10,0,10,0,,,,,,,,,,,,,,,,,,,,,,,,,,,,,,,,,,1158.658909100006,1159.6751023000106,1156.0670243000059,1156.0670243000059,1156.0670243000059,1156.0670243000059,old_sceneIn_4.png,11,4.0,2.594412399994326,,,065,01,2025-04-04_13h59.04.811,Surprise recog test,2023.1.3,59.95419499870822,
11,0,11,0,,,,,,,,,,,,,,,,,,,,,,,,,,,,,,,,,,1161.9190301000053,1162.933583200007,1159.6751023000106,1159.6751023000106,1159.6751023000106,1159.6751023000106,old_sceneOut_31.png,12,4.0,2.2350854000105755,,,065,01,2025-04-04_13h59.04.811,Surprise recog test,2023.1.3,59.95419499870822,
12,0,12,0,,,,,,,,,,,,,,,,,,,,,,,,,,,,,,,,,,1167.391829100001,1168.4092553000082,1162.933583200007,1162.933583200007,1162.933583200007,1162.933583200007,new_sceneIn_10.png,13,2.0,4.458798599996953,,,065,01,2025-04-04_13h59.04.811,Surprise recog test,2023.1.3,59.95419499870822,
13,0,13,0,,,,,,,,,,,,,,,,,,,,,,,,,,,,,,,,,,1170.463350200007,,1168.4092553000082,1168.4092553000082,1168.4092553000082,1168.4092553000082,new_stationery_46.png,14,5.0,2.053520399989793,,,065,01,2025-04-04_13h59.04.811,Surprise recog test,2023.1.3,59.95419499870822,
14,0,14,0,,,,,,,,,,,,,,,,,,,,,,,,,,,,,,,,,,1173.373577300008,1174.3994061999983,1171.4972583000053,1171.4972583000053,1171.4972583000053,1171.4972583000053,old_stationery_33.png,15,1.0,1.877974399991217,,,065,01,2025-04-04_13h59.04.811,Surprise recog test,2023.1.3,59.95419499870822,
15,0,15,0,,,,,,,,,,,,,,,,,,,,,,,,,,,,,,,,,,1176.1444607000012,1177.162188400005,1174.3994061999983,1174.3994061999983,1174.3994061999983,1174.3994061999983,old_sceneOut_36.png,16,5.0,1.747247499995865,,,065,01,2025-04-04_13h59.04.811,Surprise recog test,2023.1.3,59.95419499870822,
16,0,16,0,,,,,,,,,,,,,,,,,,,,,,,,,,,,,,,,,,1179.3885067000083,1180.4087344,1177.162188400005,1177.162188400005,1177.162188400005,1177.162188400005,new_sceneIn_31.png,17,5.0,2.2272309999971185,,,065,01,2025-04-04_13h59.04.811,Surprise recog test,2023.1.3,59.95419499870822,
17,0,17,0,,,,,,,,,,,,,,,,,,,,,,,,,,,,,,,,,,1181.9753490000003,1182.9927497000026,1180.4087344,1180.4087344,1180.4087344,1180.4087344,new_sceneOut_30.png,18,4.0,1.5611518999940017,,,065,01,2025-04-04_13h59.04.811,Surprise recog test,2023.1.3,59.95419499870822,
18,0,18,0,,,,,,,,,,,,,,,,,,,,,,,,,,,,,,,,,,1184.873893099997,,1182.9927497000026,1182.9927497000026,1182.9927497000026,1182.9927497000026,new_sceneIn_11.png,19,4.0,1.8779070000018692,,,065,01,2025-04-04_13h59.04.811,Surprise recog test,2023.1.3,59.95419499870822,
19,0,19,0,,,,,,,,,,,,,,,,,,,,,,,,,,,,,,,,,,1187.723822,1188.741713299998,1185.9134098000068,1185.9134098000068,1185.9134098000068,1185.9134098000068,old_sceneIn_41.png,20,5.0,1.8131238999922061,,,065,01,2025-04-04_13h59.04.811,Surprise recog test,2023.1.3,59.95419499870822,
20,0,20,0,,,,,,,,,,,,,,,,,,,,,,,,,,,,,,,,,,1191.4432629000075,1192.4637511000037,1188.741713299998,1188.741713299998,1188.741713299998,1188.741713299998,new_stationery_45.png,21,4.0,2.7010554000007687,,,065,01,2025-04-04_13h59.04.811,Surprise recog test,2023.1.3,59.95419499870822,
21,0,21,0,,,,,,,,,,,,,,,,,,,,,,,,,,,,,,,,,,1195.4231049000082,1196.448128300006,1192.4637511000037,1192.4637511000037,1192.4637511000037,1192.4637511000037,new_stationery_11.png,22,3.0,2.961685500005842,,,065,01,2025-04-04_13h59.04.811,Surprise recog test,2023.1.3,59.95419499870822,
22,0,22,0,,,,,,,,,,,,,,,,,,,,,,,,,,,,,,,,,,1200.3832813000045,1201.4053109000088,1196.448128300006,1196.448128300006,1196.448128300006,1196.448128300006,old_fruit_28.png,23,3.0,3.933508800007985,,,065,01,2025-04-04_13h59.04.811,Surprise recog test,2023.1.3,59.95419499870822,
23,0,23,0,,,,,,,,,,,,,,,,,,,,,,,,,,,,,,,,,,1203.1073821000027,,1201.4053109000088,1201.4053109000088,1201.4053109000088,1201.4053109000088,old_sceneIn_2.png,24,5.0,1.7045671000087168,,,065,01,2025-04-04_13h59.04.811,Surprise recog test,2023.1.3,59.95419499870822,
24,0,24,0,,,,,,,,,,,,,,,,,,,,,,,,,,,,,,,,,,1206.1557073000004,1207.1640774999978,1204.1314786000003,1204.1314786000003,1204.1314786000003,1204.1314786000003,old_sceneIn_29.png,25,4.0,2.0209983000095235,,,065,01,2025-04-04_13h59.04.811,Surprise recog test,2023.1.3,59.95419499870822,
25,0,25,0,,,,,,,,,,,,,,,,,,,,,,,,,,,,,,,,,,1208.8944225000014,,1207.1640774999978,1207.1640774999978,1207.1640774999978,1207.1640774999978,new_fruit_11.png,26,1.0,1.724379699997371,,,065,01,2025-04-04_13h59.04.811,Surprise recog test,2023.1.3,59.95419499870822,
26,0,26,0,,,,,,,,,,,,,,,,,,,,,,,,,,,,,,,,,,1211.9439446000033,1212.9667429999972,1209.9124893999979,1209.9124893999979,1209.9124893999979,1209.9124893999979,old_fruit_24.png,27,5.0,2.0255761000007624,,,065,01,2025-04-04_13h59.04.811,Surprise recog test,2023.1.3,59.95419499870822,
27,0,27,0,,,,,,,,,,,,,,,,,,,,,,,,,,,,,,,,,,1214.7074245999975,1215.7213964999974,1212.9667429999972,1212.9667429999972,1212.9667429999972,1212.9667429999972,old_fruit_23.png,28,3.0,1.743487500003539,,,065,01,2025-04-04_13h59.04.811,Surprise recog test,2023.1.3,59.95419499870822,
28,0,28,0,,,,,,,,,,,,,,,,,,,,,,,,,,,,,,,,,,1217.3680365000037,,1215.7213964999974,1215.7213964999974,1215.7213964999974,1215.7213964999974,old_fruit_9.png,29,5.0,1.6408216999989236,,,065,01,2025-04-04_13h59.04.811,Surprise recog test,2023.1.3,59.95419499870822,
29,0,29,0,,,,,,,,,,,,,,,,,,,,,,,,,,,,,,,,,,1220.1110017000028,1221.1359718000022,1218.3917185000028,1218.3917185000028,1218.3917185000028,1218.3917185000028,old_stationery_3.png,30,5.0,1.7185583999962546,,,065,01,2025-04-04_13h59.04.811,Surprise recog test,2023.1.3,59.95419499870822,
30,0,30,0,,,,,,,,,,,,,,,,,,,,,,,,,,,,,,,,,,1222.922429600003,,1221.1359718000022,1221.1359718000022,1221.1359718000022,1221.1359718000022,old_sceneOut_45.png,31,4.0,1.7869318000011845,,,065,01,2025-04-04_13h59.04.811,Surprise recog test,2023.1.3,59.95419499870822,
31,0,31,0,,,,,,,,,,,,,,,,,,,,,,,,,,,,,,,,,,1225.938825899997,1226.9583971999964,1223.9406013999978,1223.9406013999978,1223.9406013999978,1223.9406013999978,new_fruit_36.png,32,3.0,1.9946117999934359,,,065,01,2025-04-04_13h59.04.811,Surprise recog test,2023.1.3,59.95419499870822,
32,0,32,0,,,,,,,,,,,,,,,,,,,,,,,,,,,,,,,,,,1229.0049415999965,1230.0132479000022,1226.9583971999964,1226.9583971999964,1226.9583971999964,1226.9583971999964,old_sceneOut_17.png,33,4.0,2.048505600003409,,,065,01,2025-04-04_13h59.04.811,Surprise recog test,2023.1.3,59.95419499870822,
33,0,33,0,,,,,,,,,,,,,,,,,,,,,,,,,,,,,,,,,,1231.3493572000007,1232.3782330999966,1230.0132479000022,1230.0132479000022,1230.0132479000022,1230.0132479000022,old_sceneIn_6.png,34,5.0,1.3327139000030002,,,065,01,2025-04-04_13h59.04.811,Surprise recog test,2023.1.3,59.95419499870822,
34,0,34,0,,,,,,,,,,,,,,,,,,,,,,,,,,,,,,,,,,1233.9800708999974,1235.00072180001,1232.3782330999966,1232.3782330999966,1232.3782330999966,1232.3782330999966,old_fruit_32.png,35,5.0,1.6038014000077965,,,065,01,2025-04-04_13h59.04.811,Surprise recog test,2023.1.3,59.95419499870822,
35,0,35,0,,,,,,,,,,,,,,,,,,,,,,,,,,,,,,,,,,1236.8846083000099,,1235.00072180001,1235.00072180001,1235.00072180001,1235.00072180001,new_fruit_5.png,36,3.0,1.8853106000024127,,,065,01,2025-04-04_13h59.04.811,Surprise recog test,2023.1.3,59.95419499870822,
36,0,36,0,,,,,,,,,,,,,,,,,,,,,,,,,,,,,,,,,,1239.5386083000049,1240.570619799997,1237.916191700002,1237.916191700002,1237.916191700002,1237.916191700002,new_sceneOut_22.png,37,4.0,1.62293490000593,,,065,01,2025-04-04_13h59.04.811,Surprise recog test,2023.1.3,59.95419499870822,
37,0,37,0,,,,,,,,,,,,,,,,,,,,,,,,,,,,,,,,,,1241.868955900005,1242.8777897999971,1240.570619799997,1240.570619799997,1240.570619799997,1240.570619799997,old_sceneOut_29.png,38,4.0,1.29478320000635,,,065,01,2025-04-04_13h59.04.811,Surprise recog test,2023.1.3,59.95419499870822,
38,0,38,0,,,,,,,,,,,,,,,,,,,,,,,,,,,,,,,,,,1244.1372480999999,1245.1412677000044,1242.8777897999971,1242.8777897999971,1242.8777897999971,1242.8777897999971,new_sceneIn_44.png,39,5.0,1.253873299996485,,,065,01,2025-04-04_13h59.04.811,Surprise recog test,2023.1.3,59.95419499870822,
39,0,39,0,,,,,,,,,,,,,,,,,,,,,,,,,,,,,,,,,,1247.2705429000052,1248.2870279000053,1245.1412677000044,1245.1412677000044,1245.1412677000044,1245.1412677000044,new_stationery_27.png,40,5.0,2.124806300009368,,,065,01,2025-04-04_13h59.04.811,Surprise recog test,2023.1.3,59.95419499870822,
40,0,40,0,,,,,,,,,,,,,,,,,,,,,,,,,,,,,,,,,,1250.253039400006,1251.27314260001,1248.2870279000053,1248.2870279000053,1248.2870279000053,1248.2870279000053,new_sceneIn_21.png,41,4.0,1.9665409000008367,,,065,01,2025-04-04_13h59.04.811,Surprise recog test,2023.1.3,59.95419499870822,
41,0,41,0,,,,,,,,,,,,,,,,,,,,,,,,,,,,,,,,,,1253.0258858000016,1254.0458903000108,1251.27314260001,1251.27314260001,1251.27314260001,1251.27314260001,new_stationery_2.png,42,1.0,1.752240100002382,,,065,01,2025-04-04_13h59.04.811,Surprise recog test,2023.1.3,59.95419499870822,
42,0,42,0,,,,,,,,,,,,,,,,,,,,,,,,,,,,,,,,,,1256.3886051000009,1257.4174761000031,1254.0458903000108,1254.0458903000108,1254.0458903000108,1254.0458903000108,old_sceneIn_36.png,43,5.0,2.3442892000020947,,,065,01,2025-04-04_13h59.04.811,Surprise recog test,2023.1.3,59.95419499870822,
43,0,43,0,,,,,,,,,,,,,,,,,,,,,,,,,,,,,,,,,,1258.7526058000076,,1257.4174761000031,1257.4174761000031,1257.4174761000031,1257.4174761000031,old_stationery_28.png,44,1.0,1.337438500006101,,,065,01,2025-04-04_13h59.04.811,Surprise recog test,2023.1.3,59.95419499870822,
44,0,44,0,,,,,,,,,,,,,,,,,,,,,,,,,,,,,,,,,,1261.4395708000084,,1259.7818526000046,1259.7818526000046,1259.7818526000046,1259.7818526000046,new_stationery_25.png,45,4.0,1.657845499998075,,,065,01,2025-04-04_13h59.04.811,Surprise recog test,2023.1.3,59.95419499870822,
45,0,45,0,,,,,,,,,,,,,,,,,,,,,,,,,,,,,,,,,,1264.0557397000084,,1262.4697035999998,1262.4697035999998,1262.4697035999998,1262.4697035999998,new_stationery_14.png,46,5.0,1.586945499991998,,,065,01,2025-04-04_13h59.04.811,Surprise recog test,2023.1.3,59.95419499870822,
46,0,46,0,,,,,,,,,,,,,,,,,,,,,,,,,,,,,,,,,,1266.5799722000083,1267.6030815999984,1265.0868186000007,1265.0868186000007,1265.0868186000007,1265.0868186000007,new_stationery_42.png,47,4.0,1.495062500005588,,,065,01,2025-04-04_13h59.04.811,Surprise recog test,2023.1.3,59.95419499870822,
47,0,47,0,,,,,,,,,,,,,,,,,,,,,,,,,,,,,,,,,,1269.4248848999996,1270.4329754000064,1267.6030815999984,1267.6030815999984,1267.6030815999984,1267.6030815999984,old_fruit_38.png,48,5.0,1.8204428000026383,,,065,01,2025-04-04_13h59.04.811,Surprise recog test,2023.1.3,59.95419499870822,
48,0,48,0,,,,,,,,,,,,,,,,,,,,,,,,,,,,,,,,,,1273.4678066000051,1274.4906313000101,1270.4329754000064,1270.4329754000064,1270.4329754000064,1270.4329754000064,new_fruit_48.png,49,2.0,3.0311293999984628,,,065,01,2025-04-04_13h59.04.811,Surprise recog test,2023.1.3,59.95419499870822,
49,0,49,0,,,,,,,,,,,,,,,,,,,,,,,,,,,,,,,,,,1276.2792123000108,1277.3024599000055,1274.4906313000101,1274.4906313000101,1274.4906313000101,1274.4906313000101,old_stationery_20.png,50,3.0,1.7883017999993172,,,065,01,2025-04-04_13h59.04.811,Surprise recog test,2023.1.3,59.95419499870822,
50,0,50,0,,,,,,,,,,,,,,,,,,,,,,,,,,,,,,,,,,1278.7050143000088,1279.7358916000085,1277.3024599000055,1277.3024599000055,1277.3024599000055,1277.3024599000055,old_sceneIn_16.png,51,4.0,1.4025353000033647,,,065,01,2025-04-04_13h59.04.811,Surprise recog test,2023.1.3,59.95419499870822,
51,0,51,0,,,,,,,,,,,,,,,,,,,,,,,,,,,,,,,,,,1281.455387000009,,1279.7358916000085,1279.7358916000085,1279.7358916000085,1279.7358916000085,new_stationery_41.png,52,5.0,1.72121820000757,,,065,01,2025-04-04_13h59.04.811,Surprise recog test,2023.1.3,59.95419499870822,
52,0,52,0,,,,,,,,,,,,,,,,,,,,,,,,,,,,,,,,,,1284.9211760000035,1285.925833900008,1282.4877471000073,1282.4877471000073,1282.4877471000073,1282.4877471000073,new_fruit_34.png,53,3.0,2.430529799996293,,,065,01,2025-04-04_13h59.04.811,Surprise recog test,2023.1.3,59.95419499870822,
53,0,53,0,,,,,,,,,,,,,,,,,,,,,,,,,,,,,,,,,,1287.4642340999999,1288.480878900009,1285.925833900008,1285.925833900008,1285.925833900008,1285.925833900008,new_sceneOut_8.png,54,4.0,1.5334482999896863,,,065,01,2025-04-04_13h59.04.811,Surprise recog test,2023.1.3,59.95419499870822,
54,0,54,0,,,,,,,,,,,,,,,,,,,,,,,,,,,,,,,,,,1290.3274604000035,,1288.480878900009,1288.480878900009,1288.480878900009,1288.480878900009,old_sceneIn_7.png,55,5.0,1.8415084000007482,,,065,01,2025-04-04_13h59.04.811,Surprise recog test,2023.1.3,59.95419499870822,
55,0,55,0,,,,,,,,,,,,,,,,,,,,,,,,,,,,,,,,,,1292.7767306000023,1293.7974315000029,1291.3605634999985,1291.3605634999985,1291.3605634999985,1291.3605634999985,new_sceneOut_48.png,56,4.0,1.4182944000058342,,,065,01,2025-04-04_13h59.04.811,Surprise recog test,2023.1.3,59.95419499870822,
56,0,56,0,,,,,,,,,,,,,,,,,,,,,,,,,,,,,,,,,,1296.2872630000056,1297.3128189999989,1293.7974315000029,1293.7974315000029,1293.7974315000029,1293.7974315000029,old_fruit_29.png,57,2.0,2.4922369999985676,,,065,01,2025-04-04_13h59.04.811,Surprise recog test,2023.1.3,59.95419499870822,
57,0,57,0,,,,,,,,,,,,,,,,,,,,,,,,,,,,,,,,,,1298.9217873000016,1299.9412980000052,1297.3128189999989,1297.3128189999989,1297.3128189999989,1297.3128189999989,new_fruit_6.png,58,3.0,1.611655200002133,,,065,01,2025-04-04_13h59.04.811,Surprise recog test,2023.1.3,59.95419499870822,
58,0,58,0,,,,,,,,,,,,,,,,,,,,,,,,,,,,,,,,,,1301.518268300002,1302.5350417000009,1299.9412980000052,1299.9412980000052,1299.9412980000052,1299.9412980000052,new_sceneOut_26.png,59,5.0,1.5662781999999424,,,065,01,2025-04-04_13h59.04.811,Surprise recog test,2023.1.3,59.95419499870822,
59,0,59,0,,,,,,,,,,,,,,,,,,,,,,,,,,,,,,,,,,1303.7035595000052,1304.718510400009,1302.5350417000009,1302.5350417000009,1302.5350417000009,1302.5350417000009,old_sceneOut_34.png,60,5.0,1.1693694999994477,,,065,01,2025-04-04_13h59.04.811,Surprise recog test,2023.1.3,59.95419499870822,
60,0,60,0,,,,,,,,,,,,,,,,,,,,,,,,,,,,,,,,,,1306.5988078000082,1307.6244357999967,1304.718510400009,1304.718510400009,1304.718510400009,1304.718510400009,old_fruit_15.png,61,4.0,1.8817093999969075,,,065,01,2025-04-04_13h59.04.811,Surprise recog test,2023.1.3,59.95419499870822,
61,0,61,0,,,,,,,,,,,,,,,,,,,,,,,,,,,,,,,,,,1309.7364701000042,1310.7526118000096,1307.6244357999967,1307.6244357999967,1307.6244357999967,1307.6244357999967,new_stationery_24.png,62,3.0,2.1122245000005933,,,065,01,2025-04-04_13h59.04.811,Surprise recog test,2023.1.3,59.95419499870822,
62,0,62,0,,,,,,,,,,,,,,,,,,,,,,,,,,,,,,,,,,1312.8247534999973,1313.8460668000043,1310.7526118000096,1310.7526118000096,1310.7526118000096,1310.7526118000096,new_sceneOut_25.png,63,5.0,2.071624200005317,,,065,01,2025-04-04_13h59.04.811,Surprise recog test,2023.1.3,59.95419499870822,
63,0,63,0,,,,,,,,,,,,,,,,,,,,,,,,,,,,,,,,,,1315.8603685999988,1316.8718473000044,1313.8460668000043,1313.8460668000043,1313.8460668000043,1313.8460668000043,new_stationery_15.png,64,3.0,2.012008200006676,,,065,01,2025-04-04_13h59.04.811,Surprise recog test,2023.1.3,59.95419499870822,
64,0,64,0,,,,,,,,,,,,,,,,,,,,,,,,,,,,,,,,,,1319.1431364000018,1320.1587373000075,1316.8718473000044,1316.8718473000044,1316.8718473000044,1316.8718473000044,new_sceneIn_40.png,65,5.0,2.2673956000071485,,,065,01,2025-04-04_13h59.04.811,Surprise recog test,2023.1.3,59.95419499870822,
65,0,65,0,,,,,,,,,,,,,,,,,,,,,,,,,,,,,,,,,,1322.3305697000033,1323.3567075000028,1320.1587373000075,1320.1587373000075,1320.1587373000075,1320.1587373000075,old_sceneOut_40.png,66,4.0,2.1653466999996454,,,065,01,2025-04-04_13h59.04.811,Surprise recog test,2023.1.3,59.95419499870822,
66,0,66,0,,,,,,,,,,,,,,,,,,,,,,,,,,,,,,,,,,1325.039807100009,,1323.3567075000028,1323.3567075000028,1323.3567075000028,1323.3567075000028,new_sceneIn_47.png,67,4.0,1.6858827999967616,,,065,01,2025-04-04_13h59.04.811,Surprise recog test,2023.1.3,59.95419499870822,
67,0,67,0,,,,,,,,,,,,,,,,,,,,,,,,,,,,,,,,,,1327.6848144000105,1328.7118820000032,1326.0779570000013,1326.0779570000013,1326.0779570000013,1326.0779570000013,old_sceneOut_33.png,68,4.0,1.6110162999975728,,,065,01,2025-04-04_13h59.04.811,Surprise recog test,2023.1.3,59.95419499870822,
68,0,68,0,,,,,,,,,,,,,,,,,,,,,,,,,,,,,,,,,,1330.511378299998,,1328.7118820000032,1328.7118820000032,1328.7118820000032,1328.7118820000032,old_sceneIn_45.png,69,4.0,1.80048559998977,,,065,01,2025-04-04_13h59.04.811,Surprise recog test,2023.1.3,59.95419499870822,
69,0,69,0,,,,,,,,,,,,,,,,,,,,,,,,,,,,,,,,,,1334.9981898999977,,1331.5531525999977,1331.5531525999977,1331.5531525999977,1331.5531525999977,old_sceneIn_44.png,70,4.0,3.4483459999901243,,,065,01,2025-04-04_13h59.04.811,Surprise recog test,2023.1.3,59.95419499870822,
70,0,70,0,,,,,,,,,,,,,,,,,,,,,,,,,,,,,,,,,,1338.2283631000028,1339.2511706000078,1336.0337048000074,1336.0337048000074,1336.0337048000074,1336.0337048000074,new_sceneOut_33.png,71,4.0,2.196342499999446,,,065,01,2025-04-04_13h59.04.811,Surprise recog test,2023.1.3,59.95419499870822,
71,0,71,0,,,,,,,,,,,,,,,,,,,,,,,,,,,,,,,,,,1340.8987890999997,1341.9154387000017,1339.2511706000078,1339.2511706000078,1339.2511706000078,1339.2511706000078,new_stationery_19.png,72,5.0,1.6489200000069104,,,065,01,2025-04-04_13h59.04.811,Surprise recog test,2023.1.3,59.95419499870822,
72,0,72,0,,,,,,,,,,,,,,,,,,,,,,,,,,,,,,,,,,1343.4061461000092,,1341.9154387000017,1341.9154387000017,1341.9154387000017,1341.9154387000017,new_sceneIn_28.png,73,5.0,1.4917299000080675,,,065,01,2025-04-04_13h59.04.811,Surprise recog test,2023.1.3,59.95419499870822,
73,0,73,0,,,,,,,,,,,,,,,,,,,,,,,,,,,,,,,,,,1346.2193578000006,1347.2441038999968,1344.4386306000088,1344.4386306000088,1344.4386306000088,1344.4386306000088,old_fruit_41.png,74,5.0,1.780343799997354,,,065,01,2025-04-04_13h59.04.811,Surprise recog test,2023.1.3,59.95419499870822,
74,0,74,0,,,,,,,,,,,,,,,,,,,,,,,,,,,,,,,,,,1350.5191434000008,1351.5465331000014,1347.2441038999968,1347.2441038999968,1347.2441038999968,1347.2441038999968,new_fruit_35.png,75,3.0,3.27860679999867,,,065,01,2025-04-04_13h59.04.811,Surprise recog test,2023.1.3,59.95419499870822,
75,0,75,0,,,,,,,,,,,,,,,,,,,,,,,,,,,,,,,,,,1352.8043907000101,1353.827293800001,1351.5465331000014,1351.5465331000014,1351.5465331000014,1351.5465331000014,old_sceneOut_49.png,76,5.0,1.2581720000016503,,,065,01,2025-04-04_13h59.04.811,Surprise recog test,2023.1.3,59.95419499870822,
76,0,76,0,,,,,,,,,,,,,,,,,,,,,,,,,,,,,,,,,,1355.7821160000021,,1353.827293800001,1353.827293800001,1353.827293800001,1353.827293800001,new_stationery_33.png,77,5.0,1.9571526000072481,,,065,01,2025-04-04_13h59.04.811,Surprise recog test,2023.1.3,59.95419499870822,
77,0,77,0,,,,,,,,,,,,,,,,,,,,,,,,,,,,,,,,,,1358.7396788000042,1359.7539545000036,1356.8100186000083,1356.8100186000083,1356.8100186000083,1356.8100186000083,old_fruit_43.png,78,4.0,1.9295498999999836,,,065,01,2025-04-04_13h59.04.811,Surprise recog test,2023.1.3,59.95419499870822,
78,0,78,0,,,,,,,,,,,,,,,,,,,,,,,,,,,,,,,,,,1361.4533043999982,1362.459743600004,1359.7539545000036,1359.7539545000036,1359.7539545000036,1359.7539545000036,new_sceneOut_21.png,79,5.0,1.694677400009823,,,065,01,2025-04-04_13h59.04.811,Surprise recog test,2023.1.3,59.95419499870822,
79,0,79,0,,,,,,,,,,,,,,,,,,,,,,,,,,,,,,,,,,1363.709333100007,1364.733793899999,1362.459743600004,1362.459743600004,1362.459743600004,1362.459743600004,new_sceneIn_6.png,80,5.0,1.2454716000065673,,,065,01,2025-04-04_13h59.04.811,Surprise recog test,2023.1.3,59.95419499870822,
80,0,80,0,,,,,,,,,,,,,,,,,,,,,,,,,,,,,,,,,,1366.2052675000014,1367.212750400009,1364.733793899999,1364.733793899999,1364.733793899999,1364.733793899999,old_sceneOut_43.png,81,4.0,1.4658160999970278,,,065,01,2025-04-04_13h59.04.811,Surprise recog test,2023.1.3,59.95419499870822,
81,0,81,0,,,,,,,,,,,,,,,,,,,,,,,,,,,,,,,,,,1369.9008873999992,1370.924125400008,1367.212750400009,1367.212750400009,1367.212750400009,1367.212750400009,old_sceneOut_21.png,82,4.0,2.6845155999908457,,,065,01,2025-04-04_13h59.04.811,Surprise recog test,2023.1.3,59.95419499870822,
82,0,82,0,,,,,,,,,,,,,,,,,,,,,,,,,,,,,,,,,,1372.3012181000086,1373.3195467000041,1370.924125400008,1370.924125400008,1370.924125400008,1370.924125400008,new_sceneOut_34.png,83,4.0,1.3771067999914521,,,065,01,2025-04-04_13h59.04.811,Surprise recog test,2023.1.3,59.95419499870822,
83,0,83,0,,,,,,,,,,,,,,,,,,,,,,,,,,,,,,,,,,1375.0703641,1376.101255200003,1373.3195467000041,1373.3195467000041,1373.3195467000041,1373.3195467000041,old_stationery_5.png,84,3.0,1.749214600000414,,,065,01,2025-04-04_13h59.04.811,Surprise recog test,2023.1.3,59.95419499870822,
84,0,84,0,,,,,,,,,,,,,,,,,,,,,,,,,,,,,,,,,,1378.0798383000074,1379.08655990001,1376.101255200003,1376.101255200003,1376.101255200003,1376.101255200003,old_sceneIn_40.png,85,5.0,1.9813643999950727,,,065,01,2025-04-04_13h59.04.811,Surprise recog test,2023.1.3,59.95419499870822,
85,0,85,0,,,,,,,,,,,,,,,,,,,,,,,,,,,,,,,,,,1381.0618817000068,1382.0761830999982,1379.08655990001,1379.08655990001,1379.08655990001,1379.08655990001,old_fruit_7.png,86,1.0,1.9696547000057762,,,065,01,2025-04-04_13h59.04.811,Surprise recog test,2023.1.3,59.95419499870822,
86,0,86,0,,,,,,,,,,,,,,,,,,,,,,,,,,,,,,,,,,1383.5986468000046,1384.6076673000061,1382.0761830999982,1382.0761830999982,1382.0761830999982,1382.0761830999982,new_sceneOut_38.png,87,5.0,1.5165017999970587,,,065,01,2025-04-04_13h59.04.811,Surprise recog test,2023.1.3,59.95419499870822,
87,0,87,0,,,,,,,,,,,,,,,,,,,,,,,,,,,,,,,,,,1387.8672118000104,1388.8907047999965,1384.6076673000061,1384.6076673000061,1384.6076673000061,1384.6076673000061,new_fruit_9.png,88,3.0,3.253516099997796,,,065,01,2025-04-04_13h59.04.811,Surprise recog test,2023.1.3,59.95419499870822,
88,0,88,0,,,,,,,,,,,,,,,,,,,,,,,,,,,,,,,,,,1390.3635110000032,1391.3981760000024,1388.8907047999965,1388.8907047999965,1388.8907047999965,1388.8907047999965,old_sceneIn_3.png,89,5.0,1.4750361000042176,,,065,01,2025-04-04_13h59.04.811,Surprise recog test,2023.1.3,59.95419499870822,
89,0,89,0,,,,,,,,,,,,,,,,,,,,,,,,,,,,,,,,,,1393.0656102000066,,1391.3981760000024,1391.3981760000024,1391.3981760000024,1391.3981760000024,new_sceneIn_49.png,90,4.0,1.6682109999965178,,,065,01,2025-04-04_13h59.04.811,Surprise recog test,2023.1.3,59.95419499870822,
90,0,90,0,,,,,,,,,,,,,,,,,,,,,,,,,,,,,,,,,,1397.2996946000058,,1394.0980890000064,1394.0980890000064,1394.0980890000064,1394.0980890000064,new_sceneIn_42.png,91,3.0,3.2016514999995707,,,065,01,2025-04-04_13h59.04.811,Surprise recog test,2023.1.3,59.95419499870822,
91,0,91,0,,,,,,,,,,,,,,,,,,,,,,,,,,,,,,,,,,1399.3895006000093,1400.4078299999965,1398.3330941000022,1398.3330941000022,1398.3330941000022,1398.3330941000022,old_sceneOut_6.png,92,5.0,1.0588718000071822,,,065,01,2025-04-04_13h59.04.811,Surprise recog test,2023.1.3,59.95419499870822,
92,0,92,0,,,,,,,,,,,,,,,,,,,,,,,,,,,,,,,,,,1402.1453048999974,1403.158506599997,1400.4078299999965,1400.4078299999965,1400.4078299999965,1400.4078299999965,new_fruit_29.png,93,4.0,1.7335874999989755,,,065,01,2025-04-04_13h59.04.811,Surprise recog test,2023.1.3,59.95419499870822,
93,0,93,0,,,,,,,,,,,,,,,,,,,,,,,,,,,,,,,,,,1404.450492700009,1405.478644200004,1403.158506599997,1403.158506599997,1403.158506599997,1403.158506599997,new_sceneOut_20.png,94,4.0,1.2892317999940133,,,065,01,2025-04-04_13h59.04.811,Surprise recog test,2023.1.3,59.95419499870822,
94,0,94,0,,,,,,,,,,,,,,,,,,,,,,,,,,,,,,,,,,1408.0403819000057,1409.062133600004,1405.478644200004,1405.478644200004,1405.478644200004,1405.478644200004,old_stationery_11.png,95,3.0,2.5632195999933174,,,065,01,2025-04-04_13h59.04.811,Surprise recog test,2023.1.3,59.95419499870822,
95,0,95,0,,,,,,,,,,,,,,,,,,,,,,,,,,,,,,,,,,1410.6299135000008,1411.6504887000046,1409.062133600004,1409.062133600004,1409.062133600004,1409.062133600004,old_sceneIn_26.png,96,5.0,1.570713800014346,,,065,01,2025-04-04_13h59.04.811,Surprise recog test,2023.1.3,59.95419499870822,
96,0,96,0,,,,,,,,,,,,,,,,,,,,,,,,,,,,,,,,,,1413.4715957000008,1414.4903726000048,1411.6504887000046,1411.6504887000046,1411.6504887000046,1411.6504887000046,new_fruit_20.png,97,5.0,1.8186033999954816,,,065,01,2025-04-04_13h59.04.811,Surprise recog test,2023.1.3,59.95419499870822,
97,0,97,0,,,,,,,,,,,,,,,,,,,,,,,,,,,,,,,,,,1415.844472900004,1416.853053400002,1414.4903726000048,1414.4903726000048,1414.4903726000048,1414.4903726000048,old_sceneOut_5.png,98,4.0,1.3520822999998927,,,065,01,2025-04-04_13h59.04.811,Surprise recog test,2023.1.3,59.95419499870822,
98,0,98,0,,,,,,,,,,,,,,,,,,,,,,,,,,,,,,,,,,1418.663151300003,1419.680198800008,1416.853053400002,1416.853053400002,1416.853053400002,1416.853053400002,new_fruit_30.png,99,4.0,1.805362300001434,,,065,01,2025-04-04_13h59.04.811,Surprise recog test,2023.1.3,59.95419499870822,
99,0,99,0,,,,,,,,,,,,,,,,,,,,,,,,,,,,,,,,,,1421.092940100003,1422.1143103000068,1419.680198800008,1419.680198800008,1419.680198800008,1419.680198800008,new_stationery_31.png,100,4.0,1.4139203000086127,,,065,01,2025-04-04_13h59.04.811,Surprise recog test,2023.1.3,59.95419499870822,
100,0,100,0,,,,,,,,,,,,,,,,,,,,,,,,,,,,,,,,,,1423.6817020000017,1424.7013429000071,1422.1143103000068,1422.1143103000068,1422.1143103000068,1422.1143103000068,old_fruit_19.png,101,5.0,1.5685467000002973,,,065,01,2025-04-04_13h59.04.811,Surprise recog test,2023.1.3,59.95419499870822,
101,0,101,0,,,,,,,,,,,,,,,,,,,,,,,,,,,,,,,,,,1426.5137950000062,1427.5324669999973,1424.7013429000071,1424.7013429000071,1424.7013429000071,1424.7013429000071,old_fruit_2.png,102,3.0,1.813540799994371,,,065,01,2025-04-04_13h59.04.811,Surprise recog test,2023.1.3,59.95419499870822,
102,0,102,0,,,,,,,,,,,,,,,,,,,,,,,,,,,,,,,,,,1429.2575722000038,1430.2783931000013,1427.5324669999973,1427.5324669999973,1427.5324669999973,1427.5324669999973,new_fruit_47.png,103,5.0,1.7226485999999568,,,065,01,2025-04-04_13h59.04.811,Surprise recog test,2023.1.3,59.95419499870822,
103,0,103,0,,,,,,,,,,,,,,,,,,,,,,,,,,,,,,,,,,1431.509430799997,1432.5291572999995,1430.2783931000013,1430.2783931000013,1430.2783931000013,1430.2783931000013,old_sceneOut_12.png,104,4.0,1.2280121999938274,,,065,01,2025-04-04_13h59.04.811,Surprise recog test,2023.1.3,59.95419499870822,
104,0,104,0,,,,,,,,,,,,,,,,,,,,,,,,,,,,,,,,,,1434.623109200009,1435.6482531000074,1432.5291572999995,1432.5291572999995,1432.5291572999995,1432.5291572999995,new_sceneIn_5.png,105,5.0,2.094852499998524,,,065,01,2025-04-04_13h59.04.811,Surprise recog test,2023.1.3,59.95419499870822,
105,0,105,0,,,,,,,,,,,,,,,,,,,,,,,,,,,,,,,,,,1436.629691299997,1437.650997100005,1435.6482531000074,1435.6482531000074,1435.6482531000074,1435.6482531000074,old_sceneIn_35.png,106,5.0,0.9830763999925693,,,065,01,2025-04-04_13h59.04.811,Surprise recog test,2023.1.3,59.95419499870822,
106,0,106,0,,,,,,,,,,,,,,,,,,,,,,,,,,,,,,,,,,1440.8906813000067,1441.9208171000064,1437.650997100005,1437.650997100005,1437.650997100005,1437.650997100005,new_stationery_4.png,107,2.0,3.2415152000030503,,,065,01,2025-04-04_13h59.04.811,Surprise recog test,2023.1.3,59.95419499870822,
107,0,107,0,,,,,,,,,,,,,,,,,,,,,,,,,,,,,,,,,,1443.4698727000068,1444.489813200009,1441.9208171000064,1441.9208171000064,1441.9208171000064,1441.9208171000064,old_sceneOut_44.png,108,5.0,1.5499366000003647,,,065,01,2025-04-04_13h59.04.811,Surprise recog test,2023.1.3,59.95419499870822,
108,0,108,0,,,,,,,,,,,,,,,,,,,,,,,,,,,,,,,,,,1447.9312064999976,1448.9540558000008,1444.489813200009,1444.489813200009,1444.489813200009,1444.489813200009,new_stationery_17.png,109,3.0,3.4429359000059776,,,065,01,2025-04-04_13h59.04.811,Surprise recog test,2023.1.3,59.95419499870822,
109,0,109,0,,,,,,,,,,,,,,,,,,,,,,,,,,,,,,,,,,1450.2439631000016,,1448.9540558000008,1448.9540558000008,1448.9540558000008,1448.9540558000008,old_sceneOut_39.png,110,5.0,1.2909723000047961,,,065,01,2025-04-04_13h59.04.811,Surprise recog test,2023.1.3,59.95419499870822,
110,0,110,0,,,,,,,,,,,,,,,,,,,,,,,,,,,,,,,,,,1452.7437808000104,1453.7521878999978,1451.2751772000047,1451.2751772000047,1451.2751772000047,1451.2751772000047,old_stationery_50.png,111,1.0,1.4624093000020366,,,065,01,2025-04-04_13h59.04.811,Surprise recog test,2023.1.3,59.95419499870822,
111,0,111,0,,,,,,,,,,,,,,,,,,,,,,,,,,,,,,,,,,1454.952077599999,1455.9786955000018,1453.7521878999978,1453.7521878999978,1453.7521878999978,1453.7521878999978,new_sceneIn_2.png,112,5.0,1.195866299996851,,,065,01,2025-04-04_13h59.04.811,Surprise recog test,2023.1.3,59.95419499870822,
112,0,112,0,,,,,,,,,,,,,,,,,,,,,,,,,,,,,,,,,,1457.2823827999964,1458.2990684000106,1455.9786955000018,1455.9786955000018,1455.9786955000018,1455.9786955000018,old_stationery_26.png,113,1.0,1.303198200010229,,,065,01,2025-04-04_13h59.04.811,Surprise recog test,2023.1.3,59.95419499870822,
113,0,113,0,,,,,,,,,,,,,,,,,,,,,,,,,,,,,,,,,,1459.3639240000048,1460.374074300009,1458.2990684000106,1458.2990684000106,1458.2990684000106,1458.2990684000106,old_sceneOut_24.png,114,5.0,1.0658986999915214,,,065,01,2025-04-04_13h59.04.811,Surprise recog test,2023.1.3,59.95419499870822,
114,0,114,0,,,,,,,,,,,,,,,,,,,,,,,,,,,,,,,,,,1463.3206376000016,1464.336345100004,1460.374074300009,1460.374074300009,1460.374074300009,1460.374074300009,old_sceneIn_1.png,115,4.0,2.942098100000294,,,065,01,2025-04-04_13h59.04.811,Surprise recog test,2023.1.3,59.95419499870822,
115,0,115,0,,,,,,,,,,,,,,,,,,,,,,,,,,,,,,,,,,1465.4375035999983,1466.4566257999977,1464.336345100004,1464.336345100004,1464.336345100004,1464.336345100004,old_sceneIn_11.png,116,5.0,1.0962914999981876,,,065,01,2025-04-04_13h59.04.811,Surprise recog test,2023.1.3,59.95419499870822,
116,0,116,0,,,,,,,,,,,,,,,,,,,,,,,,,,,,,,,,,,1467.6158163000073,1468.6400620000059,1466.4566257999977,1466.4566257999977,1466.4566257999977,1466.4566257999977,old_sceneIn_19.png,117,5.0,1.1602849999908358,,,065,01,2025-04-04_13h59.04.811,Surprise recog test,2023.1.3,59.95419499870822,
117,0,117,0,,,,,,,,,,,,,,,,,,,,,,,,,,,,,,,,,,1469.6078322000103,1470.6355394999991,1468.6400620000059,1468.6400620000059,1468.6400620000059,1468.6400620000059,old_sceneOut_2.png,118,5.0,0.9653863999992609,,,065,01,2025-04-04_13h59.04.811,Surprise recog test,2023.1.3,59.95419499870822,
118,0,118,0,,,,,,,,,,,,,,,,,,,,,,,,,,,,,,,,,,1472.0670779000066,1473.0901886000065,1470.6355394999991,1470.6355394999991,1470.6355394999991,1470.6355394999991,old_fruit_36.png,119,3.0,1.435388800004148,,,065,01,2025-04-04_13h59.04.811,Surprise recog test,2023.1.3,59.95419499870822,
119,0,119,0,,,,,,,,,,,,,,,,,,,,,,,,,,,,,,,,,,1474.7512772000046,1475.770615100002,1473.0901886000065,1473.0901886000065,1473.0901886000065,1473.0901886000065,old_stationery_22.png,120,1.0,1.6627511999977287,,,065,01,2025-04-04_13h59.04.811,Surprise recog test,2023.1.3,59.95419499870822,
120,0,120,0,,,,,,,,,,,,,,,,,,,,,,,,,,,,,,,,,,1477.4394118000055,1478.4758467000065,1475.770615100002,1475.770615100002,1475.770615100002,1475.770615100002,new_stationery_5.png,121,5.0,1.664220100006787,,,065,01,2025-04-04_13h59.04.811,Surprise recog test,2023.1.3,59.95419499870822,
121,0,121,0,,,,,,,,,,,,,,,,,,,,,,,,,,,,,,,,,,1479.9602146000107,1480.988229900002,1478.4758467000065,1478.4758467000065,1478.4758467000065,1478.4758467000065,old_stationery_47.png,122,1.0,1.486405300005572,,,065,01,2025-04-04_13h59.04.811,Surprise recog test,2023.1.3,59.95419499870822,
122,0,122,0,,,,,,,,,,,,,,,,,,,,,,,,,,,,,,,,,,1483.2410933000065,1484.2731821000052,1480.988229900002,1480.988229900002,1480.988229900002,1480.988229900002,new_fruit_23.png,123,3.0,2.254052300006151,,,065,01,2025-04-04_13h59.04.811,Surprise recog test,2023.1.3,59.95419499870822,
123,0,123,0,,,,,,,,,,,,,,,,,,,,,,,,,,,,,,,,,,1485.472411900002,1486.4770111000107,1484.2731821000052,1484.2731821000052,1484.2731821000052,1484.2731821000052,new_sceneOut_47.png,124,5.0,1.201995600000373,,,065,01,2025-04-04_13h59.04.811,Surprise recog test,2023.1.3,59.95419499870822,
124,0,124,0,,,,,,,,,,,,,,,,,,,,,,,,,,,,,,,,,,1488.1506826999976,1489.1775473000016,1486.4770111000107,1486.4770111000107,1486.4770111000107,1486.4770111000107,old_fruit_5.png,125,4.0,1.6709091999946395,,,065,01,2025-04-04_13h59.04.811,Surprise recog test,2023.1.3,59.95419499870822,
125,0,125,0,,,,,,,,,,,,,,,,,,,,,,,,,,,,,,,,,,1490.3687038000062,1491.3934988999972,1489.1775473000016,1489.1775473000016,1489.1775473000016,1489.1775473000016,new_fruit_42.png,126,4.0,1.1938226000056602,,,065,01,2025-04-04_13h59.04.811,Surprise recog test,2023.1.3,59.95419499870822,
126,0,126,0,,,,,,,,,,,,,,,,,,,,,,,,,,,,,,,,,,1492.917939699997,1493.9415771000058,1491.3934988999972,1491.3934988999972,1491.3934988999972,1491.3934988999972,new_sceneOut_24.png,127,4.0,1.5242555000004359,,,065,01,2025-04-04_13h59.04.811,Surprise recog test,2023.1.3,59.95419499870822,
127,0,127,0,,,,,,,,,,,,,,,,,,,,,,,,,,,,,,,,,,1495.1307668000081,1496.1494348999986,1493.9415771000058,1493.9415771000058,1493.9415771000058,1493.9415771000058,new_sceneOut_15.png,128,4.0,1.190563199997996,,,065,01,2025-04-04_13h59.04.811,Surprise recog test,2023.1.3,59.95419499870822,
128,0,128,0,,,,,,,,,,,,,,,,,,,,,,,,,,,,,,,,,,1497.7331646000093,,1496.1494348999986,1496.1494348999986,1496.1494348999986,1496.1494348999986,old_sceneOut_9.png,129,5.0,1.584447999994154,,,065,01,2025-04-04_13h59.04.811,Surprise recog test,2023.1.3,59.95419499870822,
129,0,129,0,,,,,,,,,,,,,,,,,,,,,,,,,,,,,,,,,,1500.003208299997,,1498.7683396000066,1498.7683396000066,1498.7683396000066,1498.7683396000066,old_fruit_8.png,130,3.0,1.2379791999992449,,,065,01,2025-04-04_13h59.04.811,Surprise recog test,2023.1.3,59.95419499870822,
130,0,130,0,,,,,,,,,,,,,,,,,,,,,,,,,,,,,,,,,,1502.9019779000082,1503.912280000004,1501.0401557000005,1501.0401557000005,1501.0401557000005,1501.0401557000005,old_fruit_1.png,131,5.0,1.859081899994635,,,065,01,2025-04-04_13h59.04.811,Surprise recog test,2023.1.3,59.95419499870822,
131,0,131,0,,,,,,,,,,,,,,,,,,,,,,,,,,,,,,,,,,1506.147380800001,1507.1630579000048,1503.912280000004,1503.912280000004,1503.912280000004,1503.912280000004,new_stationery_7.png,132,4.0,2.2312234999990324,,,065,01,2025-04-04_13h59.04.811,Surprise recog test,2023.1.3,59.95419499870822,
132,0,132,0,,,,,,,,,,,,,,,,,,,,,,,,,,,,,,,,,,1508.7026106999983,1509.7244697999995,1507.1630579000048,1507.1630579000048,1507.1630579000048,1507.1630579000048,old_stationery_21.png,133,1.0,1.5341402999911224,,,065,01,2025-04-04_13h59.04.811,Surprise recog test,2023.1.3,59.95419499870822,
133,0,133,0,,,,,,,,,,,,,,,,,,,,,,,,,,,,,,,,,,1511.6607339000038,1512.6637634000072,1509.7244697999995,1509.7244697999995,1509.7244697999995,1509.7244697999995,old_fruit_46.png,134,4.0,1.937280499987537,,,065,01,2025-04-04_13h59.04.811,Surprise recog test,2023.1.3,59.95419499870822,
134,0,134,0,,,,,,,,,,,,,,,,,,,,,,,,,,,,,,,,,,1514.0145773999975,,1512.6637634000072,1512.6637634000072,1512.6637634000072,1512.6637634000072,old_sceneIn_46.png,135,5.0,1.3460710999934236,,,065,01,2025-04-04_13h59.04.811,Surprise recog test,2023.1.3,59.95419499870822,
135,0,135,0,,,,,,,,,,,,,,,,,,,,,,,,,,,,,,,,,,1517.9189304000029,,1515.0357261000026,1515.0357261000026,1515.0357261000026,1515.0357261000026,old_fruit_45.png,136,4.0,2.876571100001456,,,065,01,2025-04-04_13h59.04.811,Surprise recog test,2023.1.3,59.95419499870822,
136,0,136,0,,,,,,,,,,,,,,,,,,,,,,,,,,,,,,,,,,1520.0709914000035,1521.0917740000004,1518.9518705000082,1518.9518705000082,1518.9518705000082,1518.9518705000082,new_sceneIn_29.png,137,5.0,1.1220448999956716,,,065,01,2025-04-04_13h59.04.811,Surprise recog test,2023.1.3,59.95419499870822,
137,0,137,0,,,,,,,,,,,,,,,,,,,,,,,,,,,,,,,,,,1522.3766795999982,1523.3953717999975,1521.0917740000004,1521.0917740000004,1521.0917740000004,1521.0917740000004,new_stationery_3.png,138,4.0,1.281121100008022,,,065,01,2025-04-04_13h59.04.811,Surprise recog test,2023.1.3,59.95419499870822,
138,0,138,0,,,,,,,,,,,,,,,,,,,,,,,,,,,,,,,,,,1524.9263141999982,1525.9573781000072,1523.3953717999975,1523.3953717999975,1523.3953717999975,1523.3953717999975,old_stationery_1.png,139,1.0,1.528077300012228,,,065,01,2025-04-04_13h59.04.811,Surprise recog test,2023.1.3,59.95419499870822,
139,0,139,0,,,,,,,,,,,,,,,,,,,,,,,,,,,,,,,,,,1527.4715800999984,1528.4771945999964,1525.9573781000072,1525.9573781000072,1525.9573781000072,1525.9573781000072,old_stationery_8.png,140,1.0,1.5156590999977197,,,065,01,2025-04-04_13h59.04.811,Surprise recog test,2023.1.3,59.95419499870822,
140,0,140,0,,,,,,,,,,,,,,,,,,,,,,,,,,,,,,,,,,1532.128642399999,,1528.4771945999964,1528.4771945999964,1528.4771945999964,1528.4771945999964,old_fruit_13.png,141,4.0,3.6455072999960976,,,065,01,2025-04-04_13h59.04.811,Surprise recog test,2023.1.3,59.95419499870822,
141,0,141,0,,,,,,,,,,,,,,,,,,,,,,,,,,,,,,,,,,1534.34235050001,1535.3668745000032,1533.1643970000005,1533.1643970000005,1533.1643970000005,1533.1643970000005,new_sceneIn_14.png,142,5.0,1.1802791000081925,,,065,01,2025-04-04_13h59.04.811,Surprise recog test,2023.1.3,59.95419499870822,
142,0,142,0,,,,,,,,,,,,,,,,,,,,,,,,,,,,,,,,,,1536.934087600006,,1535.3668745000032,1535.3668745000032,1535.3668745000032,1535.3668745000032,new_fruit_22.png,143,5.0,1.5701913999946555,,,065,01,2025-04-04_13h59.04.811,Surprise recog test,2023.1.3,59.95419499870822,
143,0,143,0,,,,,,,,,,,,,,,,,,,,,,,,,,,,,,,,,,1539.2166659000068,1540.2235212000087,1537.9662709999975,1537.9662709999975,1537.9662709999975,1537.9662709999975,new_stationery_36.png,144,5.0,1.2526176999963354,,,065,01,2025-04-04_13h59.04.811,Surprise recog test,2023.1.3,59.95419499870822,
144,0,144,0,,,,,,,,,,,,,,,,,,,,,,,,,,,,,,,,,,1541.19681210001,1542.2246977000032,1540.2235212000087,1540.2235212000087,1540.2235212000087,1540.2235212000087,new_sceneIn_43.png,145,5.0,0.9683015000045998,,,065,01,2025-04-04_13h59.04.811,Surprise recog test,2023.1.3,59.95419499870822,
145,0,145,0,,,,,,,,,,,,,,,,,,,,,,,,,,,,,,,,,,1543.8192431000061,1544.8392606999987,1542.2246977000032,1542.2246977000032,1542.2246977000032,1542.2246977000032,old_stationery_6.png,146,3.0,1.5937391000043135,,,065,01,2025-04-04_13h59.04.811,Surprise recog test,2023.1.3,59.95419499870822,
146,0,146,0,,,,,,,,,,,,,,,,,,,,,,,,,,,,,,,,,,1546.778129600003,1547.796166,1544.8392606999987,1544.8392606999987,1544.8392606999987,1544.8392606999987,new_stationery_12.png,147,2.0,1.9371662000048673,,,065,01,2025-04-04_13h59.04.811,Surprise recog test,2023.1.3,59.95419499870822,
147,0,147,0,,,,,,,,,,,,,,,,,,,,,,,,,,,,,,,,,,1549.0353132000018,1550.0561618000065,1547.796166,1547.796166,1547.796166,1547.796166,old_sceneOut_28.png,148,5.0,1.2349951000069268,,,065,01,2025-04-04_13h59.04.811,Surprise recog test,2023.1.3,59.95419499870822,
148,0,148,0,,,,,,,,,,,,,,,,,,,,,,,,,,,,,,,,,,1553.6608125000057,1554.6792305999988,1550.0561618000065,1550.0561618000065,1550.0561618000065,1550.0561618000065,new_fruit_49.png,149,3.0,3.598801000000094,,,065,01,2025-04-04_13h59.04.811,Surprise recog test,2023.1.3,59.95419499870822,
149,0,149,0,,,,,,,,,,,,,,,,,,,,,,,,,,,,,,,,,,1556.3449003999995,1557.3578625000082,1554.6792305999988,1554.6792305999988,1554.6792305999988,1554.6792305999988,new_stationery_6.png,150,3.0,1.6643000000040047,,,065,01,2025-04-04_13h59.04.811,Surprise recog test,2023.1.3,59.95419499870822,
150,0,150,0,,,,,,,,,,,,,,,,,,,,,,,,,,,,,,,,,,1558.4481666000065,1559.4678182000061,1557.3578625000082,1557.3578625000082,1557.3578625000082,1557.3578625000082,new_sceneOut_44.png,151,5.0,1.0901997000037227,,,065,01,2025-04-04_13h59.04.811,Surprise recog test,2023.1.3,59.95419499870822,
151,0,151,0,,,,,,,,,,,,,,,,,,,,,,,,,,,,,,,,,,1560.888057300006,,1559.4678182000061,1559.4678182000061,1559.4678182000061,1559.4678182000061,new_sceneOut_31.png,152,5.0,1.4201050999981817,,,065,01,2025-04-04_13h59.04.811,Surprise recog test,2023.1.3,59.95419499870822,
152,0,152,0,,,,,,,,,,,,,,,,,,,,,,,,,,,,,,,,,,1563.2905320999998,1564.3211249000015,1561.9188353000063,1561.9188353000063,1561.9188353000063,1561.9188353000063,old_sceneIn_17.png,153,5.0,1.374112999998033,,,065,01,2025-04-04_13h59.04.811,Surprise recog test,2023.1.3,59.95419499870822,
153,0,153,0,,,,,,,,,,,,,,,,,,,,,,,,,,,,,,,,,,1566.0781922000024,1567.1006632000062,1564.3211249000015,1564.3211249000015,1564.3211249000015,1564.3211249000015,new_sceneOut_39.png,154,4.0,1.7574279000109527,,,065,01,2025-04-04_13h59.04.811,Surprise recog test,2023.1.3,59.95419499870822,
154,0,154,0,,,,,,,,,,,,,,,,,,,,,,,,,,,,,,,,,,1569.6073628000013,1570.6261827999988,1567.1006632000062,1567.1006632000062,1567.1006632000062,1567.1006632000062,old_stationery_13.png,155,2.0,2.5020753999997396,,,065,01,2025-04-04_13h59.04.811,Surprise recog test,2023.1.3,59.95419499870822,
155,0,155,0,,,,,,,,,,,,,,,,,,,,,,,,,,,,,,,,,,1572.009301900005,1573.0305341000058,1570.6261827999988,1570.6261827999988,1570.6261827999988,1570.6261827999988,old_stationery_45.png,156,3.0,1.3835825999994995,,,065,01,2025-04-04_13h59.04.811,Surprise recog test,2023.1.3,59.95419499870822,
156,0,156,0,,,,,,,,,,,,,,,,,,,,,,,,,,,,,,,,,,1574.990798800005,1575.999800400008,1573.0305341000058,1573.0305341000058,1573.0305341000058,1573.0305341000058,old_fruit_11.png,157,3.0,1.9647638000024017,,,065,01,2025-04-04_13h59.04.811,Surprise recog test,2023.1.3,59.95419499870822,
157,0,157,0,,,,,,,,,,,,,,,,,,,,,,,,,,,,,,,,,,1577.0911864000082,1578.1137940000044,1575.999800400008,1575.999800400008,1575.999800400008,1575.999800400008,new_sceneIn_8.png,158,5.0,1.087584600012633,,,065,01,2025-04-04_13h59.04.811,Surprise recog test,2023.1.3,59.95419499870822,
158,0,158,0,,,,,,,,,,,,,,,,,,,,,,,,,,,,,,,,,,1579.5472805000027,1580.5577867000102,1578.1137940000044,1578.1137940000044,1578.1137940000044,1578.1137940000044,old_stationery_41.png,159,1.0,1.4353940000000875,,,065,01,2025-04-04_13h59.04.811,Surprise recog test,2023.1.3,59.95419499870822,
159,0,159,0,,,,,,,,,,,,,,,,,,,,,,,,,,,,,,,,,,1582.2349843999982,1583.2558006000036,1580.5577867000102,1580.5577867000102,1580.5577867000102,1580.5577867000102,new_fruit_24.png,160,4.0,1.6741784000041662,,,065,01,2025-04-04_13h59.04.811,Surprise recog test,2023.1.3,59.95419499870822,
160,0,160,0,,,,,,,,,,,,,,,,,,,,,,,,,,,,,,,,,,1584.4939551999996,1585.5194830999972,1583.2558006000036,1583.2558006000036,1583.2558006000036,1583.2558006000036,new_sceneIn_37.png,161,5.0,1.2401662999909604,,,065,01,2025-04-04_13h59.04.811,Surprise recog test,2023.1.3,59.95419499870822,
161,0,161,0,,,,,,,,,,,,,,,,,,,,,,,,,,,,,,,,,,1587.312974200002,1588.3384554000077,1585.5194830999972,1585.5194830999972,1585.5194830999972,1585.5194830999972,new_sceneOut_19.png,162,3.0,1.793013599992264,,,065,01,2025-04-04_13h59.04.811,Surprise recog test,2023.1.3,59.95419499870822,
162,0,162,0,,,,,,,,,,,,,,,,,,,,,,,,,,,,,,,,,,1589.666379400005,1590.6862158000004,1588.3384554000077,1588.3384554000077,1588.3384554000077,1588.3384554000077,new_sceneOut_23.png,163,5.0,1.3297221000102581,,,065,01,2025-04-04_13h59.04.811,Surprise recog test,2023.1.3,59.95419499870822,
163,0,163,0,,,,,,,,,,,,,,,,,,,,,,,,,,,,,,,,,,1592.2004877,1593.2239464000013,1590.6862158000004,1590.6862158000004,1590.6862158000004,1590.6862158000004,old_stationery_43.png,164,4.0,1.5132095000008121,,,065,01,2025-04-04_13h59.04.811,Surprise recog test,2023.1.3,59.95419499870822,
164,0,164,0,,,,,,,,,,,,,,,,,,,,,,,,,,,,,,,,,,1594.6115029000066,1595.6300294000102,1593.2239464000013,1593.2239464000013,1593.2239464000013,1593.2239464000013,old_sceneIn_23.png,165,5.0,1.3818785999901593,,,065,01,2025-04-04_13h59.04.811,Surprise recog test,2023.1.3,59.95419499870822,
165,0,165,0,,,,,,,,,,,,,,,,,,,,,,,,,,,,,,,,,,1597.5317104999995,1598.5570674000046,1595.6300294000102,1595.6300294000102,1595.6300294000102,1595.6300294000102,old_fruit_27.png,166,4.0,1.903979499998968,,,065,01,2025-04-04_13h59.04.811,Surprise recog test,2023.1.3,59.95419499870822,
166,0,166,0,,,,,,,,,,,,,,,,,,,,,,,,,,,,,,,,,,1601.2044803000026,,1598.5570674000046,1598.5570674000046,1598.5570674000046,1598.5570674000046,new_fruit_14.png,167,4.0,2.651006200001575,,,065,01,2025-04-04_13h59.04.811,Surprise recog test,2023.1.3,59.95419499870822,
167,0,167,0,,,,,,,,,,,,,,,,,,,,,,,,,,,,,,,,,,1603.4348864000058,1604.454930100008,1602.2280656000075,1602.2280656000075,1602.2280656000075,1602.2280656000075,old_sceneIn_48.png,168,5.0,1.2050722999993013,,,065,01,2025-04-04_13h59.04.811,Surprise recog test,2023.1.3,59.95419499870822,
168,0,168,0,,,,,,,,,,,,,,,,,,,,,,,,,,,,,,,,,,1605.9542461000092,1606.9659893000062,1604.454930100008,1604.454930100008,1604.454930100008,1604.454930100008,old_sceneOut_1.png,169,5.0,1.500484600008349,,,065,01,2025-04-04_13h59.04.811,Surprise recog test,2023.1.3,59.95419499870822,
169,0,169,0,,,,,,,,,,,,,,,,,,,,,,,,,,,,,,,,,,1608.2849059,1609.3064736000088,1606.9659893000062,1606.9659893000062,1606.9659893000062,1606.9659893000062,new_fruit_32.png,170,4.0,1.3165481000032742,,,065,01,2025-04-04_13h59.04.811,Surprise recog test,2023.1.3,59.95419499870822,
170,0,170,0,,,,,,,,,,,,,,,,,,,,,,,,,,,,,,,,,,1610.526818600003,,1609.3064736000088,1609.3064736000088,1609.3064736000088,1609.3064736000088,new_fruit_38.png,171,4.0,1.2218064999906346,,,065,01,2025-04-04_13h59.04.811,Surprise recog test,2023.1.3,59.95419499870822,
171,0,171,0,,,,,,,,,,,,,,,,,,,,,,,,,,,,,,,,,,1612.5833333000046,1613.6167048000061,1611.5612832000043,1611.5612832000043,1611.5612832000043,1611.5612832000043,old_sceneIn_18.png,172,4.0,1.024395700005698,,,065,01,2025-04-04_13h59.04.811,Surprise recog test,2023.1.3,59.95419499870822,
172,0,172,0,,,,,,,,,,,,,,,,,,,,,,,,,,,,,,,,,,1614.446105199997,1615.4661357000005,1613.6167048000061,1613.6167048000061,1613.6167048000061,1613.6167048000061,new_fruit_41.png,173,5.0,0.8310925000114366,,,065,01,2025-04-04_13h59.04.811,Surprise recog test,2023.1.3,59.95419499870822,
173,0,173,0,,,,,,,,,,,,,,,,,,,,,,,,,,,,,,,,,,1616.4107555000082,1617.4334795000032,1615.4661357000005,1615.4661357000005,1615.4661357000005,1615.4661357000005,old_sceneIn_22.png,174,5.0,0.9439196000021184,,,065,01,2025-04-04_13h59.04.811,Surprise recog test,2023.1.3,59.95419499870822,
174,0,174,0,,,,,,,,,,,,,,,,,,,,,,,,,,,,,,,,,,1619.478325700009,1620.4961223999999,1617.4334795000032,1617.4334795000032,1617.4334795000032,1617.4334795000032,old_sceneOut_10.png,175,4.0,2.046923900008551,,,065,01,2025-04-04_13h59.04.811,Surprise recog test,2023.1.3,59.95419499870822,
175,0,175,0,,,,,,,,,,,,,,,,,,,,,,,,,,,,,,,,,,1621.5681252000068,1622.587194000007,1620.4961223999999,1620.4961223999999,1620.4961223999999,1620.4961223999999,new_sceneIn_22.png,176,5.0,1.0733254000078887,,,065,01,2025-04-04_13h59.04.811,Surprise recog test,2023.1.3,59.95419499870822,
176,0,176,0,,,,,,,,,,,,,,,,,,,,,,,,,,,,,,,,,,1623.98894570001,,1622.587194000007,1622.587194000007,1622.587194000007,1622.587194000007,new_sceneOut_4.png,177,5.0,1.4016777999931946,,,065,01,2025-04-04_13h59.04.811,Surprise recog test,2023.1.3,59.95419499870822,
177,0,177,0,,,,,,,,,,,,,,,,,,,,,,,,,,,,,,,,,,1626.0409111000045,,1625.022358800008,1625.022358800008,1625.022358800008,1625.022358800008,new_sceneIn_15.png,178,5.0,1.0179666000040015,,,065,01,2025-04-04_13h59.04.811,Surprise recog test,2023.1.3,59.95419499870822,
178,0,178,0,,,,,,,,,,,,,,,,,,,,,,,,,,,,,,,,,,1629.0112930000032,1630.0397573000082,1627.0701779000083,1627.0701779000083,1627.0701779000083,1627.0701779000083,old_stationery_2.png,179,4.0,1.9428761000017403,,,065,01,2025-04-04_13h59.04.811,Surprise recog test,2023.1.3,59.95419499870822,
179,0,179,0,,,,,,,,,,,,,,,,,,,,,,,,,,,,,,,,,,1631.2749676000094,1632.2909949000023,1630.0397573000082,1630.0397573000082,1630.0397573000082,1630.0397573000082,new_fruit_13.png,180,4.0,1.2366366000060225,,,065,01,2025-04-04_13h59.04.811,Surprise recog test,2023.1.3,59.95419499870822,
180,0,180,0,,,,,,,,,,,,,,,,,,,,,,,,,,,,,,,,,,1633.2535200999992,1634.2811101999978,1632.2909949000023,1632.2909949000023,1632.2909949000023,1632.2909949000023,new_fruit_46.png,181,4.0,0.9615752999961842,,,065,01,2025-04-04_13h59.04.811,Surprise recog test,2023.1.3,59.95419499870822,
181,0,181,0,,,,,,,,,,,,,,,,,,,,,,,,,,,,,,,,,,1635.6889921999973,1636.717865300001,1634.2811101999978,1634.2811101999978,1634.2811101999978,1634.2811101999978,old_fruit_48.png,182,3.0,1.4097982999956002,,,065,01,2025-04-04_13h59.04.811,Surprise recog test,2023.1.3,59.95419499870822,
182,0,182,0,,,,,,,,,,,,,,,,,,,,,,,,,,,,,,,,,,1638.9150273999985,1639.9358839000051,1636.717865300001,1636.717865300001,1636.717865300001,1636.717865300001,old_fruit_42.png,183,4.0,2.193648000000394,,,065,01,2025-04-04_13h59.04.811,Surprise recog test,2023.1.3,59.95419499870822,
183,0,183,0,,,,,,,,,,,,,,,,,,,,,,,,,,,,,,,,,,1641.2960540000058,1642.320310199997,1639.9358839000051,1639.9358839000051,1639.9358839000051,1639.9358839000051,new_sceneIn_19.png,184,5.0,1.3622655000071973,,,065,01,2025-04-04_13h59.04.811,Surprise recog test,2023.1.3,59.95419499870822,
184,0,184,0,,,,,,,,,,,,,,,,,,,,,,,,,,,,,,,,,,1645.0219099000096,1646.0376191000105,1642.320310199997,1642.320310199997,1642.320310199997,1642.320310199997,new_fruit_40.png,185,4.0,2.7048197999974946,,,065,01,2025-04-04_13h59.04.811,Surprise recog test,2023.1.3,59.95419499870822,
185,0,185,0,,,,,,,,,,,,,,,,,,,,,,,,,,,,,,,,,,1648.0379171000095,1649.0581488000025,1646.0376191000105,1646.0376191000105,1646.0376191000105,1646.0376191000105,new_fruit_17.png,186,3.0,2.002931900002295,,,065,01,2025-04-04_13h59.04.811,Surprise recog test,2023.1.3,59.95419499870822,
186,0,186,0,,,,,,,,,,,,,,,,,,,,,,,,,,,,,,,,,,1650.4488767000003,1651.4790998000099,1649.0581488000025,1649.0581488000025,1649.0581488000025,1649.0581488000025,old_sceneIn_33.png,187,5.0,1.3902066000009654,,,065,01,2025-04-04_13h59.04.811,Surprise recog test,2023.1.3,59.95419499870822,
187,0,187,0,,,,,,,,,,,,,,,,,,,,,,,,,,,,,,,,,,1652.3020242000057,1653.3254330000054,1651.4790998000099,1651.4790998000099,1651.4790998000099,1651.4790998000099,new_fruit_1.png,188,5.0,0.825672899998608,,,065,01,2025-04-04_13h59.04.811,Surprise recog test,2023.1.3,59.95419499870822,
188,0,188,0,,,,,,,,,,,,,,,,,,,,,,,,,,,,,,,,,,1658.0493110000098,,1653.3254330000054,1653.3254330000054,1653.3254330000054,1653.3254330000054,old_stationery_23.png,189,3.0,4.725550200004363,,,065,01,2025-04-04_13h59.04.811,Surprise recog test,2023.1.3,59.95419499870822,
189,0,189,0,,,,,,,,,,,,,,,,,,,,,,,,,,,,,,,,,,1661.1431974000006,1662.1639072000107,1659.0689962000033,1659.0689962000033,1659.0689962000033,1659.0689962000033,old_stationery_16.png,190,5.0,2.070691600005375,,,065,01,2025-04-04_13h59.04.811,Surprise recog test,2023.1.3,59.95419499870822,
190,0,190,0,,,,,,,,,,,,,,,,,,,,,,,,,,,,,,,,,,1663.9188699000078,1664.939770099998,1662.1639072000107,1662.1639072000107,1662.1639072000107,1662.1639072000107,new_sceneOut_49.png,191,4.0,1.7534598000056576,,,065,01,2025-04-04_13h59.04.811,Surprise recog test,2023.1.3,59.95419499870822,
191,0,191,0,,,,,,,,,,,,,,,,,,,,,,,,,,,,,,,,,,1667.1176447000034,1668.1339000000007,1664.939770099998,1664.939770099998,1664.939770099998,1664.939770099998,old_stationery_48.png,192,2.0,2.1794357000035234,,,065,01,2025-04-04_13h59.04.811,Surprise recog test,2023.1.3,59.95419499870822,
192,0,192,0,,,,,,,,,,,,,,,,,,,,,,,,,,,,,,,,,,1669.6011084000056,1670.6288597000093,1668.1339000000007,1668.1339000000007,1668.1339000000007,1668.1339000000007,old_sceneOut_47.png,193,5.0,1.4674181000009412,,,065,01,2025-04-04_13h59.04.811,Surprise recog test,2023.1.3,59.95419499870822,
193,0,193,0,,,,,,,,,,,,,,,,,,,,,,,,,,,,,,,,,,1674.7533306999976,1675.7780150000035,1670.6288597000093,1670.6288597000093,1670.6288597000093,1670.6288597000093,new_stationery_16.png,194,4.0,4.128095499996562,,,065,01,2025-04-04_13h59.04.811,Surprise recog test,2023.1.3,59.95419499870822,
194,0,194,0,,,,,,,,,,,,,,,,,,,,,,,,,,,,,,,,,,1677.4541355999972,1678.4837165000063,1675.7780150000035,1675.7780150000035,1675.7780150000035,1675.7780150000035,new_stationery_13.png,195,4.0,1.6749045999895316,,,065,01,2025-04-04_13h59.04.811,Surprise recog test,2023.1.3,59.95419499870822,
195,0,195,0,,,,,,,,,,,,,,,,,,,,,,,,,,,,,,,,,,1679.8385302000097,1680.855222600003,1678.4837165000063,1678.4837165000063,1678.4837165000063,1678.4837165000063,new_fruit_44.png,196,4.0,1.3586973000055877,,,065,01,2025-04-04_13h59.04.811,Surprise recog test,2023.1.3,59.95419499870822,
196,0,196,0,,,,,,,,,,,,,,,,,,,,,,,,,,,,,,,,,,1683.1115336000075,1684.1375845000002,1680.855222600003,1680.855222600003,1680.855222600003,1680.855222600003,new_stationery_37.png,197,4.0,2.250926200009417,,,065,01,2025-04-04_13h59.04.811,Surprise recog test,2023.1.3,59.95419499870822,
197,0,197,0,,,,,,,,,,,,,,,,,,,,,,,,,,,,,,,,,,1687.062793300007,1688.0915740000055,1684.1375845000002,1684.1375845000002,1684.1375845000002,1684.1375845000002,old_fruit_40.png,198,2.0,2.927094999991823,,,065,01,2025-04-04_13h59.04.811,Surprise recog test,2023.1.3,59.95419499870822,
198,0,198,0,,,,,,,,,,,,,,,,,,,,,,,,,,,,,,,,,,1690.0744733000029,1691.0857433000056,1688.0915740000055,1688.0915740000055,1688.0915740000055,1688.0915740000055,new_fruit_12.png,199,5.0,1.986645099997986,,,065,01,2025-04-04_13h59.04.811,Surprise recog test,2023.1.3,59.95419499870822,
199,0,199,0,,,,,,,,,,,,,,,,,,,,,,,,,,,,,,,,,,1692.380344300007,,1691.0857433000056,1691.0857433000056,1691.0857433000056,1691.0857433000056,new_fruit_16.png,200,5.0,1.2923414999968372,,,065,01,2025-04-04_13h59.04.811,Surprise recog test,2023.1.3,59.95419499870822,
200,0,200,0,,,,,,,,,,,,,,,,,,,,,,,,,,,,,,,,,,1696.3958652000001,1697.4137287000049,1693.4168846999964,1693.4168846999964,1693.4168846999964,1693.4168846999964,old_stationery_27.png,201,4.0,2.975445599993691,,,065,01,2025-04-04_13h59.04.811,Surprise recog test,2023.1.3,59.95419499870822,
201,0,201,0,,,,,,,,,,,,,,,,,,,,,,,,,,,,,,,,,,1698.8058917000017,1699.8345523000025,1697.4137287000049,1697.4137287000049,1697.4137287000049,1697.4137287000049,new_sceneOut_37.png,202,5.0,1.3935542999970494,,,065,01,2025-04-04_13h59.04.811,Surprise recog test,2023.1.3,59.95419499870822,
202,0,202,0,,,,,,,,,,,,,,,,,,,,,,,,,,,,,,,,,,1702.5199670000002,,1699.8345523000025,1699.8345523000025,1699.8345523000025,1699.8345523000025,new_fruit_31.png,203,4.0,2.684885299997404,,,065,01,2025-04-04_13h59.04.811,Surprise recog test,2023.1.3,59.95419499870822,
203,0,203,0,,,,,,,,,,,,,,,,,,,,,,,,,,,,,,,,,,1704.7361735000013,1705.749991100005,1703.5565659999993,1703.5565659999993,1703.5565659999993,1703.5565659999993,old_fruit_44.png,204,4.0,1.179421299995738,,,065,01,2025-04-04_13h59.04.811,Surprise recog test,2023.1.3,59.95419499870822,
204,0,204,0,,,,,,,,,,,,,,,,,,,,,,,,,,,,,,,,,,1710.7408766000008,1711.7642327000067,1705.749991100005,1705.749991100005,1705.749991100005,1705.749991100005,new_sceneOut_40.png,205,None,None,1710.7321544000006,,065,01,2025-04-04_13h59.04.811,Surprise recog test,2023.1.3,59.95419499870822,
205,0,205,0,,,,,,,,,,,,,,,,,,,,,,,,,,,,,,,,,,1713.084023000003,1714.1118540000025,1711.7642327000067,1711.7642327000067,1711.7642327000067,1711.7642327000067,new_stationery_10.png,206,4.0,1.3241970000090078,,,065,01,2025-04-04_13h59.04.811,Surprise recog test,2023.1.3,59.95419499870822,
206,0,206,0,,,,,,,,,,,,,,,,,,,,,,,,,,,,,,,,,,1715.9851923000097,1717.0047038000048,1714.1118540000025,1714.1118540000025,1714.1118540000025,1714.1118540000025,new_stationery_28.png,207,2.0,1.8759471999946982,,,065,01,2025-04-04_13h59.04.811,Surprise recog test,2023.1.3,59.95419499870822,
207,0,207,0,,,,,,,,,,,,,,,,,,,,,,,,,,,,,,,,,,1718.4408945000032,1719.461970000004,1717.0047038000048,1717.0047038000048,1717.0047038000048,1717.0047038000048,new_fruit_19.png,208,3.0,1.4300984000001336,,,065,01,2025-04-04_13h59.04.811,Surprise recog test,2023.1.3,59.95419499870822,
208,0,208,0,,,,,,,,,,,,,,,,,,,,,,,,,,,,,,,,,,1720.6789967000077,1721.7019451000087,1719.461970000004,1719.461970000004,1719.461970000004,1719.461970000004,new_sceneOut_46.png,209,5.0,1.2183407999982592,,,065,01,2025-04-04_13h59.04.811,Surprise recog test,2023.1.3,59.95419499870822,
209,0,209,0,,,,,,,,,,,,,,,,,,,,,,,,,,,,,,,,,,1723.068052600007,1724.0813141000108,1721.7019451000087,1721.7019451000087,1721.7019451000087,1721.7019451000087,old_stationery_19.png,210,2.0,1.3639292000007117,,,065,01,2025-04-04_13h59.04.811,Surprise recog test,2023.1.3,59.95419499870822,
210,0,210,0,,,,,,,,,,,,,,,,,,,,,,,,,,,,,,,,,,1725.720312000005,1726.7272330999986,1724.0813141000108,1724.0813141000108,1724.0813141000108,1724.0813141000108,old_fruit_12.png,211,2.0,1.6333884999912698,,,065,01,2025-04-04_13h59.04.811,Surprise recog test,2023.1.3,59.95419499870822,
211,0,211,0,,,,,,,,,,,,,,,,,,,,,,,,,,,,,,,,,,1727.9763506000018,,1726.7272330999986,1726.7272330999986,1726.7272330999986,1726.7272330999986,old_stationery_31.png,212,1.0,1.245613899998716,,,065,01,2025-04-04_13h59.04.811,Surprise recog test,2023.1.3,59.95419499870822,
212,0,212,0,,,,,,,,,,,,,,,,,,,,,,,,,,,,,,,,,,1730.0782553000026,,1729.0101162000065,1729.0101162000065,1729.0101162000065,1729.0101162000065,new_sceneIn_50.png,213,5.0,1.0690726000029827,,,065,01,2025-04-04_13h59.04.811,Surprise recog test,2023.1.3,59.95419499870822,
213,0,213,0,,,,,,,,,,,,,,,,,,,,,,,,,,,,,,,,,,1733.0305378000048,,1731.1064568000002,1731.1064568000002,1731.1064568000002,1731.1064568000002,new_stationery_47.png,214,5.0,1.9254930000024615,,,065,01,2025-04-04_13h59.04.811,Surprise recog test,2023.1.3,59.95419499870822,
214,0,214,0,,,,,,,,,,,,,,,,,,,,,,,,,,,,,,,,,,1735.6323127000069,,1734.0511182000046,1734.0511182000046,1734.0511182000046,1734.0511182000046,old_fruit_25.png,215,4.0,1.5773785000055796,,,065,01,2025-04-04_13h59.04.811,Surprise recog test,2023.1.3,59.95419499870822,
215,0,215,0,,,,,,,,,,,,,,,,,,,,,,,,,,,,,,,,,,1738.1972995000106,1739.2212676000054,1736.6596285999985,1736.6596285999985,1736.6596285999985,1736.6596285999985,old_fruit_49.png,216,5.0,1.5330537999980152,,,065,01,2025-04-04_13h59.04.811,Surprise recog test,2023.1.3,59.95419499870822,
216,0,216,0,,,,,,,,,,,,,,,,,,,,,,,,,,,,,,,,,,1740.2731391999987,1741.29709610001,1739.2212676000054,1739.2212676000054,1739.2212676000054,1739.2212676000054,old_sceneOut_46.png,217,5.0,1.0551718000060646,,,065,01,2025-04-04_13h59.04.811,Surprise recog test,2023.1.3,59.95419499870822,
217,0,217,0,,,,,,,,,,,,,,,,,,,,,,,,,,,,,,,,,,1742.5675926999975,1743.5752032000019,1741.29709610001,1741.29709610001,1741.29709610001,1741.29709610001,old_fruit_47.png,218,5.0,1.2716823999944609,,,065,01,2025-04-04_13h59.04.811,Surprise recog test,2023.1.3,59.95419499870822,
218,0,218,0,,,,,,,,,,,,,,,,,,,,,,,,,,,,,,,,,,1744.6815388999967,1745.7061096000107,1743.5752032000019,1743.5752032000019,1743.5752032000019,1743.5752032000019,new_sceneIn_38.png,219,5.0,1.1000170000043,,,065,01,2025-04-04_13h59.04.811,Surprise recog test,2023.1.3,59.95419499870822,
219,0,219,0,,,,,,,,,,,,,,,,,,,,,,,,,,,,,,,,,,1747.1336326000019,1748.159182000003,1745.7061096000107,1745.7061096000107,1745.7061096000107,1745.7061096000107,new_sceneIn_35.png,220,5.0,1.4273931000061566,,,065,01,2025-04-04_13h59.04.811,Surprise recog test,2023.1.3,59.95419499870822,
220,0,220,0,,,,,,,,,,,,,,,,,,,,,,,,,,,,,,,,,,1749.3343467000086,1750.3485175000096,1748.159182000003,1748.159182000003,1748.159182000003,1748.159182000003,old_sceneIn_5.png,221,5.0,1.175843300006818,,,065,01,2025-04-04_13h59.04.811,Surprise recog test,2023.1.3,59.95419499870822,
221,0,221,0,,,,,,,,,,,,,,,,,,,,,,,,,,,,,,,,,,1751.599714099997,1752.6146150999994,1750.3485175000096,1750.3485175000096,1750.3485175000096,1750.3485175000096,old_sceneIn_32.png,222,5.0,1.2462009000009857,,,065,01,2025-04-04_13h59.04.811,Surprise recog test,2023.1.3,59.95419499870822,
222,0,222,0,,,,,,,,,,,,,,,,,,,,,,,,,,,,,,,,,,1754.3522664000047,1755.369398499999,1752.6146150999994,1752.6146150999994,1752.6146150999994,1752.6146150999994,new_sceneOut_45.png,223,4.0,1.7321860999945784,,,065,01,2025-04-04_13h59.04.811,Surprise recog test,2023.1.3,59.95419499870822,
223,0,223,0,,,,,,,,,,,,,,,,,,,,,,,,,,,,,,,,,,1757.4130114,1758.4345613000041,1755.369398499999,1755.369398499999,1755.369398499999,1755.369398499999,old_sceneIn_14.png,224,5.0,2.039706199997454,,,065,01,2025-04-04_13h59.04.811,Surprise recog test,2023.1.3,59.95419499870822,
224,0,224,0,,,,,,,,,,,,,,,,,,,,,,,,,,,,,,,,,,1759.7650827000034,1760.7743759000005,1758.4345613000041,1758.4345613000041,1758.4345613000041,1758.4345613000041,new_sceneIn_1.png,225,5.0,1.3251321999996435,,,065,01,2025-04-04_13h59.04.811,Surprise recog test,2023.1.3,59.95419499870822,
225,0,225,0,,,,,,,,,,,,,,,,,,,,,,,,,,,,,,,,,,1762.361050300009,1763.3786668999965,1760.7743759000005,1760.7743759000005,1760.7743759000005,1760.7743759000005,new_sceneOut_1.png,226,5.0,1.5828460000047926,,,065,01,2025-04-04_13h59.04.811,Surprise recog test,2023.1.3,59.95419499870822,
226,0,226,0,,,,,,,,,,,,,,,,,,,,,,,,,,,,,,,,,,1764.775510300009,1765.805680999998,1763.3786668999965,1763.3786668999965,1763.3786668999965,1763.3786668999965,old_fruit_4.png,227,4.0,1.393426599999657,,,065,01,2025-04-04_13h59.04.811,Surprise recog test,2023.1.3,59.95419499870822,
227,0,227,0,,,,,,,,,,,,,,,,,,,,,,,,,,,,,,,,,,1766.9700285,1767.984088600002,1765.805680999998,1765.805680999998,1765.805680999998,1765.805680999998,new_sceneIn_41.png,228,5.0,1.1663005000009434,,,065,01,2025-04-04_13h59.04.811,Surprise recog test,2023.1.3,59.95419499870822,
228,0,228,0,,,,,,,,,,,,,,,,,,,,,,,,,,,,,,,,,,1769.2480712000106,1770.274800500003,1767.984088600002,1767.984088600002,1767.984088600002,1767.984088600002,new_sceneOut_35.png,229,5.0,1.2619115999987116,,,065,01,2025-04-04_13h59.04.811,Surprise recog test,2023.1.3,59.95419499870822,
229,0,229,0,,,,,,,,,,,,,,,,,,,,,,,,,,,,,,,,,,1771.6072677000047,1772.621554199999,1770.274800500003,1770.274800500003,1770.274800500003,1770.274800500003,old_stationery_29.png,230,1.0,1.3324974999995902,,,065,01,2025-04-04_13h59.04.811,Surprise recog test,2023.1.3,59.95419499870822,
230,0,230,0,,,,,,,,,,,,,,,,,,,,,,,,,,,,,,,,,,1773.8476254999987,,1772.621554199999,1772.621554199999,1772.621554199999,1772.621554199999,new_sceneOut_5.png,231,5.0,1.2263843000109773,,,065,01,2025-04-04_13h59.04.811,Surprise recog test,2023.1.3,59.95419499870822,
231,0,231,0,,,,,,,,,,,,,,,,,,,,,,,,,,,,,,,,,,1775.879549899997,1776.8844701000053,1774.8801441000105,1774.8801441000105,1774.8801441000105,1774.8801441000105,old_sceneIn_31.png,232,4.0,1.001565300000948,,,065,01,2025-04-04_13h59.04.811,Surprise recog test,2023.1.3,59.95419499870822,
232,0,232,0,,,,,,,,,,,,,,,,,,,,,,,,,,,,,,,,,,1777.9135298000037,1778.933904000005,1776.8844701000053,1776.8844701000053,1776.8844701000053,1776.8844701000053,new_sceneOut_7.png,233,4.0,1.0204888000007486,,,065,01,2025-04-04_13h59.04.811,Surprise recog test,2023.1.3,59.95419499870822,
233,0,233,0,,,,,,,,,,,,,,,,,,,,,,,,,,,,,,,,,,1780.2809460999997,1781.3076317000086,1778.933904000005,1778.933904000005,1778.933904000005,1778.933904000005,old_sceneIn_21.png,234,5.0,1.3491558999958215,,,065,01,2025-04-04_13h59.04.811,Surprise recog test,2023.1.3,59.95419499870822,
234,0,234,0,,,,,,,,,,,,,,,,,,,,,,,,,,,,,,,,,,1783.5732679000066,1784.6034484999982,1781.3076317000086,1781.3076317000086,1781.3076317000086,1781.3076317000086,old_sceneOut_22.png,235,5.0,2.269627700006822,,,065,01,2025-04-04_13h59.04.811,Surprise recog test,2023.1.3,59.95419499870822,
235,0,235,0,,,,,,,,,,,,,,,,,,,,,,,,,,,,,,,,,,1787.4306682000024,1788.4617475999985,1784.6034484999982,1784.6034484999982,1784.6034484999982,1784.6034484999982,old_sceneOut_41.png,236,3.0,2.8279963999957545,,,065,01,2025-04-04_13h59.04.811,Surprise recog test,2023.1.3,59.95419499870822,
236,0,236,0,,,,,,,,,,,,,,,,,,,,,,,,,,,,,,,,,,1790.031103900008,1791.0533990999975,1788.4617475999985,1788.4617475999985,1788.4617475999985,1788.4617475999985,old_fruit_37.png,237,5.0,1.5724382000043988,,,065,01,2025-04-04_13h59.04.811,Surprise recog test,2023.1.3,59.95419499870822,
237,0,237,0,,,,,,,,,,,,,,,,,,,,,,,,,,,,,,,,,,1793.7389193999988,1794.7639713000099,1791.0533990999975,1791.0533990999975,1791.0533990999975,1791.0533990999975,old_stationery_44.png,238,3.0,2.6865634999994654,,,065,01,2025-04-04_13h59.04.811,Surprise recog test,2023.1.3,59.95419499870822,
238,0,238,0,,,,,,,,,,,,,,,,,,,,,,,,,,,,,,,,,,1796.8027325000003,1797.8170422999974,1794.7639713000099,1794.7639713000099,1794.7639713000099,1794.7639713000099,new_sceneOut_2.png,239,4.0,2.038939300007769,,,065,01,2025-04-04_13h59.04.811,Surprise recog test,2023.1.3,59.95419499870822,
239,0,239,0,,,,,,,,,,,,,,,,,,,,,,,,,,,,,,,,,,1798.9474498000054,1799.9620125000074,1797.8170422999974,1797.8170422999974,1797.8170422999974,1797.8170422999974,new_sceneIn_25.png,240,5.0,1.1257994000043254,,,065,01,2025-04-04_13h59.04.811,Surprise recog test,2023.1.3,59.95419499870822,
240,0,240,0,,,,,,,,,,,,,,,,,,,,,,,,,,,,,,,,,,1802.249213300005,1803.2693755000073,1799.9620125000074,1799.9620125000074,1799.9620125000074,1799.9620125000074,old_sceneOut_18.png,241,4.0,2.2860843000089517,,,065,01,2025-04-04_13h59.04.811,Surprise recog test,2023.1.3,59.95419499870822,
241,0,241,0,,,,,,,,,,,,,,,,,,,,,,,,,,,,,,,,,,1804.6190484000108,1805.6275405000051,1803.2693755000073,1803.2693755000073,1803.2693755000073,1803.2693755000073,old_stationery_40.png,242,1.0,1.345923100001528,,,065,01,2025-04-04_13h59.04.811,Surprise recog test,2023.1.3,59.95419499870822,
242,0,242,0,,,,,,,,,,,,,,,,,,,,,,,,,,,,,,,,,,1806.7654588000005,1807.792530000006,1805.6275405000051,1805.6275405000051,1805.6275405000051,1805.6275405000051,new_sceneIn_48.png,243,5.0,1.1351584999938495,,,065,01,2025-04-04_13h59.04.811,Surprise recog test,2023.1.3,59.95419499870822,
243,0,243,0,,,,,,,,,,,,,,,,,,,,,,,,,,,,,,,,,,1808.7562317999982,1809.764548799998,1807.792530000006,1807.792530000006,1807.792530000006,1807.792530000006,old_sceneOut_16.png,244,5.0,0.9666315999929793,,,065,01,2025-04-04_13h59.04.811,Surprise recog test,2023.1.3,59.95419499870822,
244,0,244,0,,,,,,,,,,,,,,,,,,,,,,,,,,,,,,,,,,1811.4454716000037,,1809.764548799998,1809.764548799998,1809.764548799998,1809.764548799998,new_fruit_33.png,245,4.0,1.6761305999971228,,,065,01,2025-04-04_13h59.04.811,Surprise recog test,2023.1.3,59.95419499870822,
245,0,245,0,,,,,,,,,,,,,,,,,,,,,,,,,,,,,,,,,,1814.7655992000073,1815.7988813999982,1812.4724989000097,1812.4724989000097,1812.4724989000097,1812.4724989000097,new_fruit_7.png,246,3.0,2.2948751999938395,,,065,01,2025-04-04_13h59.04.811,Surprise recog test,2023.1.3,59.95419499870822,
246,0,246,0,,,,,,,,,,,,,,,,,,,,,,,,,,,,,,,,,,1817.034021200001,1818.066317600009,1815.7988813999982,1815.7988813999982,1815.7988813999982,1815.7988813999982,new_fruit_43.png,247,5.0,1.2377185999939684,,,065,01,2025-04-04_13h59.04.811,Surprise recog test,2023.1.3,59.95419499870822,
247,0,247,0,,,,,,,,,,,,,,,,,,,,,,,,,,,,,,,,,,1819.9422887999972,1820.9574821999995,1818.066317600009,1818.066317600009,1818.066317600009,1818.066317600009,old_fruit_3.png,248,4.0,1.8723253999924054,,,065,01,2025-04-04_13h59.04.811,Surprise recog test,2023.1.3,59.95419499870822,
248,0,248,0,,,,,,,,,,,,,,,,,,,,,,,,,,,,,,,,,,1822.208004900007,1823.234398600005,1820.9574821999995,1820.9574821999995,1820.9574821999995,1820.9574821999995,new_sceneIn_7.png,249,5.0,1.2461933000013232,,,065,01,2025-04-04_13h59.04.811,Surprise recog test,2023.1.3,59.95419499870822,
249,0,249,0,,,,,,,,,,,,,,,,,,,,,,,,,,,,,,,,,,1825.558902100005,1826.5742524000088,1823.234398600005,1823.234398600005,1823.234398600005,1823.234398600005,new_stationery_29.png,250,3.0,2.325901900010649,,,065,01,2025-04-04_13h59.04.811,Surprise recog test,2023.1.3,59.95419499870822,
250,0,250,0,,,,,,,,,,,,,,,,,,,,,,,,,,,,,,,,,,1827.9402263000084,1828.9598560000013,1826.5742524000088,1826.5742524000088,1826.5742524000088,1826.5742524000088,new_stationery_34.png,251,5.0,1.361422499991022,,,065,01,2025-04-04_13h59.04.811,Surprise recog test,2023.1.3,59.95419499870822,
251,0,251,0,,,,,,,,,,,,,,,,,,,,,,,,,,,,,,,,,,1829.981452100008,1831.0117420000024,1828.9598560000013,1828.9598560000013,1828.9598560000013,1828.9598560000013,new_sceneIn_18.png,252,5.0,1.0216313000128139,,,065,01,2025-04-04_13h59.04.811,Surprise recog test,2023.1.3,59.95419499870822,
252,0,252,0,,,,,,,,,,,,,,,,,,,,,,,,,,,,,,,,,,1832.4157675000024,1833.4460120000003,1831.0117420000024,1831.0117420000024,1831.0117420000024,1831.0117420000024,new_sceneOut_36.png,253,5.0,1.4067423000087729,,,065,01,2025-04-04_13h59.04.811,Surprise recog test,2023.1.3,59.95419499870822,
253,0,253,0,,,,,,,,,,,,,,,,,,,,,,,,,,,,,,,,,,1834.8413723999984,1835.8616503000085,1833.4460120000003,1833.4460120000003,1833.4460120000003,1833.4460120000003,old_stationery_46.png,254,1.0,1.3974422000028426,,,065,01,2025-04-04_13h59.04.811,Surprise recog test,2023.1.3,59.95419499870822,
254,0,254,0,,,,,,,,,,,,,,,,,,,,,,,,,,,,,,,,,,1837.1477532999997,1838.1666297000047,1835.8616503000085,1835.8616503000085,1835.8616503000085,1835.8616503000085,new_sceneIn_4.png,255,5.0,1.2876367999997456,,,065,01,2025-04-04_13h59.04.811,Surprise recog test,2023.1.3,59.95419499870822,
255,0,255,0,,,,,,,,,,,,,,,,,,,,,,,,,,,,,,,,,,1839.5838824000093,,1838.1666297000047,1838.1666297000047,1838.1666297000047,1838.1666297000047,old_sceneOut_26.png,256,4.0,1.4187082999997074,,,065,01,2025-04-04_13h59.04.811,Surprise recog test,2023.1.3,59.95419499870822,
256,0,256,0,,,,,,,,,,,,,,,,,,,,,,,,,,,,,,,,,,1842.4860451999994,,1840.6186971999996,1840.6186971999996,1840.6186971999996,1840.6186971999996,new_stationery_30.png,257,3.0,1.870492899994133,,,065,01,2025-04-04_13h59.04.811,Surprise recog test,2023.1.3,59.95419499870822,
257,0,257,0,,,,,,,,,,,,,,,,,,,,,,,,,,,,,,,,,,1844.5883805000049,,1843.5207812000008,1843.5207812000008,1843.5207812000008,1843.5207812000008,new_fruit_4.png,258,4.0,1.068971100001363,,,065,01,2025-04-04_13h59.04.811,Surprise recog test,2023.1.3,59.95419499870822,
258,0,258,0,,,,,,,,,,,,,,,,,,,,,,,,,,,,,,,,,,1847.03758080001,1848.052205800006,1845.609470700001,1845.609470700001,1845.609470700001,1845.609470700001,new_stationery_38.png,259,2.0,1.4172203000052832,,,065,01,2025-04-04_13h59.04.811,Surprise recog test,2023.1.3,59.95419499870822,
259,0,259,0,,,,,,,,,,,,,,,,,,,,,,,,,,,,,,,,,,1849.2727969999978,1850.2917641000095,1848.052205800006,1848.052205800006,1848.052205800006,1848.052205800006,new_sceneOut_11.png,260,5.0,1.2178744999982882,,,065,01,2025-04-04_13h59.04.811,Surprise recog test,2023.1.3,59.95419499870822,
260,0,260,0,,,,,,,,,,,,,,,,,,,,,,,,,,,,,,,,,,1851.2589920000028,1852.2779231000022,1850.2917641000095,1850.2917641000095,1850.2917641000095,1850.2917641000095,old_fruit_17.png,261,4.0,0.9699309000134235,,,065,01,2025-04-04_13h59.04.811,Surprise recog test,2023.1.3,59.95419499870822,
261,0,261,0,,,,,,,,,,,,,,,,,,,,,,,,,,,,,,,,,,1853.8600178000052,1854.867883800005,1852.2779231000022,1852.2779231000022,1852.2779231000022,1852.2779231000022,old_stationery_15.png,262,3.0,1.579977700006566,,,065,01,2025-04-04_13h59.04.811,Surprise recog test,2023.1.3,59.95419499870822,
262,0,262,0,,,,,,,,,,,,,,,,,,,,,,,,,,,,,,,,,,1856.080696600009,,1854.867883800005,1854.867883800005,1854.867883800005,1854.867883800005,new_sceneOut_14.png,263,5.0,1.2064824999979464,,,065,01,2025-04-04_13h59.04.811,Surprise recog test,2023.1.3,59.95419499870822,
263,0,263,0,,,,,,,,,,,,,,,,,,,,,,,,,,,,,,,,,,1858.017007100003,,1857.1057524000062,1857.1057524000062,1857.1057524000062,1857.1057524000062,new_sceneOut_17.png,264,4.0,0.9113166000024648,,,065,01,2025-04-04_13h59.04.811,Surprise recog test,2023.1.3,59.95419499870822,
264,0,264,0,,,,,,,,,,,,,,,,,,,,,,,,,,,,,,,,,,1860.014871300009,1861.0338475000026,1859.0379506000027,1859.0379506000027,1859.0379506000027,1859.0379506000027,new_fruit_37.png,265,4.0,0.971542799990857,,,065,01,2025-04-04_13h59.04.811,Surprise recog test,2023.1.3,59.95419499870822,
265,0,265,0,,,,,,,,,,,,,,,,,,,,,,,,,,,,,,,,,,1861.9356663000071,,1861.0338475000026,1861.0338475000026,1861.0338475000026,1861.0338475000026,new_fruit_18.png,266,5.0,0.9024389999976847,,,065,01,2025-04-04_13h59.04.811,Surprise recog test,2023.1.3,59.95419499870822,
266,0,266,0,,,,,,,,,,,,,,,,,,,,,,,,,,,,,,,,,,1864.168511099997,1865.1740665000107,1862.9541386000055,1862.9541386000055,1862.9541386000055,1862.9541386000055,new_sceneIn_39.png,267,5.0,1.2043976999993902,,,065,01,2025-04-04_13h59.04.811,Surprise recog test,2023.1.3,59.95419499870822,
267,0,267,0,,,,,,,,,,,,,,,,,,,,,,,,,,,,,,,,,,1867.6714438000054,1868.6754367999965,1865.1740665000107,1865.1740665000107,1865.1740665000107,1865.1740665000107,old_stationery_38.png,268,2.0,2.488050400002976,,,065,01,2025-04-04_13h59.04.811,Surprise recog test,2023.1.3,59.95419499870822,
268,0,268,0,,,,,,,,,,,,,,,,,,,,,,,,,,,,,,,,,,1869.6562659000047,1870.665632999997,1868.6754367999965,1868.6754367999965,1868.6754367999965,1868.6754367999965,new_stationery_32.png,269,4.0,0.9703163999947719,,,065,01,2025-04-04_13h59.04.811,Surprise recog test,2023.1.3,59.95419499870822,
269,0,269,0,,,,,,,,,,,,,,,,,,,,,,,,,,,,,,,,,,1871.6471240999963,1872.6634196000086,1870.665632999997,1870.665632999997,1870.665632999997,1870.665632999997,old_sceneOut_14.png,270,5.0,0.9753885999962222,,,065,01,2025-04-04_13h59.04.811,Surprise recog test,2023.1.3,59.95419499870822,
270,0,270,0,,,,,,,,,,,,,,,,,,,,,,,,,,,,,,,,,,1874.168076700007,1875.1845484000078,1872.6634196000086,1872.6634196000086,1872.6634196000086,1872.6634196000086,old_sceneOut_20.png,271,5.0,1.4996905000007246,,,065,01,2025-04-04_13h59.04.811,Surprise recog test,2023.1.3,59.95419499870822,
271,0,271,0,,,,,,,,,,,,,,,,,,,,,,,,,,,,,,,,,,1876.1997835000075,,1875.1845484000078,1875.1845484000078,1875.1845484000078,1875.1845484000078,old_sceneIn_49.png,272,4.0,1.0115043999976479,,,065,01,2025-04-04_13h59.04.811,Surprise recog test,2023.1.3,59.95419499870822,
272,0,272,0,,,,,,,,,,,,,,,,,,,,,,,,,,,,,,,,,,1878.4803622000036,1879.4973406000063,1877.2327094000066,1877.2327094000066,1877.2327094000066,1877.2327094000066,old_stationery_37.png,273,3.0,1.2452361999894492,,,065,01,2025-04-04_13h59.04.811,Surprise recog test,2023.1.3,59.95419499870822,
273,0,273,0,,,,,,,,,,,,,,,,,,,,,,,,,,,,,,,,,,1880.432497700007,1881.45350090001,1879.4973406000063,1879.4973406000063,1879.4973406000063,1879.4973406000063,old_sceneIn_30.png,274,5.0,0.9352663000026951,,,065,01,2025-04-04_13h59.04.811,Surprise recog test,2023.1.3,59.95419499870822,
274,0,274,0,,,,,,,,,,,,,,,,,,,,,,,,,,,,,,,,,,1883.083975200003,1884.1063625000097,1881.45350090001,1881.45350090001,1881.45350090001,1881.45350090001,old_stationery_32.png,275,4.0,1.631231299994397,,,065,01,2025-04-04_13h59.04.811,Surprise recog test,2023.1.3,59.95419499870822,
275,0,275,0,,,,,,,,,,,,,,,,,,,,,,,,,,,,,,,,,,1886.447179900002,1887.473876300006,1884.1063625000097,1884.1063625000097,1884.1063625000097,1884.1063625000097,old_fruit_33.png,276,2.0,2.3435419000015827,,,065,01,2025-04-04_13h59.04.811,Surprise recog test,2023.1.3,59.95419499870822,
276,0,276,0,,,,,,,,,,,,,,,,,,,,,,,,,,,,,,,,,,1889.1313000000082,1890.1569411000091,1887.473876300006,1887.473876300006,1887.473876300006,1887.473876300006,new_sceneOut_43.png,277,5.0,1.6573359999893,,,065,01,2025-04-04_13h59.04.811,Surprise recog test,2023.1.3,59.95419499870822,
277,0,277,0,,,,,,,,,,,,,,,,,,,,,,,,,,,,,,,,,,1891.2076162000012,1892.2166943000047,1890.1569411000091,1890.1569411000091,1890.1569411000091,1890.1569411000091,new_fruit_28.png,278,4.0,1.0470870999997715,,,065,01,2025-04-04_13h59.04.811,Surprise recog test,2023.1.3,59.95419499870822,
278,0,278,0,,,,,,,,,,,,,,,,,,,,,,,,,,,,,,,,,,1893.333049000008,1894.3652992999996,1892.2166943000047,1892.2166943000047,1892.2166943000047,1892.2166943000047,old_sceneIn_12.png,279,5.0,1.1116495999885956,,,065,01,2025-04-04_13h59.04.811,Surprise recog test,2023.1.3,59.95419499870822,
279,0,279,0,,,,,,,,,,,,,,,,,,,,,,,,,,,,,,,,,,1895.5778787000017,1896.5924316000019,1894.3652992999996,1894.3652992999996,1894.3652992999996,1894.3652992999996,new_sceneOut_6.png,280,5.0,1.2100491000019247,,,065,01,2025-04-04_13h59.04.811,Surprise recog test,2023.1.3,59.95419499870822,
280,0,280,0,,,,,,,,,,,,,,,,,,,,,,,,,,,,,,,,,,1897.5628079000016,1898.5725126000034,1896.5924316000019,1896.5924316000019,1896.5924316000019,1896.5924316000019,old_sceneIn_39.png,281,4.0,0.9663030999945477,,,065,01,2025-04-04_13h59.04.811,Surprise recog test,2023.1.3,59.95419499870822,
281,0,281,0,,,,,,,,,,,,,,,,,,,,,,,,,,,,,,,,,,1899.9371840000094,1900.9617548000097,1898.5725126000034,1898.5725126000034,1898.5725126000034,1898.5725126000034,new_sceneIn_30.png,282,5.0,1.3632939000090118,,,065,01,2025-04-04_13h59.04.811,Surprise recog test,2023.1.3,59.95419499870822,
282,0,282,0,,,,,,,,,,,,,,,,,,,,,,,,,,,,,,,,,,1902.30008120001,1903.3184962000087,1900.9617548000097,1900.9617548000097,1900.9617548000097,1900.9617548000097,old_stationery_10.png,283,1.0,1.333621600002516,,,065,01,2025-04-04_13h59.04.811,Surprise recog test,2023.1.3,59.95419499870822,
283,0,283,0,,,,,,,,,,,,,,,,,,,,,,,,,,,,,,,,,,1904.6819806999993,1905.6941247000068,1903.3184962000087,1903.3184962000087,1903.3184962000087,1903.3184962000087,old_fruit_6.png,284,4.0,1.3657944000005955,,,065,01,2025-04-04_13h59.04.811,Surprise recog test,2023.1.3,59.95419499870822,
284,0,284,0,,,,,,,,,,,,,,,,,,,,,,,,,,,,,,,,,,1907.0145126999996,1908.0424446000106,1905.6941247000068,1905.6941247000068,1905.6941247000068,1905.6941247000068,old_sceneOut_25.png,285,4.0,1.3159099000040442,,,065,01,2025-04-04_13h59.04.811,Surprise recog test,2023.1.3,59.95419499870822,
285,0,285,0,,,,,,,,,,,,,,,,,,,,,,,,,,,,,,,,,,1909.422953100002,1910.4435516000085,1908.0424446000106,1908.0424446000106,1908.0424446000106,1908.0424446000106,old_stationery_25.png,286,1.0,1.3838783999963198,,,065,01,2025-04-04_13h59.04.811,Surprise recog test,2023.1.3,59.95419499870822,
286,0,286,0,,,,,,,,,,,,,,,,,,,,,,,,,,,,,,,,,,1912.263320099999,1913.2904545000056,1910.4435516000085,1910.4435516000085,1910.4435516000085,1910.4435516000085,new_fruit_21.png,287,4.0,1.8208807000046363,,,065,01,2025-04-04_13h59.04.811,Surprise recog test,2023.1.3,59.95419499870822,
287,0,287,0,,,,,,,,,,,,,,,,,,,,,,,,,,,,,,,,,,1914.3369684000063,1915.359338299997,1913.2904545000056,1913.2904545000056,1913.2904545000056,1913.2904545000056,old_sceneOut_11.png,288,5.0,1.0463037000008626,,,065,01,2025-04-04_13h59.04.811,Surprise recog test,2023.1.3,59.95419499870822,
288,0,288,0,,,,,,,,,,,,,,,,,,,,,,,,,,,,,,,,,,1916.563006700002,1917.5701626000082,1915.359338299997,1915.359338299997,1915.359338299997,1915.359338299997,old_sceneIn_28.png,289,5.0,1.2005788999958895,,,065,01,2025-04-04_13h59.04.811,Surprise recog test,2023.1.3,59.95419499870822,
289,0,289,0,,,,,,,,,,,,,,,,,,,,,,,,,,,,,,,,,,1919.7163099000027,1920.7286351000075,1917.5701626000082,1917.5701626000082,1917.5701626000082,1917.5701626000082,new_fruit_8.png,290,3.0,2.1430144000041764,,,065,01,2025-04-04_13h59.04.811,Surprise recog test,2023.1.3,59.95419499870822,
290,0,290,0,,,,,,,,,,,,,,,,,,,,,,,,,,,,,,,,,,1921.9926590000105,1923.0191927999986,1920.7286351000075,1920.7286351000075,1920.7286351000075,1920.7286351000075,old_sceneOut_23.png,291,4.0,1.2612684999912744,,,065,01,2025-04-04_13h59.04.811,Surprise recog test,2023.1.3,59.95419499870822,
291,0,291,0,,,,,,,,,,,,,,,,,,,,,,,,,,,,,,,,,,1923.7664566000021,1924.7902447000088,1923.0191927999986,1923.0191927999986,1923.0191927999986,1923.0191927999986,new_sceneIn_23.png,292,5.0,0.7452439000044251,,,065,01,2025-04-04_13h59.04.811,Surprise recog test,2023.1.3,59.95419499870822,
292,0,292,0,,,,,,,,,,,,,,,,,,,,,,,,,,,,,,,,,,1926.262791400004,1927.2747774000018,1924.7902447000088,1924.7902447000088,1924.7902447000088,1924.7902447000088,new_sceneOut_28.png,293,4.0,1.473689500009641,,,065,01,2025-04-04_13h59.04.811,Surprise recog test,2023.1.3,59.95419499870822,
293,0,293,0,,,,,,,,,,,,,,,,,,,,,,,,,,,,,,,,,,1928.9055556000094,1929.9206881999999,1927.2747774000018,1927.2747774000018,1927.2747774000018,1927.2747774000018,old_stationery_39.png,294,1.0,1.622782599995844,,,065,01,2025-04-04_13h59.04.811,Surprise recog test,2023.1.3,59.95419499870822,
294,0,294,0,,,,,,,,,,,,,,,,,,,,,,,,,,,,,,,,,,1932.1854076000018,1933.2108471000101,1929.9206881999999,1929.9206881999999,1929.9206881999999,1929.9206881999999,old_stationery_4.png,295,4.0,2.2646827999997186,,,065,01,2025-04-04_13h59.04.811,Surprise recog test,2023.1.3,59.95419499870822,
295,0,295,0,,,,,,,,,,,,,,,,,,,,,,,,,,,,,,,,,,1934.4235534000036,1935.4457886000018,1933.2108471000101,1933.2108471000101,1933.2108471000101,1933.2108471000101,new_sceneIn_46.png,296,5.0,1.2136788000061642,,,065,01,2025-04-04_13h59.04.811,Surprise recog test,2023.1.3,59.95419499870822,
296,0,296,0,,,,,,,,,,,,,,,,,,,,,,,,,,,,,,,,,,1936.734141599998,1937.7680062,1935.4457886000018,1935.4457886000018,1935.4457886000018,1935.4457886000018,new_stationery_49.png,297,5.0,1.29012689999945,,,065,01,2025-04-04_13h59.04.811,Surprise recog test,2023.1.3,59.95419499870822,
297,0,297,0,,,,,,,,,,,,,,,,,,,,,,,,,,,,,,,,,,1939.2149649000057,1940.234355499997,1937.7680062,1937.7680062,1937.7680062,1937.7680062,new_sceneIn_27.png,298,5.0,1.4508209000050556,,,065,01,2025-04-04_13h59.04.811,Surprise recog test,2023.1.3,59.95419499870822,
298,0,298,0,,,,,,,,,,,,,,,,,,,,,,,,,,,,,,,,,,1941.1364399000013,,1940.234355499997,1940.234355499997,1940.234355499997,1940.234355499997,old_sceneIn_43.png,299,4.0,0.9051545999973314,,,065,01,2025-04-04_13h59.04.811,Surprise recog test,2023.1.3,59.95419499870822,
299,0,299,0,,,,,,,,,,,,,,,,,,,,,,,,,,,,,,,,,,1943.3994824999972,1944.4211165000015,1942.1585230000055,1942.1585230000055,1942.1585230000055,1942.1585230000055,old_sceneOut_42.png,300,5.0,1.2387274999928195,,,065,01,2025-04-04_13h59.04.811,Surprise recog test,2023.1.3,59.95419499870822,
300,0,300,0,,,,,,,,,,,,,,,,,,,,,,,,,,,,,,,,,,1946.6000467999984,1947.6243730999995,1944.4211165000015,1944.4211165000015,1944.4211165000015,1944.4211165000015,new_fruit_15.png,301,5.0,2.178171299994574,,,065,01,2025-04-04_13h59.04.811,Surprise recog test,2023.1.3,59.95419499870822,
301,0,301,0,,,,,,,,,,,,,,,,,,,,,,,,,,,,,,,,,,1949.2390152000007,1950.2522207000002,1947.6243730999995,1947.6243730999995,1947.6243730999995,1947.6243730999995,old_fruit_26.png,302,3.0,1.6160594999964815,,,065,01,2025-04-04_13h59.04.811,Surprise recog test,2023.1.3,59.95419499870822,
302,0,302,0,,,,,,,,,,,,,,,,,,,,,,,,,,,,,,,,,,1952.9388476000022,1953.963614200009,1950.2522207000002,1950.2522207000002,1950.2522207000002,1950.2522207000002,new_stationery_1.png,303,4.0,2.687558000005083,,,065,01,2025-04-04_13h59.04.811,Surprise recog test,2023.1.3,59.95419499870822,
303,0,303,0,,,,,,,,,,,,,,,,,,,,,,,,,,,,,,,,,,1955.1787805000058,1956.1818090000015,1953.963614200009,1953.963614200009,1953.963614200009,1953.963614200009,old_sceneOut_8.png,304,5.0,1.2170754999970086,,,065,01,2025-04-04_13h59.04.811,Surprise recog test,2023.1.3,59.95419499870822,
304,0,304,0,,,,,,,,,,,,,,,,,,,,,,,,,,,,,,,,,,1957.748424000005,,1956.1818090000015,1956.1818090000015,1956.1818090000015,1956.1818090000015,old_stationery_9.png,305,4.0,1.5622182000079192,,,065,01,2025-04-04_13h59.04.811,Surprise recog test,2023.1.3,59.95419499870822,
305,0,305,0,,,,,,,,,,,,,,,,,,,,,,,,,,,,,,,,,,1959.881350399999,1960.903182000009,1958.7774570000038,1958.7774570000038,1958.7774570000038,1958.7774570000038,old_fruit_10.png,306,5.0,1.100283000007039,,,065,01,2025-04-04_13h59.04.811,Surprise recog test,2023.1.3,59.95419499870822,
306,0,306,0,,,,,,,,,,,,,,,,,,,,,,,,,,,,,,,,,,1962.7583723999996,1963.7829656999966,1960.903182000009,1960.903182000009,1960.903182000009,1960.903182000009,new_fruit_27.png,307,4.0,1.858566900002188,,,065,01,2025-04-04_13h59.04.811,Surprise recog test,2023.1.3,59.95419499870822,
307,0,307,0,,,,,,,,,,,,,,,,,,,,,,,,,,,,,,,,,,1964.837016000005,1965.8439661000011,1963.7829656999966,1963.7829656999966,1963.7829656999966,1963.7829656999966,new_sceneOut_16.png,308,5.0,1.0564951999986079,,,065,01,2025-04-04_13h59.04.811,Surprise recog test,2023.1.3,59.95419499870822,
308,0,308,0,,,,,,,,,,,,,,,,,,,,,,,,,,,,,,,,,,1967.1670720999973,1968.1753404000046,1965.8439661000011,1965.8439661000011,1965.8439661000011,1965.8439661000011,new_sceneOut_10.png,309,5.0,1.317625900002895,,,065,01,2025-04-04_13h59.04.811,Surprise recog test,2023.1.3,59.95419499870822,
309,0,309,0,,,,,,,,,,,,,,,,,,,,,,,,,,,,,,,,,,1970.106359700003,1971.1204346000013,1968.1753404000046,1968.1753404000046,1968.1753404000046,1968.1753404000046,new_fruit_2.png,310,4.0,1.9203833999927156,,,065,01,2025-04-04_13h59.04.811,Surprise recog test,2023.1.3,59.95419499870822,
310,0,310,0,,,,,,,,,,,,,,,,,,,,,,,,,,,,,,,,,,1972.9646758000017,1974.0067358000088,1971.1204346000013,1971.1204346000013,1971.1204346000013,1971.1204346000013,new_stationery_18.png,311,3.0,1.845346200003405,,,065,01,2025-04-04_13h59.04.811,Surprise recog test,2023.1.3,59.95419499870822,
311,0,311,0,,,,,,,,,,,,,,,,,,,,,,,,,,,,,,,,,,1974.9417058000108,1975.9640837000043,1974.0067358000088,1974.0067358000088,1974.0067358000088,1974.0067358000088,old_fruit_34.png,312,4.0,0.937122500006808,,,065,01,2025-04-04_13h59.04.811,Surprise recog test,2023.1.3,59.95419499870822,
312,0,312,0,,,,,,,,,,,,,,,,,,,,,,,,,,,,,,,,,,1977.4975472000078,1978.515225199997,1975.9640837000043,1975.9640837000043,1975.9640837000043,1975.9640837000043,new_fruit_3.png,313,5.0,1.5361566000065068,,,065,01,2025-04-04_13h59.04.811,Surprise recog test,2023.1.3,59.95419499870822,
313,0,313,0,,,,,,,,,,,,,,,,,,,,,,,,,,,,,,,,,,1979.5996116000024,1980.6147880000062,1978.515225199997,1978.515225199997,1978.515225199997,1978.515225199997,old_fruit_20.png,314,4.0,1.0855991000134964,,,065,01,2025-04-04_13h59.04.811,Surprise recog test,2023.1.3,59.95419499870822,
314,0,314,0,,,,,,,,,,,,,,,,,,,,,,,,,,,,,,,,,,1982.7498166000005,1983.7670180999994,1980.6147880000062,1980.6147880000062,1980.6147880000062,1980.6147880000062,old_fruit_35.png,315,3.0,2.1333350000059,,,065,01,2025-04-04_13h59.04.811,Surprise recog test,2023.1.3,59.95419499870822,
315,0,315,0,,,,,,,,,,,,,,,,,,,,,,,,,,,,,,,,,,1984.7339524999988,1985.756307100004,1983.7670180999994,1983.7670180999994,1983.7670180999994,1983.7670180999994,new_fruit_25.png,316,4.0,0.9678927999921143,,,065,01,2025-04-04_13h59.04.811,Surprise recog test,2023.1.3,59.95419499870822,
316,0,316,0,,,,,,,,,,,,,,,,,,,,,,,,,,,,,,,,,,1986.6869186999975,1987.6944829999993,1985.756307100004,1985.756307100004,1985.756307100004,1985.756307100004,old_sceneOut_50.png,317,5.0,0.9328170999942813,,,065,01,2025-04-04_13h59.04.811,Surprise recog test,2023.1.3,59.95419499870822,
317,0,317,0,,,,,,,,,,,,,,,,,,,,,,,,,,,,,,,,,,1990.3207970000076,1991.3398400000005,1987.6944829999993,1987.6944829999993,1987.6944829999993,1987.6944829999993,old_stationery_30.png,318,1.0,2.6222807000012835,,,065,01,2025-04-04_13h59.04.811,Surprise recog test,2023.1.3,59.95419499870822,
318,0,318,0,,,,,,,,,,,,,,,,,,,,,,,,,,,,,,,,,,1993.0342486000009,1994.0622966000083,1991.3398400000005,1991.3398400000005,1991.3398400000005,1991.3398400000005,old_stationery_24.png,319,3.0,1.6938693999982206,,,065,01,2025-04-04_13h59.04.811,Surprise recog test,2023.1.3,59.95419499870822,
319,0,319,0,,,,,,,,,,,,,,,,,,,,,,,,,,,,,,,,,,1994.9996122000011,1996.0324924000015,1994.0622966000083,1994.0622966000083,1994.0622966000083,1994.0622966000083,new_sceneOut_29.png,320,5.0,0.9375109000102384,,,065,01,2025-04-04_13h59.04.811,Surprise recog test,2023.1.3,59.95419499870822,
320,0,320,0,,,,,,,,,,,,,,,,,,,,,,,,,,,,,,,,,,1997.185768299998,1998.2135681000073,1996.0324924000015,1996.0324924000015,1996.0324924000015,1996.0324924000015,old_sceneOut_13.png,321,5.0,1.1557984999963082,,,065,01,2025-04-04_13h59.04.811,Surprise recog test,2023.1.3,59.95419499870822,
321,0,321,0,,,,,,,,,,,,,,,,,,,,,,,,,,,,,,,,,,1999.8038601000007,2000.830466600004,1998.2135681000073,1998.2135681000073,1998.2135681000073,1998.2135681000073,old_stationery_12.png,322,1.0,1.592561299999943,,,065,01,2025-04-04_13h59.04.811,Surprise recog test,2023.1.3,59.95419499870822,
322,0,322,0,,,,,,,,,,,,,,,,,,,,,,,,,,,,,,,,,,2001.8376063000032,2002.8702061000076,2000.830466600004,2000.830466600004,2000.830466600004,2000.830466600004,new_sceneIn_3.png,323,5.0,1.0064672000007704,,,065,01,2025-04-04_13h59.04.811,Surprise recog test,2023.1.3,59.95419499870822,
323,0,323,0,,,,,,,,,,,,,,,,,,,,,,,,,,,,,,,,,,2003.8854639000056,2004.8976361000095,2002.8702061000076,2002.8702061000076,2002.8702061000076,2002.8702061000076,old_sceneIn_47.png,324,4.0,1.0163067999965278,,,065,01,2025-04-04_13h59.04.811,Surprise recog test,2023.1.3,59.95419499870822,
324,0,324,0,,,,,,,,,,,,,,,,,,,,,,,,,,,,,,,,,,2006.0971029000066,2007.1213508000073,2004.8976361000095,2004.8976361000095,2004.8976361000095,2004.8976361000095,new_stationery_8.png,325,5.0,1.2005577999952948,,,065,01,2025-04-04_13h59.04.811,Surprise recog test,2023.1.3,59.95419499870822,
325,0,325,0,,,,,,,,,,,,,,,,,,,,,,,,,,,,,,,,,,2008.1115688999998,2009.1399984000018,2007.1213508000073,2007.1213508000073,2007.1213508000073,2007.1213508000073,old_sceneIn_38.png,326,5.0,0.9923425000015413,,,065,01,2025-04-04_13h59.04.811,Surprise recog test,2023.1.3,59.95419499870822,
326,0,326,0,,,,,,,,,,,,,,,,,,,,,,,,,,,,,,,,,,2010.8161880999978,2011.8423317999986,2009.1399984000018,2009.1399984000018,2009.1399984000018,2009.1399984000018,old_stationery_7.png,327,3.0,1.6760421000071801,,,065,01,2025-04-04_13h59.04.811,Surprise recog test,2023.1.3,59.95419499870822,
327,0,327,0,,,,,,,,,,,,,,,,,,,,,,,,,,,,,,,,,,2012.9080219000025,2013.9229269000061,2011.8423317999986,2011.8423317999986,2011.8423317999986,2011.8423317999986,new_fruit_45.png,328,4.0,1.0671447999920929,,,065,01,2025-04-04_13h59.04.811,Surprise recog test,2023.1.3,59.95419499870822,
328,0,328,0,,,,,,,,,,,,,,,,,,,,,,,,,,,,,,,,,,2014.946486300003,,2013.9229269000061,2013.9229269000061,2013.9229269000061,2013.9229269000061,old_sceneIn_25.png,329,5.0,1.0249213999923086,,,065,01,2025-04-04_13h59.04.811,Surprise recog test,2023.1.3,59.95419499870822,
329,0,329,0,,,,,,,,,,,,,,,,,,,,,,,,,,,,,,,,,,2016.8925296000089,2017.9104866999987,2015.9767871000076,2015.9767871000076,2015.9767871000076,2015.9767871000076,new_sceneOut_50.png,330,5.0,0.9163661999918986,,,065,01,2025-04-04_13h59.04.811,Surprise recog test,2023.1.3,59.95419499870822,
330,0,330,0,,,,,,,,,,,,,,,,,,,,,,,,,,,,,,,,,,2019.4807090999966,2020.5013124000106,2017.9104866999987,2017.9104866999987,2017.9104866999987,2017.9104866999987,old_stationery_42.png,331,3.0,1.5610918999882415,,,065,01,2025-04-04_13h59.04.811,Surprise recog test,2023.1.3,59.95419499870822,
331,0,331,0,,,,,,,,,,,,,,,,,,,,,,,,,,,,,,,,,,2021.5178168999992,,2020.5013124000106,2020.5013124000106,2020.5013124000106,2020.5013124000106,new_sceneOut_18.png,332,5.0,1.015628300010576,,,065,01,2025-04-04_13h59.04.811,Surprise recog test,2023.1.3,59.95419499870822,
332,0,332,0,,,,,,,,,,,,,,,,,,,,,,,,,,,,,,,,,,2023.8593133999966,2024.885441899998,2022.5451068999973,2022.5451068999973,2022.5451068999973,2022.5451068999973,new_fruit_39.png,333,5.0,1.3132044000085443,,,065,01,2025-04-04_13h59.04.811,Surprise recog test,2023.1.3,59.95419499870822,
333,0,333,0,,,,,,,,,,,,,,,,,,,,,,,,,,,,,,,,,,2025.9042888999975,,2024.885441899998,2024.885441899998,2024.885441899998,2024.885441899998,new_sceneIn_26.png,334,5.0,1.0186921999993501,,,065,01,2025-04-04_13h59.04.811,Surprise recog test,2023.1.3,59.95419499870822,
334,0,334,0,,,,,,,,,,,,,,,,,,,,,,,,,,,,,,,,,,2027.7776300999976,2028.810234100005,2026.925656899999,2026.925656899999,2026.925656899999,2026.925656899999,old_sceneOut_32.png,335,5.0,0.8491727000073297,,,065,01,2025-04-04_13h59.04.811,Surprise recog test,2023.1.3,59.95419499870822,
335,0,335,0,,,,,,,,,,,,,,,,,,,,,,,,,,,,,,,,,,2029.9081320999976,,2028.810234100005,2028.810234100005,2028.810234100005,2028.810234100005,new_sceneOut_9.png,336,5.0,1.1021427999949083,,,065,01,2025-04-04_13h59.04.811,Surprise recog test,2023.1.3,59.95419499870822,
336,0,336,0,,,,,,,,,,,,,,,,,,,,,,,,,,,,,,,,,,2032.0572479999973,2033.0750522000017,2030.9371599000006,2030.9371599000006,2030.9371599000006,2030.9371599000006,old_sceneOut_15.png,337,5.0,1.1213599000038812,,,065,01,2025-04-04_13h59.04.811,Surprise recog test,2023.1.3,59.95419499870822,
337,0,337,0,,,,,,,,,,,,,,,,,,,,,,,,,,,,,,,,,,2034.4930441000033,2035.517300899999,2033.0750522000017,2033.0750522000017,2033.0750522000017,2033.0750522000017,old_sceneIn_42.png,338,4.0,1.4139560999901732,,,065,01,2025-04-04_13h59.04.811,Surprise recog test,2023.1.3,59.95419499870822,
338,0,338,0,,,,,,,,,,,,,,,,,,,,,,,,,,,,,,,,,,2037.4727404000005,2038.4927961000067,2035.517300899999,2035.517300899999,2035.517300899999,2035.517300899999,old_fruit_50.png,339,5.0,1.957214699999895,,,065,01,2025-04-04_13h59.04.811,Surprise recog test,2023.1.3,59.95419499870822,
339,0,339,0,,,,,,,,,,,,,,,,,,,,,,,,,,,,,,,,,,2039.7662513999967,,2038.4927961000067,2038.4927961000067,2038.4927961000067,2038.4927961000067,new_sceneIn_13.png,340,5.0,1.2734165000001667,,,065,01,2025-04-04_13h59.04.811,Surprise recog test,2023.1.3,59.95419499870822,
340,0,340,0,,,,,,,,,,,,,,,,,,,,,,,,,,,,,,,,,,2042.9433637000038,2043.9695060000086,2040.7894450000022,2040.7894450000022,2040.7894450000022,2040.7894450000022,old_stationery_36.png,341,3.0,2.153387600003043,,,065,01,2025-04-04_13h59.04.811,Surprise recog test,2023.1.3,59.95419499870822,
341,0,341,0,,,,,,,,,,,,,,,,,,,,,,,,,,,,,,,,,,2045.0019272000063,2046.0177151000098,2043.9695060000086,2043.9695060000086,2043.9695060000086,2043.9695060000086,old_sceneIn_20.png,342,4.0,1.0279712000046857,,,065,01,2025-04-04_13h59.04.811,Surprise recog test,2023.1.3,59.95419499870822,
342,0,342,0,,,,,,,,,,,,,,,,,,,,,,,,,,,,,,,,,,2047.174366799998,,2046.0177151000098,2046.0177151000098,2046.0177151000098,2046.0177151000098,new_sceneOut_27.png,343,5.0,1.1578502999909688,,,065,01,2025-04-04_13h59.04.811,Surprise recog test,2023.1.3,59.95419499870822,
343,0,343,0,,,,,,,,,,,,,,,,,,,,,,,,,,,,,,,,,,2049.594968999998,2050.623175300003,2048.2081631000037,2048.2081631000037,2048.2081631000037,2048.2081631000037,new_stationery_48.png,344,5.0,1.3900283000111813,,,065,01,2025-04-04_13h59.04.811,Surprise recog test,2023.1.3,59.95419499870822,
344,0,344,0,,,,,,,,,,,,,,,,,,,,,,,,,,,,,,,,,,2052.222256599998,2053.2440705000045,2050.623175300003,2050.623175300003,2050.623175300003,2050.623175300003,new_stationery_21.png,345,4.0,1.599007699987851,,,065,01,2025-04-04_13h59.04.811,Surprise recog test,2023.1.3,59.95419499870822,
345,0,345,0,,,,,,,,,,,,,,,,,,,,,,,,,,,,,,,,,,2054.099129299997,2055.126040300005,2053.2440705000045,2053.2440705000045,2053.2440705000045,2053.2440705000045,old_sceneIn_27.png,346,5.0,0.8555704000027617,,,065,01,2025-04-04_13h59.04.811,Surprise recog test,2023.1.3,59.95419499870822,
346,0,346,0,,,,,,,,,,,,,,,,,,,,,,,,,,,,,,,,,,2056.7845666000067,2057.817429200004,2055.126040300005,2055.126040300005,2055.126040300005,2055.126040300005,new_stationery_23.png,347,3.0,1.6597624999994878,,,065,01,2025-04-04_13h59.04.811,Surprise recog test,2023.1.3,59.95419499870822,
347,0,347,0,,,,,,,,,,,,,,,,,,,,,,,,,,,,,,,,,,2059.3606950000103,2060.3852109,2057.817429200004,2057.817429200004,2057.817429200004,2057.817429200004,old_fruit_30.png,348,1.0,1.545929800005979,,,065,01,2025-04-04_13h59.04.811,Surprise recog test,2023.1.3,59.95419499870822,
348,0,348,0,,,,,,,,,,,,,,,,,,,,,,,,,,,,,,,,,,2061.3407986000093,2062.3693367000087,2060.3852109,2060.3852109,2060.3852109,2060.3852109,old_sceneOut_7.png,349,5.0,0.9585026999993715,,,065,01,2025-04-04_13h59.04.811,Surprise recog test,2023.1.3,59.95419499870822,
349,0,349,0,,,,,,,,,,,,,,,,,,,,,,,,,,,,,,,,,,2063.332582700008,2064.348732700004,2062.3693367000087,2062.3693367000087,2062.3693367000087,2062.3693367000087,new_sceneIn_16.png,350,5.0,0.9657176000036998,,,065,01,2025-04-04_13h59.04.811,Surprise recog test,2023.1.3,59.95419499870822,
