trial_loop.thisRepN,trial_loop.thisTrialN,trial_loop.thisN,trial_loop.thisIndex,VAS_slider.started,VAS_text.started,VAS_notstressed_text.started,VAS_stressed_text.started,continue_input.started,continue_text.started,label0.started,label10.started,label20.started,label30.started,label40.started,label50.started,label60.started,label70.started,label80.started,label90.started,label100.started,VAS_slider.response,VAS_slider.rt,VAS_slider.history,Answer_VAS,continue_input.keys,continue_input.rt,continue_input.duration,instruction_text.started,continue_text_2.started,continue_input_2.started,continue_input_2.keys,continue_input_2.rt,continue_input_2.duration,example_text.started,example_slider_2.started,example_image.started,example_slider_2.response,example_slider_2.rt,fixcross.started,fixcross.stopped,front_square.started,stim_images.started,trial_inst_images.started,slider_images.started,thisImg,trial_count,slider_images.response,slider_images.rt,slider_images.stopped,outro.started,participant,condition,date,expName,psychopyVersion,frameRate,
,,,,158.35133069986477,158.35133069986477,158.35133069986477,158.35133069986477,158.35133069986477,158.35133069986477,158.35133069986477,158.35133069986477,158.35133069986477,158.35133069986477,158.35133069986477,158.35133069986477,158.35133069986477,158.35133069986477,158.35133069986477,158.35133069986477,158.35133069986477,None,None,[],0.9599999999999982,space,11.162728700088337,None,,,,,,,,,,,,,,,,,,,,,,,,067,11,2025-03-28_14h05.45.542,Surprise recog test,2023.1.3,59.96444113675866,
,,,,,,,,,,,,,,,,,,,,,,,,,,,,169.62392959999852,169.62392959999852,169.62392959999852,space,25.434726900188252,None,,,,,,,,,,,,,,,,,,067,11,2025-03-28_14h05.45.542,Surprise recog test,2023.1.3,59.96444113675866,
0,0,0,0,,,,,,,,,,,,,,,,,,,,,,,,,,,,,,,195.1966166999191,195.1966166999191,195.1966166999191,1.0,3.6938500001560897,203.21095069986768,204.23769279988483,199.83982319990173,199.83982319990173,199.83982319990173,199.83982319990173,old_sceneIn_5.png,1,4.0,3.3759242000523955,,,067,11,2025-03-28_14h05.45.542,Surprise recog test,2023.1.3,59.96444113675866,
1,0,1,0,,,,,,,,,,,,,,,,,,,,,,,,,,,,,,,,,,,,205.83887810003944,206.86139400000684,204.23769279988483,204.23769279988483,204.23769279988483,204.23769279988483,new_sceneOut_3.png,2,2.0,1.5994887999258935,,,067,11,2025-03-28_14h05.45.542,Surprise recog test,2023.1.3,59.96444113675866,
2,0,2,0,,,,,,,,,,,,,,,,,,,,,,,,,,,,,,,,,,,,208.46865279995836,209.49061949993484,206.86139400000684,206.86139400000684,206.86139400000684,206.86139400000684,new_fruit_19.png,3,3.0,1.6108181001618505,,,067,11,2025-03-28_14h05.45.542,Surprise recog test,2023.1.3,59.96444113675866,
3,0,3,0,,,,,,,,,,,,,,,,,,,,,,,,,,,,,,,,,,,,211.04027369990945,212.0640626999084,209.49061949993484,209.49061949993484,209.49061949993484,209.49061949993484,new_sceneOut_41.png,4,2.0,1.549987600184977,,,067,11,2025-03-28_14h05.45.542,Surprise recog test,2023.1.3,59.96444113675866,
4,0,4,0,,,,,,,,,,,,,,,,,,,,,,,,,,,,,,,,,,,,213.81499659991823,,212.0640626999084,212.0640626999084,212.0640626999084,212.0640626999084,new_stationery_6.png,5,4.0,1.7512038999702781,,,067,11,2025-03-28_14h05.45.542,Surprise recog test,2023.1.3,59.96444113675866,
5,0,5,0,,,,,,,,,,,,,,,,,,,,,,,,,,,,,,,,,,,,216.22960179997608,217.2398720998317,214.83301119995303,214.83301119995303,214.83301119995303,214.83301119995303,new_fruit_29.png,6,2.0,1.3923559000249952,,,067,11,2025-03-28_14h05.45.542,Surprise recog test,2023.1.3,59.96444113675866,
6,0,6,0,,,,,,,,,,,,,,,,,,,,,,,,,,,,,,,,,,,,218.5232146999333,219.55103780003265,217.2398720998317,217.2398720998317,217.2398720998317,217.2398720998317,old_sceneOut_42.png,7,2.0,1.2794538999442011,,,067,11,2025-03-28_14h05.45.542,Surprise recog test,2023.1.3,59.96444113675866,
7,0,7,0,,,,,,,,,,,,,,,,,,,,,,,,,,,,,,,,,,,,221.2011979999952,222.21989990002476,219.55103780003265,219.55103780003265,219.55103780003265,219.55103780003265,new_sceneIn_41.png,8,4.0,1.6515919999219477,,,067,11,2025-03-28_14h05.45.542,Surprise recog test,2023.1.3,59.96444113675866,
8,0,8,0,,,,,,,,,,,,,,,,,,,,,,,,,,,,,,,,,,,,224.08456119988114,225.09114159992896,222.21989990002476,222.21989990002476,222.21989990002476,222.21989990002476,new_fruit_24.png,9,3.0,1.8681505999993533,,,067,11,2025-03-28_14h05.45.542,Surprise recog test,2023.1.3,59.96444113675866,
9,0,9,0,,,,,,,,,,,,,,,,,,,,,,,,,,,,,,,,,,,,226.6357556998264,227.66221640002914,225.09114159992896,225.09114159992896,225.09114159992896,225.09114159992896,new_fruit_41.png,10,1.0,1.5405311998911202,,,067,11,2025-03-28_14h05.45.542,Surprise recog test,2023.1.3,59.96444113675866,
10,0,10,0,,,,,,,,,,,,,,,,,,,,,,,,,,,,,,,,,,,,229.40881049982272,230.41735469992273,227.66221640002914,227.66221640002914,227.66221640002914,227.66221640002914,old_sceneIn_27.png,11,3.0,1.750500899972394,,,067,11,2025-03-28_14h05.45.542,Surprise recog test,2023.1.3,59.96444113675866,
11,0,11,0,,,,,,,,,,,,,,,,,,,,,,,,,,,,,,,,,,,,232.31309539987706,,230.41735469992273,230.41735469992273,230.41735469992273,230.41735469992273,new_stationery_18.png,12,4.0,1.8917574000079185,,,067,11,2025-03-28_14h05.45.542,Surprise recog test,2023.1.3,59.96444113675866,
12,0,12,0,,,,,,,,,,,,,,,,,,,,,,,,,,,,,,,,,,,,234.8840281998273,,233.33524909988046,233.33524909988046,233.33524909988046,233.33524909988046,new_sceneIn_24.png,13,2.0,1.545233199838549,,,067,11,2025-03-28_14h05.45.542,Surprise recog test,2023.1.3,59.96444113675866,
13,0,13,0,,,,,,,,,,,,,,,,,,,,,,,,,,,,,,,,,,,,237.4250086999964,238.44378390000202,235.9157741998788,235.9157741998788,235.9157741998788,235.9157741998788,new_sceneOut_23.png,14,1.0,1.5112918000668287,,,067,11,2025-03-28_14h05.45.542,Surprise recog test,2023.1.3,59.96444113675866,
14,0,14,0,,,,,,,,,,,,,,,,,,,,,,,,,,,,,,,,,,,,240.02083139983006,,238.44378390000202,238.44378390000202,238.44378390000202,238.44378390000202,new_stationery_29.png,15,3.0,1.5694181001745164,,,067,11,2025-03-28_14h05.45.542,Surprise recog test,2023.1.3,59.96444113675866,
15,0,15,0,,,,,,,,,,,,,,,,,,,,,,,,,,,,,,,,,,,,246.02651919983327,,241.0552387998905,241.0552387998905,241.0552387998905,241.0552387998905,new_sceneOut_43.png,16,None,None,246.01987889991142,,067,11,2025-03-28_14h05.45.542,Surprise recog test,2023.1.3,59.96444113675866,
16,0,16,0,,,,,,,,,,,,,,,,,,,,,,,,,,,,,,,,,,,,248.49537330004387,,247.04667799989693,247.04667799989693,247.04667799989693,247.04667799989693,new_sceneIn_13.png,17,2.0,1.4440599998924881,,,067,11,2025-03-28_14h05.45.542,Surprise recog test,2023.1.3,59.96444113675866,
17,0,17,0,,,,,,,,,,,,,,,,,,,,,,,,,,,,,,,,,,,,251.15414269990288,252.17934839986265,249.5137002998963,249.5137002998963,249.5137002998963,249.5137002998963,new_sceneOut_7.png,18,3.0,1.63474170002155,,,067,11,2025-03-28_14h05.45.542,Surprise recog test,2023.1.3,59.96444113675866,
18,0,18,0,,,,,,,,,,,,,,,,,,,,,,,,,,,,,,,,,,,,253.69532860000618,254.70272459997796,252.17934839986265,252.17934839986265,252.17934839986265,252.17934839986265,new_stationery_34.png,19,4.0,1.5115670000668615,,,067,11,2025-03-28_14h05.45.542,Surprise recog test,2023.1.3,59.96444113675866,
19,0,19,0,,,,,,,,,,,,,,,,,,,,,,,,,,,,,,,,,,,,255.9408201999031,256.9633789998479,254.70272459997796,254.70272459997796,254.70272459997796,254.70272459997796,new_fruit_43.png,20,2.0,1.2352022998966277,,,067,11,2025-03-28_14h05.45.542,Surprise recog test,2023.1.3,59.96444113675866,
20,0,20,0,,,,,,,,,,,,,,,,,,,,,,,,,,,,,,,,,,,,258.38209339999594,259.4031034000218,256.9633789998479,256.9633789998479,256.9633789998479,256.9633789998479,new_stationery_7.png,21,3.0,1.4182521998882294,,,067,11,2025-03-28_14h05.45.542,Surprise recog test,2023.1.3,59.96444113675866,
21,0,21,0,,,,,,,,,,,,,,,,,,,,,,,,,,,,,,,,,,,,260.9713689999189,,259.4031034000218,259.4031034000218,259.4031034000218,259.4031034000218,old_sceneIn_16.png,22,4.0,1.5684002998750657,,,067,11,2025-03-28_14h05.45.542,Surprise recog test,2023.1.3,59.96444113675866,
22,0,22,0,,,,,,,,,,,,,,,,,,,,,,,,,,,,,,,,,,,,263.156228199834,,261.9931654999964,261.9931654999964,261.9931654999964,261.9931654999964,old_fruit_5.png,23,1.0,1.1571323999669403,,,067,11,2025-03-28_14h05.45.542,Surprise recog test,2023.1.3,59.96444113675866,
23,0,23,0,,,,,,,,,,,,,,,,,,,,,,,,,,,,,,,,,,,,265.73350690002553,266.75324529991485,264.17785479989834,264.17785479989834,264.17785479989834,264.17785479989834,old_sceneIn_22.png,24,3.0,1.5513955999631435,,,067,11,2025-03-28_14h05.45.542,Surprise recog test,2023.1.3,59.96444113675866,
24,0,24,0,,,,,,,,,,,,,,,,,,,,,,,,,,,,,,,,,,,,268.46397039992735,269.48194650001824,266.75324529991485,266.75324529991485,266.75324529991485,266.75324529991485,new_sceneIn_44.png,25,4.0,1.7077403001021594,,,067,11,2025-03-28_14h05.45.542,Surprise recog test,2023.1.3,59.96444113675866,
25,0,25,0,,,,,,,,,,,,,,,,,,,,,,,,,,,,,,,,,,,,270.9180886000395,271.9435590999201,269.48194650001824,269.48194650001824,269.48194650001824,269.48194650001824,new_sceneIn_4.png,26,2.0,1.4309270998928696,,,067,11,2025-03-28_14h05.45.542,Surprise recog test,2023.1.3,59.96444113675866,
26,0,26,0,,,,,,,,,,,,,,,,,,,,,,,,,,,,,,,,,,,,274.05181599990465,275.08173720003106,271.9435590999201,271.9435590999201,271.9435590999201,271.9435590999201,new_sceneIn_46.png,27,4.0,2.109699900029227,,,067,11,2025-03-28_14h05.45.542,Surprise recog test,2023.1.3,59.96444113675866,
27,0,27,0,,,,,,,,,,,,,,,,,,,,,,,,,,,,,,,,,,,,276.98217509989627,278.001162200002,275.08173720003106,275.08173720003106,275.08173720003106,275.08173720003106,new_sceneOut_22.png,28,3.0,1.9011816999409348,,,067,11,2025-03-28_14h05.45.542,Surprise recog test,2023.1.3,59.96444113675866,
28,0,28,0,,,,,,,,,,,,,,,,,,,,,,,,,,,,,,,,,,,,279.2657989000436,280.27697209990583,278.001162200002,278.001162200002,278.001162200002,278.001162200002,old_sceneIn_2.png,29,4.0,1.2651313000824302,,,067,11,2025-03-28_14h05.45.542,Surprise recog test,2023.1.3,59.96444113675866,
29,0,29,0,,,,,,,,,,,,,,,,,,,,,,,,,,,,,,,,,,,,281.9219660998788,,280.27697209990583,280.27697209990583,280.27697209990583,280.27697209990583,old_stationery_43.png,30,2.0,1.6431050000246614,,,067,11,2025-03-28_14h05.45.542,Surprise recog test,2023.1.3,59.96444113675866,
30,0,30,0,,,,,,,,,,,,,,,,,,,,,,,,,,,,,,,,,,,,284.57104319985956,285.5938717999961,282.9429001000244,282.9429001000244,282.9429001000244,282.9429001000244,new_stationery_20.png,31,4.0,1.6184586000163108,,,067,11,2025-03-28_14h05.45.542,Surprise recog test,2023.1.3,59.96444113675866,
31,0,31,0,,,,,,,,,,,,,,,,,,,,,,,,,,,,,,,,,,,,286.82911529997364,287.8474188998807,285.5938717999961,285.5938717999961,285.5938717999961,285.5938717999961,old_stationery_11.png,32,4.0,1.2377424999140203,,,067,11,2025-03-28_14h05.45.542,Surprise recog test,2023.1.3,59.96444113675866,
32,0,32,0,,,,,,,,,,,,,,,,,,,,,,,,,,,,,,,,,,,,289.2268582000397,290.23330709990114,287.8474188998807,287.8474188998807,287.8474188998807,287.8474188998807,old_fruit_20.png,33,1.0,1.3727920001838356,,,067,11,2025-03-28_14h05.45.542,Surprise recog test,2023.1.3,59.96444113675866,
33,0,33,0,,,,,,,,,,,,,,,,,,,,,,,,,,,,,,,,,,,,291.3189393999055,292.346490399912,290.23330709990114,290.23330709990114,290.23330709990114,290.23330709990114,new_fruit_37.png,34,1.0,1.0791990000288934,,,067,11,2025-03-28_14h05.45.542,Surprise recog test,2023.1.3,59.96444113675866,
34,0,34,0,,,,,,,,,,,,,,,,,,,,,,,,,,,,,,,,,,,,294.4694047998637,295.5056215999648,292.346490399912,292.346490399912,292.346490399912,292.346490399912,old_sceneIn_50.png,35,4.0,2.123862999957055,,,067,11,2025-03-28_14h05.45.542,Surprise recog test,2023.1.3,59.96444113675866,
35,0,35,0,,,,,,,,,,,,,,,,,,,,,,,,,,,,,,,,,,,,297.29088380001485,298.3177753998898,295.5056215999648,295.5056215999648,295.5056215999648,295.5056215999648,old_sceneOut_40.png,36,1.0,1.7913732000160962,,,067,11,2025-03-28_14h05.45.542,Surprise recog test,2023.1.3,59.96444113675866,
36,0,36,0,,,,,,,,,,,,,,,,,,,,,,,,,,,,,,,,,,,,299.5502002998255,300.5591885999311,298.3177753998898,298.3177753998898,298.3177753998898,298.3177753998898,new_sceneOut_25.png,37,1.0,1.2281935999635607,,,067,11,2025-03-28_14h05.45.542,Surprise recog test,2023.1.3,59.96444113675866,
37,0,37,0,,,,,,,,,,,,,,,,,,,,,,,,,,,,,,,,,,,,302.325672699837,303.34974560001865,300.5591885999311,300.5591885999311,300.5591885999311,300.5591885999311,new_sceneIn_27.png,38,3.0,1.760178499855101,,,067,11,2025-03-28_14h05.45.542,Surprise recog test,2023.1.3,59.96444113675866,
38,0,38,0,,,,,,,,,,,,,,,,,,,,,,,,,,,,,,,,,,,,304.75765519985,,303.34974560001865,303.34974560001865,303.34974560001865,303.34974560001865,old_sceneOut_20.png,39,3.0,1.4081252000760287,,,067,11,2025-03-28_14h05.45.542,Surprise recog test,2023.1.3,59.96444113675866,
39,0,39,0,,,,,,,,,,,,,,,,,,,,,,,,,,,,,,,,,,,,307.37345189996995,308.37755069998093,305.7941276000347,305.7941276000347,305.7941276000347,305.7941276000347,new_stationery_2.png,40,3.0,1.5734624001197517,,,067,11,2025-03-28_14h05.45.542,Surprise recog test,2023.1.3,59.96444113675866,
40,0,40,0,,,,,,,,,,,,,,,,,,,,,,,,,,,,,,,,,,,,309.67858810001053,,308.37755069998093,308.37755069998093,308.37755069998093,308.37755069998093,new_fruit_49.png,41,2.0,1.2975517001468688,,,067,11,2025-03-28_14h05.45.542,Surprise recog test,2023.1.3,59.96444113675866,
41,0,41,0,,,,,,,,,,,,,,,,,,,,,,,,,,,,,,,,,,,,312.17409419990145,313.1967733998317,310.71243799990043,310.71243799990043,310.71243799990043,310.71243799990043,old_stationery_38.png,42,1.0,1.4620475999545306,,,067,11,2025-03-28_14h05.45.542,Surprise recog test,2023.1.3,59.96444113675866,
42,0,42,0,,,,,,,,,,,,,,,,,,,,,,,,,,,,,,,,,,,,315.0201379000209,316.0457986998372,313.1967733998317,313.1967733998317,313.1967733998317,313.1967733998317,new_fruit_30.png,43,3.0,1.824669900117442,,,067,11,2025-03-28_14h05.45.542,Surprise recog test,2023.1.3,59.96444113675866,
43,0,43,0,,,,,,,,,,,,,,,,,,,,,,,,,,,,,,,,,,,,317.6097728998866,318.6350706999656,316.0457986998372,316.0457986998372,316.0457986998372,316.0457986998372,old_sceneOut_47.png,44,2.0,1.5643037999980152,,,067,11,2025-03-28_14h05.45.542,Surprise recog test,2023.1.3,59.96444113675866,
44,0,44,0,,,,,,,,,,,,,,,,,,,,,,,,,,,,,,,,,,,,320.58410679991357,321.61162290000357,318.6350706999656,318.6350706999656,318.6350706999656,318.6350706999656,new_sceneIn_2.png,45,4.0,1.9518013000488281,,,067,11,2025-03-28_14h05.45.542,Surprise recog test,2023.1.3,59.96444113675866,
45,0,45,0,,,,,,,,,,,,,,,,,,,,,,,,,,,,,,,,,,,,323.11994510004297,324.14554269984365,321.61162290000357,321.61162290000357,321.61162290000357,321.61162290000357,new_sceneOut_19.png,46,2.0,1.5104593997821212,,,067,11,2025-03-28_14h05.45.542,Surprise recog test,2023.1.3,59.96444113675866,
46,0,46,0,,,,,,,,,,,,,,,,,,,,,,,,,,,,,,,,,,,,325.4774038998876,326.511310899863,324.14554269984365,324.14554269984365,324.14554269984365,324.14554269984365,old_fruit_11.png,47,1.0,1.3379098000004888,,,067,11,2025-03-28_14h05.45.542,Surprise recog test,2023.1.3,59.96444113675866,
47,0,47,0,,,,,,,,,,,,,,,,,,,,,,,,,,,,,,,,,,,,328.5401488998905,329.5604174998589,326.511310899863,326.511310899863,326.511310899863,326.511310899863,old_sceneIn_1.png,48,4.0,2.031626299954951,,,067,11,2025-03-28_14h05.45.542,Surprise recog test,2023.1.3,59.96444113675866,
48,0,48,0,,,,,,,,,,,,,,,,,,,,,,,,,,,,,,,,,,,,330.86788589996286,331.88354919990525,329.5604174998589,329.5604174998589,329.5604174998589,329.5604174998589,new_sceneIn_9.png,49,2.0,1.308251499896869,,,067,11,2025-03-28_14h05.45.542,Surprise recog test,2023.1.3,59.96444113675866,
49,0,49,0,,,,,,,,,,,,,,,,,,,,,,,,,,,,,,,,,,,,333.30919509986416,334.3284415998496,331.88354919990525,331.88354919990525,331.88354919990525,331.88354919990525,old_sceneIn_10.png,50,2.0,1.4205553999636322,,,067,11,2025-03-28_14h05.45.542,Surprise recog test,2023.1.3,59.96444113675866,
50,0,50,0,,,,,,,,,,,,,,,,,,,,,,,,,,,,,,,,,,,,335.7768851998262,336.80058529996313,334.3284415998496,334.3284415998496,334.3284415998496,334.3284415998496,new_fruit_48.png,51,1.0,1.4482235999312252,,,067,11,2025-03-28_14h05.45.542,Surprise recog test,2023.1.3,59.96444113675866,
51,0,51,0,,,,,,,,,,,,,,,,,,,,,,,,,,,,,,,,,,,,338.53260329994373,339.5397250999231,336.80058529996313,336.80058529996313,336.80058529996313,336.80058529996313,old_fruit_25.png,52,2.0,1.731897999998182,,,067,11,2025-03-28_14h05.45.542,Surprise recog test,2023.1.3,59.96444113675866,
52,0,52,0,,,,,,,,,,,,,,,,,,,,,,,,,,,,,,,,,,,,341.00346599984914,,339.5397250999231,339.5397250999231,339.5397250999231,339.5397250999231,new_sceneOut_34.png,53,2.0,1.4581257000099868,,,067,11,2025-03-28_14h05.45.542,Surprise recog test,2023.1.3,59.96444113675866,
53,0,53,0,,,,,,,,,,,,,,,,,,,,,,,,,,,,,,,,,,,,343.4033347000368,344.4109413998667,342.0226040999405,342.0226040999405,342.0226040999405,342.0226040999405,old_stationery_5.png,54,2.0,1.3759592999704182,,,067,11,2025-03-28_14h05.45.542,Surprise recog test,2023.1.3,59.96444113675866,
54,0,54,0,,,,,,,,,,,,,,,,,,,,,,,,,,,,,,,,,,,,346.48028749995865,347.5122159998864,344.4109413998667,344.4109413998667,344.4109413998667,344.4109413998667,new_stationery_4.png,55,2.0,2.0653115999884903,,,067,11,2025-03-28_14h05.45.542,Surprise recog test,2023.1.3,59.96444113675866,
55,0,55,0,,,,,,,,,,,,,,,,,,,,,,,,,,,,,,,,,,,,348.99873339990154,350.0121293000411,347.5122159998864,347.5122159998864,347.5122159998864,347.5122159998864,old_stationery_33.png,56,3.0,1.4899460999295115,,,067,11,2025-03-28_14h05.45.542,Surprise recog test,2023.1.3,59.96444113675866,
56,0,56,0,,,,,,,,,,,,,,,,,,,,,,,,,,,,,,,,,,,,351.28281639982015,352.2992890998721,350.0121293000411,350.0121293000411,350.0121293000411,350.0121293000411,old_fruit_50.png,57,1.0,1.2668506000190973,,,067,11,2025-03-28_14h05.45.542,Surprise recog test,2023.1.3,59.96444113675866,
57,0,57,0,,,,,,,,,,,,,,,,,,,,,,,,,,,,,,,,,,,,353.41802320000716,354.4421200999059,352.2992890998721,352.2992890998721,352.2992890998721,352.2992890998721,old_sceneOut_10.png,58,1.0,1.116549499798566,,,067,11,2025-03-28_14h05.45.542,Surprise recog test,2023.1.3,59.96444113675866,
58,0,58,0,,,,,,,,,,,,,,,,,,,,,,,,,,,,,,,,,,,,355.8739612000063,356.88804709981196,354.4421200999059,354.4421200999059,354.4421200999059,354.4421200999059,old_sceneOut_44.png,59,1.0,1.4300080998800695,,,067,11,2025-03-28_14h05.45.542,Surprise recog test,2023.1.3,59.96444113675866,
59,0,59,0,,,,,,,,,,,,,,,,,,,,,,,,,,,,,,,,,,,,358.93290359992534,359.9526933999732,356.88804709981196,356.88804709981196,356.88804709981196,356.88804709981196,new_sceneIn_14.png,60,5.0,2.0388676999136806,,,067,11,2025-03-28_14h05.45.542,Surprise recog test,2023.1.3,59.96444113675866,
60,0,60,0,,,,,,,,,,,,,,,,,,,,,,,,,,,,,,,,,,,,361.4924433999695,362.51754479995,359.9526933999732,359.9526933999732,359.9526933999732,359.9526933999732,new_sceneOut_30.png,61,1.0,1.540129099972546,,,067,11,2025-03-28_14h05.45.542,Surprise recog test,2023.1.3,59.96444113675866,
61,0,61,0,,,,,,,,,,,,,,,,,,,,,,,,,,,,,,,,,,,,364.5119461999275,365.53987840004265,362.51754479995,362.51754479995,362.51754479995,362.51754479995,new_stationery_39.png,62,2.0,1.9952328000217676,,,067,11,2025-03-28_14h05.45.542,Surprise recog test,2023.1.3,59.96444113675866,
62,0,62,0,,,,,,,,,,,,,,,,,,,,,,,,,,,,,,,,,,,,367.2313824999146,368.26180349988863,365.53987840004265,365.53987840004265,365.53987840004265,365.53987840004265,old_sceneIn_40.png,63,4.0,1.6932673000264913,,,067,11,2025-03-28_14h05.45.542,Surprise recog test,2023.1.3,59.96444113675866,
63,0,63,0,,,,,,,,,,,,,,,,,,,,,,,,,,,,,,,,,,,,369.7237527000252,370.74439989984967,368.26180349988863,368.26180349988863,368.26180349988863,368.26180349988863,new_sceneOut_2.png,64,1.0,1.4667366999201477,,,067,11,2025-03-28_14h05.45.542,Surprise recog test,2023.1.3,59.96444113675866,
64,0,64,0,,,,,,,,,,,,,,,,,,,,,,,,,,,,,,,,,,,,371.6318623998668,372.6515112000052,370.74439989984967,370.74439989984967,370.74439989984967,370.74439989984967,old_sceneOut_30.png,65,1.0,0.8895223999861628,,,067,11,2025-03-28_14h05.45.542,Surprise recog test,2023.1.3,59.96444113675866,
65,0,65,0,,,,,,,,,,,,,,,,,,,,,,,,,,,,,,,,,,,,373.3115594999399,374.3373539999593,372.6515112000052,372.6515112000052,372.6515112000052,372.6515112000052,old_sceneOut_39.png,66,1.0,0.6529982001520693,,,067,11,2025-03-28_14h05.45.542,Surprise recog test,2023.1.3,59.96444113675866,
66,0,66,0,,,,,,,,,,,,,,,,,,,,,,,,,,,,,,,,,,,,375.91882939985953,376.9346918000374,374.3373539999593,374.3373539999593,374.3373539999593,374.3373539999593,old_fruit_43.png,67,2.0,1.5841894000768661,,,067,11,2025-03-28_14h05.45.542,Surprise recog test,2023.1.3,59.96444113675866,
67,0,67,0,,,,,,,,,,,,,,,,,,,,,,,,,,,,,,,,,,,,378.11625520000234,379.1362301998306,376.9346918000374,376.9346918000374,376.9346918000374,376.9346918000374,new_sceneOut_12.png,68,1.0,1.1751078001689166,,,067,11,2025-03-28_14h05.45.542,Surprise recog test,2023.1.3,59.96444113675866,
68,0,68,0,,,,,,,,,,,,,,,,,,,,,,,,,,,,,,,,,,,,380.7479512998834,381.7690866999328,379.1362301998306,379.1362301998306,379.1362301998306,379.1362301998306,new_stationery_40.png,69,5.0,1.6132095998618752,,,067,11,2025-03-28_14h05.45.542,Surprise recog test,2023.1.3,59.96444113675866,
69,0,69,0,,,,,,,,,,,,,,,,,,,,,,,,,,,,,,,,,,,,383.9083805999253,384.94573899987154,381.7690866999328,381.7690866999328,381.7690866999328,381.7690866999328,old_stationery_36.png,70,3.0,2.1414707000367343,,,067,11,2025-03-28_14h05.45.542,Surprise recog test,2023.1.3,59.96444113675866,
70,0,70,0,,,,,,,,,,,,,,,,,,,,,,,,,,,,,,,,,,,,386.13598429993726,387.14796880003996,384.94573899987154,384.94573899987154,384.94573899987154,384.94573899987154,old_sceneOut_36.png,71,2.0,1.1917361000087112,,,067,11,2025-03-28_14h05.45.542,Surprise recog test,2023.1.3,59.96444113675866,
71,0,71,0,,,,,,,,,,,,,,,,,,,,,,,,,,,,,,,,,,,,388.5498101999983,389.5727504999377,387.14796880003996,387.14796880003996,387.14796880003996,387.14796880003996,old_sceneIn_37.png,72,2.0,1.3982118000276387,,,067,11,2025-03-28_14h05.45.542,Surprise recog test,2023.1.3,59.96444113675866,
72,0,72,0,,,,,,,,,,,,,,,,,,,,,,,,,,,,,,,,,,,,391.94131889985874,392.95151919987984,389.5727504999377,389.5727504999377,389.5727504999377,389.5727504999377,new_sceneOut_11.png,73,3.0,2.369834699900821,,,067,11,2025-03-28_14h05.45.542,Surprise recog test,2023.1.3,59.96444113675866,
73,0,73,0,,,,,,,,,,,,,,,,,,,,,,,,,,,,,,,,,,,,395.1216829000041,396.1499208000023,392.95151919987984,392.95151919987984,392.95151919987984,392.95151919987984,new_sceneOut_38.png,74,2.0,2.164872399996966,,,067,11,2025-03-28_14h05.45.542,Surprise recog test,2023.1.3,59.96444113675866,
74,0,74,0,,,,,,,,,,,,,,,,,,,,,,,,,,,,,,,,,,,,397.52394129987806,398.54724249988794,396.1499208000023,396.1499208000023,396.1499208000023,396.1499208000023,new_sceneOut_8.png,75,2.0,1.3765158001333475,,,067,11,2025-03-28_14h05.45.542,Surprise recog test,2023.1.3,59.96444113675866,
75,0,75,0,,,,,,,,,,,,,,,,,,,,,,,,,,,,,,,,,,,,399.8317406999413,400.8427631999366,398.54724249988794,398.54724249988794,398.54724249988794,398.54724249988794,new_fruit_1.png,76,2.0,1.2846999999601394,,,067,11,2025-03-28_14h05.45.542,Surprise recog test,2023.1.3,59.96444113675866,
76,0,76,0,,,,,,,,,,,,,,,,,,,,,,,,,,,,,,,,,,,,402.2800272000022,403.2912814000156,400.8427631999366,400.8427631999366,400.8427631999366,400.8427631999366,new_fruit_14.png,77,2.0,1.4348136000335217,,,067,11,2025-03-28_14h05.45.542,Surprise recog test,2023.1.3,59.96444113675866,
77,0,77,0,,,,,,,,,,,,,,,,,,,,,,,,,,,,,,,,,,,,404.57505499990657,,403.2912814000156,403.2912814000156,403.2912814000156,403.2912814000156,new_fruit_22.png,78,2.0,1.2766565000638366,,,067,11,2025-03-28_14h05.45.542,Surprise recog test,2023.1.3,59.96444113675866,
78,0,78,0,,,,,,,,,,,,,,,,,,,,,,,,,,,,,,,,,,,,406.93958849995397,407.95337040000595,405.6099272000138,405.6099272000138,405.6099272000138,405.6099272000138,old_stationery_9.png,79,1.0,1.3280654998961836,,,067,11,2025-03-28_14h05.45.542,Surprise recog test,2023.1.3,59.96444113675866,
79,0,79,0,,,,,,,,,,,,,,,,,,,,,,,,,,,,,,,,,,,,409.546325400006,410.577692899853,407.95337040000595,407.95337040000595,407.95337040000595,407.95337040000595,new_stationery_46.png,80,3.0,1.5936495000496507,,,067,11,2025-03-28_14h05.45.542,Surprise recog test,2023.1.3,59.96444113675866,
80,0,80,0,,,,,,,,,,,,,,,,,,,,,,,,,,,,,,,,,,,,412.38625680003315,413.4077709999401,410.577692899853,410.577692899853,410.577692899853,410.577692899853,new_sceneIn_11.png,81,4.0,1.8116236999630928,,,067,11,2025-03-28_14h05.45.542,Surprise recog test,2023.1.3,59.96444113675866,
81,0,81,0,,,,,,,,,,,,,,,,,,,,,,,,,,,,,,,,,,,,414.7203146000393,415.7412296999246,413.4077709999401,413.4077709999401,413.4077709999401,413.4077709999401,old_sceneIn_39.png,82,2.0,1.3106954998802394,,,067,11,2025-03-28_14h05.45.542,Surprise recog test,2023.1.3,59.96444113675866,
82,0,82,0,,,,,,,,,,,,,,,,,,,,,,,,,,,,,,,,,,,,416.9482177000027,417.96909619984217,415.7412296999246,415.7412296999246,415.7412296999246,415.7412296999246,new_sceneOut_16.png,83,2.0,1.2056466001085937,,,067,11,2025-03-28_14h05.45.542,Surprise recog test,2023.1.3,59.96444113675866,
83,0,83,0,,,,,,,,,,,,,,,,,,,,,,,,,,,,,,,,,,,,420.0335549998563,421.05330809997395,417.96909619984217,417.96909619984217,417.96909619984217,417.96909619984217,new_sceneIn_42.png,84,3.0,2.066834099823609,,,067,11,2025-03-28_14h05.45.542,Surprise recog test,2023.1.3,59.96444113675866,
84,0,84,0,,,,,,,,,,,,,,,,,,,,,,,,,,,,,,,,,,,,422.7450357999187,423.76603569998406,421.05330809997395,421.05330809997395,421.05330809997395,421.05330809997395,old_stationery_50.png,85,3.0,1.694167299894616,,,067,11,2025-03-28_14h05.45.542,Surprise recog test,2023.1.3,59.96444113675866,
85,0,85,0,,,,,,,,,,,,,,,,,,,,,,,,,,,,,,,,,,,,426.45247489982285,427.46765469992533,423.76603569998406,423.76603569998406,423.76603569998406,423.76603569998406,old_stationery_47.png,86,2.0,2.680148500017822,,,067,11,2025-03-28_14h05.45.542,Surprise recog test,2023.1.3,59.96444113675866,
86,0,86,0,,,,,,,,,,,,,,,,,,,,,,,,,,,,,,,,,,,,428.7842858999502,429.8065342998598,427.46765469992533,427.46765469992533,427.46765469992533,427.46765469992533,new_sceneOut_20.png,87,2.0,1.3143758999649435,,,067,11,2025-03-28_14h05.45.542,Surprise recog test,2023.1.3,59.96444113675866,
87,0,87,0,,,,,,,,,,,,,,,,,,,,,,,,,,,,,,,,,,,,430.6636905998457,,429.8065342998598,429.8065342998598,429.8065342998598,429.8065342998598,new_fruit_46.png,88,2.0,0.8562523000873625,,,067,11,2025-03-28_14h05.45.542,Surprise recog test,2023.1.3,59.96444113675866,
88,0,88,0,,,,,,,,,,,,,,,,,,,,,,,,,,,,,,,,,,,,433.21763630001806,434.2526177999098,431.6939687000122,431.6939687000122,431.6939687000122,431.6939687000122,new_stationery_5.png,89,3.0,1.5253363999072462,,,067,11,2025-03-28_14h05.45.542,Surprise recog test,2023.1.3,59.96444113675866,
89,0,89,0,,,,,,,,,,,,,,,,,,,,,,,,,,,,,,,,,,,,435.4544249000028,436.4710742998868,434.2526177999098,434.2526177999098,434.2526177999098,434.2526177999098,new_stationery_1.png,90,2.0,1.206531099975109,,,067,11,2025-03-28_14h05.45.542,Surprise recog test,2023.1.3,59.96444113675866,
90,0,90,0,,,,,,,,,,,,,,,,,,,,,,,,,,,,,,,,,,,,438.4350860998966,,436.4710742998868,436.4710742998868,436.4710742998868,436.4710742998868,new_sceneIn_6.png,91,4.0,1.9593267999589443,,,067,11,2025-03-28_14h05.45.542,Surprise recog test,2023.1.3,59.96444113675866,
91,0,91,0,,,,,,,,,,,,,,,,,,,,,,,,,,,,,,,,,,,,440.6871320998762,,439.4665967000183,439.4665967000183,439.4665967000183,439.4665967000183,new_fruit_23.png,92,2.0,1.2226702000480145,,,067,11,2025-03-28_14h05.45.542,Surprise recog test,2023.1.3,59.96444113675866,
92,0,92,0,,,,,,,,,,,,,,,,,,,,,,,,,,,,,,,,,,,,443.49489680002443,444.53023879998364,441.70886419992894,441.70886419992894,441.70886419992894,441.70886419992894,new_stationery_15.png,93,3.0,1.7814654998946935,,,067,11,2025-03-28_14h05.45.542,Surprise recog test,2023.1.3,59.96444113675866,
93,0,93,0,,,,,,,,,,,,,,,,,,,,,,,,,,,,,,,,,,,,445.917688800022,446.93657979997806,444.53023879998364,444.53023879998364,444.53023879998364,444.53023879998364,old_fruit_45.png,94,3.0,1.3924780001398176,,,067,11,2025-03-28_14h05.45.542,Surprise recog test,2023.1.3,59.96444113675866,
94,0,94,0,,,,,,,,,,,,,,,,,,,,,,,,,,,,,,,,,,,,448.3393627998885,449.3618338999804,446.93657979997806,446.93657979997806,446.93657979997806,446.93657979997806,old_sceneOut_35.png,95,2.0,1.4036428001709282,,,067,11,2025-03-28_14h05.45.542,Surprise recog test,2023.1.3,59.96444113675866,
95,0,95,0,,,,,,,,,,,,,,,,,,,,,,,,,,,,,,,,,,,,451.2654200999532,452.29910349985585,449.3618338999804,449.3618338999804,449.3618338999804,449.3618338999804,old_sceneIn_36.png,96,3.0,1.9075040000025183,,,067,11,2025-03-28_14h05.45.542,Surprise recog test,2023.1.3,59.96444113675866,
96,0,96,0,,,,,,,,,,,,,,,,,,,,,,,,,,,,,,,,,,,,453.9649630000349,,452.29910349985585,452.29910349985585,452.29910349985585,452.29910349985585,new_sceneOut_27.png,97,3.0,1.668671399820596,,,067,11,2025-03-28_14h05.45.542,Surprise recog test,2023.1.3,59.96444113675866,
97,0,97,0,,,,,,,,,,,,,,,,,,,,,,,,,,,,,,,,,,,,456.49277959996834,457.5160258000251,454.9872659998946,454.9872659998946,454.9872659998946,454.9872659998946,new_fruit_27.png,98,2.0,1.5022650000173599,,,067,11,2025-03-28_14h05.45.542,Surprise recog test,2023.1.3,59.96444113675866,
98,0,98,0,,,,,,,,,,,,,,,,,,,,,,,,,,,,,,,,,,,,458.7245930999052,459.74070820002817,457.5160258000251,457.5160258000251,457.5160258000251,457.5160258000251,new_sceneOut_47.png,99,2.0,1.2114174999296665,,,067,11,2025-03-28_14h05.45.542,Surprise recog test,2023.1.3,59.96444113675866,
99,0,99,0,,,,,,,,,,,,,,,,,,,,,,,,,,,,,,,,,,,,461.93992229993455,462.97297460003756,459.74070820002817,459.74070820002817,459.74070820002817,459.74070820002817,new_stationery_17.png,100,4.0,2.194893999956548,,,067,11,2025-03-28_14h05.45.542,Surprise recog test,2023.1.3,59.96444113675866,
100,0,100,0,,,,,,,,,,,,,,,,,,,,,,,,,,,,,,,,,,,,464.5064824000001,,462.97297460003756,462.97297460003756,462.97297460003756,462.97297460003756,new_fruit_21.png,101,2.0,1.5367892000358552,,,067,11,2025-03-28_14h05.45.542,Surprise recog test,2023.1.3,59.96444113675866,
101,0,101,0,,,,,,,,,,,,,,,,,,,,,,,,,,,,,,,,,,,,467.3450917999726,468.3745870999992,465.5347458999604,465.5347458999604,465.5347458999604,465.5347458999604,old_sceneIn_23.png,102,2.0,1.810721900081262,,,067,11,2025-03-28_14h05.45.542,Surprise recog test,2023.1.3,59.96444113675866,
102,0,102,0,,,,,,,,,,,,,,,,,,,,,,,,,,,,,,,,,,,,469.7070869000163,470.71307699987665,468.3745870999992,468.3745870999992,468.3745870999992,468.3745870999992,old_fruit_22.png,103,1.0,1.33457179996185,,,067,11,2025-03-28_14h05.45.542,Surprise recog test,2023.1.3,59.96444113675866,
103,0,103,0,,,,,,,,,,,,,,,,,,,,,,,,,,,,,,,,,,,,472.1685362998396,473.19831819995306,470.71307699987665,470.71307699987665,470.71307699987665,470.71307699987665,old_fruit_31.png,104,1.0,1.4498594999313354,,,067,11,2025-03-28_14h05.45.542,Surprise recog test,2023.1.3,59.96444113675866,
104,0,104,0,,,,,,,,,,,,,,,,,,,,,,,,,,,,,,,,,,,,475.752065599896,476.78395069995895,473.19831819995306,473.19831819995306,473.19831819995306,473.19831819995306,new_sceneIn_45.png,105,3.0,2.554747699992731,,,067,11,2025-03-28_14h05.45.542,Surprise recog test,2023.1.3,59.96444113675866,
105,0,105,0,,,,,,,,,,,,,,,,,,,,,,,,,,,,,,,,,,,,479.40552999987267,480.42453640000895,476.78395069995895,476.78395069995895,476.78395069995895,476.78395069995895,new_sceneIn_1.png,106,3.0,2.6231770999729633,,,067,11,2025-03-28_14h05.45.542,Surprise recog test,2023.1.3,59.96444113675866,
106,0,106,0,,,,,,,,,,,,,,,,,,,,,,,,,,,,,,,,,,,,482.54313799995,483.55903399991803,480.42453640000895,480.42453640000895,480.42453640000895,480.42453640000895,new_sceneOut_42.png,107,2.0,2.1148474998772144,,,067,11,2025-03-28_14h05.45.542,Surprise recog test,2023.1.3,59.96444113675866,
107,0,107,0,,,,,,,,,,,,,,,,,,,,,,,,,,,,,,,,,,,,486.61044179997407,,483.55903399991803,483.55903399991803,483.55903399991803,483.55903399991803,old_stationery_3.png,108,3.0,3.0487150999251753,,,067,11,2025-03-28_14h05.45.542,Surprise recog test,2023.1.3,59.96444113675866,
108,0,108,0,,,,,,,,,,,,,,,,,,,,,,,,,,,,,,,,,,,,488.8591286998708,489.86594759998843,487.6339882998727,487.6339882998727,487.6339882998727,487.6339882998727,old_sceneIn_14.png,109,2.0,1.2207919000647962,,,067,11,2025-03-28_14h05.45.542,Surprise recog test,2023.1.3,59.96444113675866,
109,0,109,0,,,,,,,,,,,,,,,,,,,,,,,,,,,,,,,,,,,,491.0817455998622,492.09718359983526,489.86594759998843,489.86594759998843,489.86594759998843,489.86594759998843,old_fruit_29.png,110,1.0,1.2111855000257492,,,067,11,2025-03-28_14h05.45.542,Surprise recog test,2023.1.3,59.96444113675866,
110,0,110,0,,,,,,,,,,,,,,,,,,,,,,,,,,,,,,,,,,,,493.16140779992566,494.1657987998333,492.09718359983526,492.09718359983526,492.09718359983526,492.09718359983526,old_sceneOut_29.png,111,1.0,1.0556542000267655,,,067,11,2025-03-28_14h05.45.542,Surprise recog test,2023.1.3,59.96444113675866,
111,0,111,0,,,,,,,,,,,,,,,,,,,,,,,,,,,,,,,,,,,,494.9932124998886,496.02370409993455,494.1657987998333,494.1657987998333,494.1657987998333,494.1657987998333,old_sceneOut_48.png,112,1.0,0.8229550002142787,,,067,11,2025-03-28_14h05.45.542,Surprise recog test,2023.1.3,59.96444113675866,
112,0,112,0,,,,,,,,,,,,,,,,,,,,,,,,,,,,,,,,,,,,497.83175939996727,498.8545845998451,496.02370409993455,496.02370409993455,496.02370409993455,496.02370409993455,old_sceneIn_42.png,113,2.0,1.8131299000233412,,,067,11,2025-03-28_14h05.45.542,Surprise recog test,2023.1.3,59.96444113675866,
113,0,113,0,,,,,,,,,,,,,,,,,,,,,,,,,,,,,,,,,,,,501.1324334999081,502.1427159998566,498.8545845998451,498.8545845998451,498.8545845998451,498.8545845998451,new_sceneIn_36.png,114,4.0,2.2811948999296874,,,067,11,2025-03-28_14h05.45.542,Surprise recog test,2023.1.3,59.96444113675866,
114,0,114,0,,,,,,,,,,,,,,,,,,,,,,,,,,,,,,,,,,,,504.88257869984955,505.9062120998278,502.1427159998566,502.1427159998566,502.1427159998566,502.1427159998566,new_fruit_32.png,115,2.0,2.7360956999473274,,,067,11,2025-03-28_14h05.45.542,Surprise recog test,2023.1.3,59.96444113675866,
115,0,115,0,,,,,,,,,,,,,,,,,,,,,,,,,,,,,,,,,,,,507.62393240001984,508.6390859999228,505.9062120998278,505.9062120998278,505.9062120998278,505.9062120998278,old_sceneOut_26.png,116,2.0,1.7195488000288606,,,067,11,2025-03-28_14h05.45.542,Surprise recog test,2023.1.3,59.96444113675866,
116,0,116,0,,,,,,,,,,,,,,,,,,,,,,,,,,,,,,,,,,,,510.344165999908,511.36220499989577,508.6390859999228,508.6390859999228,508.6390859999228,508.6390859999228,old_fruit_42.png,117,1.0,1.7078168999869376,,,067,11,2025-03-28_14h05.45.542,Surprise recog test,2023.1.3,59.96444113675866,
117,0,117,0,,,,,,,,,,,,,,,,,,,,,,,,,,,,,,,,,,,,513.0612033999059,514.0806360000279,511.36220499989577,511.36220499989577,511.36220499989577,511.36220499989577,old_sceneIn_44.png,118,4.0,1.6950646999757737,,,067,11,2025-03-28_14h05.45.542,Surprise recog test,2023.1.3,59.96444113675866,
118,0,118,0,,,,,,,,,,,,,,,,,,,,,,,,,,,,,,,,,,,,515.7210874999873,516.7472173999995,514.0806360000279,514.0806360000279,514.0806360000279,514.0806360000279,old_fruit_19.png,119,2.0,1.6416990999132395,,,067,11,2025-03-28_14h05.45.542,Surprise recog test,2023.1.3,59.96444113675866,
119,0,119,0,,,,,,,,,,,,,,,,,,,,,,,,,,,,,,,,,,,,518.5390987000428,519.5662644999102,516.7472173999995,516.7472173999995,516.7472173999995,516.7472173999995,new_sceneOut_6.png,120,1.0,1.7920715000946075,,,067,11,2025-03-28_14h05.45.542,Surprise recog test,2023.1.3,59.96444113675866,
120,0,120,0,,,,,,,,,,,,,,,,,,,,,,,,,,,,,,,,,,,,521.2527177999727,522.2715950999409,519.5662644999102,519.5662644999102,519.5662644999102,519.5662644999102,old_sceneOut_9.png,121,1.0,1.6855151001363993,,,067,11,2025-03-28_14h05.45.542,Surprise recog test,2023.1.3,59.96444113675866,
121,0,121,0,,,,,,,,,,,,,,,,,,,,,,,,,,,,,,,,,,,,524.9136646999978,525.9309449000284,522.2715950999409,522.2715950999409,522.2715950999409,522.2715950999409,new_stationery_23.png,122,2.0,2.6437958001624793,,,067,11,2025-03-28_14h05.45.542,Surprise recog test,2023.1.3,59.96444113675866,
122,0,122,0,,,,,,,,,,,,,,,,,,,,,,,,,,,,,,,,,,,,527.189825499896,528.1974038998596,525.9309449000284,525.9309449000284,525.9309449000284,525.9309449000284,new_fruit_35.png,123,2.0,1.2522026000078768,,,067,11,2025-03-28_14h05.45.542,Surprise recog test,2023.1.3,59.96444113675866,
123,0,123,0,,,,,,,,,,,,,,,,,,,,,,,,,,,,,,,,,,,,530.077295999974,531.1033281998243,528.1974038998596,528.1974038998596,528.1974038998596,528.1974038998596,new_stationery_10.png,124,2.0,1.875848599942401,,,067,11,2025-03-28_14h05.45.542,Surprise recog test,2023.1.3,59.96444113675866,
124,0,124,0,,,,,,,,,,,,,,,,,,,,,,,,,,,,,,,,,,,,532.9323746999726,533.9656155998819,531.1033281998243,531.1033281998243,531.1033281998243,531.1033281998243,new_sceneIn_50.png,125,4.0,1.8319292000960559,,,067,11,2025-03-28_14h05.45.542,Surprise recog test,2023.1.3,59.96444113675866,
125,0,125,0,,,,,,,,,,,,,,,,,,,,,,,,,,,,,,,,,,,,535.4206238999031,536.4495981000364,533.9656155998819,533.9656155998819,533.9656155998819,533.9656155998819,old_stationery_40.png,126,3.0,1.456100600073114,,,067,11,2025-03-28_14h05.45.542,Surprise recog test,2023.1.3,59.96444113675866,
126,0,126,0,,,,,,,,,,,,,,,,,,,,,,,,,,,,,,,,,,,,538.3906096999999,539.4179165998939,536.4495981000364,536.4495981000364,536.4495981000364,536.4495981000364,old_fruit_34.png,127,3.0,1.9434493000153452,,,067,11,2025-03-28_14h05.45.542,Surprise recog test,2023.1.3,59.96444113675866,
127,0,127,0,,,,,,,,,,,,,,,,,,,,,,,,,,,,,,,,,,,,541.8001651000232,542.8099246998318,539.4179165998939,539.4179165998939,539.4179165998939,539.4179165998939,new_sceneIn_35.png,128,3.0,2.382125499891117,,,067,11,2025-03-28_14h05.45.542,Surprise recog test,2023.1.3,59.96444113675866,
128,0,128,0,,,,,,,,,,,,,,,,,,,,,,,,,,,,,,,,,,,,545.5055730999447,546.5268837998156,542.8099246998318,542.8099246998318,542.8099246998318,542.8099246998318,new_sceneIn_39.png,129,3.0,2.6918608001433313,,,067,11,2025-03-28_14h05.45.542,Surprise recog test,2023.1.3,59.96444113675866,
129,0,129,0,,,,,,,,,,,,,,,,,,,,,,,,,,,,,,,,,,,,547.9625269998796,548.9807771998458,546.5268837998156,546.5268837998156,546.5268837998156,546.5268837998156,old_sceneOut_18.png,130,2.0,1.4385136000346392,,,067,11,2025-03-28_14h05.45.542,Surprise recog test,2023.1.3,59.96444113675866,
130,0,130,0,,,,,,,,,,,,,,,,,,,,,,,,,,,,,,,,,,,,551.3797663999721,,548.9807771998458,548.9807771998458,548.9807771998458,548.9807771998458,new_sceneIn_34.png,131,4.0,2.392723700031638,,,067,11,2025-03-28_14h05.45.542,Surprise recog test,2023.1.3,59.96444113675866,
131,0,131,0,,,,,,,,,,,,,,,,,,,,,,,,,,,,,,,,,,,,553.8152035998646,,552.4005757998675,552.4005757998675,552.4005757998675,552.4005757998675,old_fruit_35.png,132,2.0,1.4099342001136392,,,067,11,2025-03-28_14h05.45.542,Surprise recog test,2023.1.3,59.96444113675866,
132,0,132,0,,,,,,,,,,,,,,,,,,,,,,,,,,,,,,,,,,,,556.2489421998616,557.2670020998921,554.8477602000348,554.8477602000348,554.8477602000348,554.8477602000348,new_fruit_25.png,133,2.0,1.4015762000344694,,,067,11,2025-03-28_14h05.45.542,Surprise recog test,2023.1.3,59.96444113675866,
133,0,133,0,,,,,,,,,,,,,,,,,,,,,,,,,,,,,,,,,,,,559.0846082000062,,557.2670020998921,557.2670020998921,557.2670020998921,557.2670020998921,old_sceneOut_7.png,134,1.0,1.8198482999578118,,,067,11,2025-03-28_14h05.45.542,Surprise recog test,2023.1.3,59.96444113675866,
134,0,134,0,,,,,,,,,,,,,,,,,,,,,,,,,,,,,,,,,,,,561.6885339999571,,560.113469199976,560.113469199976,560.113469199976,560.113469199976,new_stationery_50.png,135,3.0,1.576746400212869,,,067,11,2025-03-28_14h05.45.542,Surprise recog test,2023.1.3,59.96444113675866,
135,0,135,0,,,,,,,,,,,,,,,,,,,,,,,,,,,,,,,,,,,,564.6154328000266,565.6271128000226,562.7193066999316,562.7193066999316,562.7193066999316,562.7193066999316,old_sceneIn_6.png,136,4.0,1.8975613999646157,,,067,11,2025-03-28_14h05.45.542,Surprise recog test,2023.1.3,59.96444113675866,
136,0,136,0,,,,,,,,,,,,,,,,,,,,,,,,,,,,,,,,,,,,568.7408803999424,569.7590953998733,565.6271128000226,565.6271128000226,565.6271128000226,565.6271128000226,new_sceneOut_40.png,137,2.0,3.1068066000007093,,,067,11,2025-03-28_14h05.45.542,Surprise recog test,2023.1.3,59.96444113675866,
137,0,137,0,,,,,,,,,,,,,,,,,,,,,,,,,,,,,,,,,,,,573.644883699948,574.6524200998247,569.7590953998733,569.7590953998733,569.7590953998733,569.7590953998733,old_fruit_28.png,138,2.0,3.8841669999528676,,,067,11,2025-03-28_14h05.45.542,Surprise recog test,2023.1.3,59.96444113675866,
138,0,138,0,,,,,,,,,,,,,,,,,,,,,,,,,,,,,,,,,,,,576.6593329999596,577.6730758999474,574.6524200998247,574.6524200998247,574.6524200998247,574.6524200998247,old_sceneOut_21.png,139,2.0,2.0008378999773413,,,067,11,2025-03-28_14h05.45.542,Surprise recog test,2023.1.3,59.96444113675866,
139,0,139,0,,,,,,,,,,,,,,,,,,,,,,,,,,,,,,,,,,,,579.2914716999512,580.320169699844,577.6730758999474,577.6730758999474,577.6730758999474,577.6730758999474,new_sceneOut_21.png,140,2.0,1.6141262999735773,,,067,11,2025-03-28_14h05.45.542,Surprise recog test,2023.1.3,59.96444113675866,
140,0,140,0,,,,,,,,,,,,,,,,,,,,,,,,,,,,,,,,,,,,582.5356695000082,583.5515095998999,580.320169699844,580.320169699844,580.320169699844,580.320169699844,new_stationery_11.png,141,3.0,2.211685399990529,,,067,11,2025-03-28_14h05.45.542,Surprise recog test,2023.1.3,59.96444113675866,
141,0,141,0,,,,,,,,,,,,,,,,,,,,,,,,,,,,,,,,,,,,585.7438815999776,586.7593474998139,583.5515095998999,583.5515095998999,583.5515095998999,583.5515095998999,old_stationery_44.png,142,2.0,2.1915371001232415,,,067,11,2025-03-28_14h05.45.542,Surprise recog test,2023.1.3,59.96444113675866,
142,0,142,0,,,,,,,,,,,,,,,,,,,,,,,,,,,,,,,,,,,,588.284117099829,589.3064051000401,586.7593474998139,586.7593474998139,586.7593474998139,586.7593474998139,new_stationery_48.png,143,4.0,1.518554399954155,,,067,11,2025-03-28_14h05.45.542,Surprise recog test,2023.1.3,59.96444113675866,
143,0,143,0,,,,,,,,,,,,,,,,,,,,,,,,,,,,,,,,,,,,591.023302400019,592.0469887999352,589.3064051000401,589.3064051000401,589.3064051000401,589.3064051000401,old_fruit_15.png,144,1.0,1.712717100046575,,,067,11,2025-03-28_14h05.45.542,Surprise recog test,2023.1.3,59.96444113675866,
144,0,144,0,,,,,,,,,,,,,,,,,,,,,,,,,,,,,,,,,,,,594.2781728999689,595.2879066998139,592.0469887999352,592.0469887999352,592.0469887999352,592.0469887999352,new_sceneOut_26.png,145,1.0,2.2308328000362962,,,067,11,2025-03-28_14h05.45.542,Surprise recog test,2023.1.3,59.96444113675866,
145,0,145,0,,,,,,,,,,,,,,,,,,,,,,,,,,,,,,,,,,,,597.1978839000221,598.2180552999489,595.2879066998139,595.2879066998139,595.2879066998139,595.2879066998139,old_stationery_28.png,146,1.0,1.9054639998357743,,,067,11,2025-03-28_14h05.45.542,Surprise recog test,2023.1.3,59.96444113675866,
146,0,146,0,,,,,,,,,,,,,,,,,,,,,,,,,,,,,,,,,,,,599.6927377998363,600.7061662999913,598.2180552999489,598.2180552999489,598.2180552999489,598.2180552999489,old_sceneOut_41.png,147,1.0,1.4780118998605758,,,067,11,2025-03-28_14h05.45.542,Surprise recog test,2023.1.3,59.96444113675866,
147,0,147,0,,,,,,,,,,,,,,,,,,,,,,,,,,,,,,,,,,,,602.1354147999082,603.1540929998737,600.7061662999913,600.7061662999913,600.7061662999913,600.7061662999913,new_sceneOut_50.png,148,2.0,1.4257471999153495,,,067,11,2025-03-28_14h05.45.542,Surprise recog test,2023.1.3,59.96444113675866,
148,0,148,0,,,,,,,,,,,,,,,,,,,,,,,,,,,,,,,,,,,,605.6334798999596,606.659736200003,603.1540929998737,603.1540929998737,603.1540929998737,603.1540929998737,new_stationery_14.png,149,3.0,2.481604800093919,,,067,11,2025-03-28_14h05.45.542,Surprise recog test,2023.1.3,59.96444113675866,
149,0,149,0,,,,,,,,,,,,,,,,,,,,,,,,,,,,,,,,,,,,607.812287400011,608.8274280999321,606.659736200003,606.659736200003,606.659736200003,606.659736200003,old_fruit_30.png,150,2.0,1.1553605999797583,,,067,11,2025-03-28_14h05.45.542,Surprise recog test,2023.1.3,59.96444113675866,
150,0,150,0,,,,,,,,,,,,,,,,,,,,,,,,,,,,,,,,,,,,611.0300898998976,,608.8274280999321,608.8274280999321,608.8274280999321,608.8274280999321,old_stationery_10.png,151,2.0,2.1989748999476433,,,067,11,2025-03-28_14h05.45.542,Surprise recog test,2023.1.3,59.96444113675866,
151,0,151,0,,,,,,,,,,,,,,,,,,,,,,,,,,,,,,,,,,,,613.6622168000322,614.6759311999194,612.0488479998894,612.0488479998894,612.0488479998894,612.0488479998894,old_sceneIn_8.png,152,4.0,1.6084453999064863,,,067,11,2025-03-28_14h05.45.542,Surprise recog test,2023.1.3,59.96444113675866,
152,0,152,0,,,,,,,,,,,,,,,,,,,,,,,,,,,,,,,,,,,,616.4113099998794,617.4371412999462,614.6759311999194,614.6759311999194,614.6759311999194,614.6759311999194,new_sceneIn_5.png,153,4.0,1.7365214999299496,,,067,11,2025-03-28_14h05.45.542,Surprise recog test,2023.1.3,59.96444113675866,
153,0,153,0,,,,,,,,,,,,,,,,,,,,,,,,,,,,,,,,,,,,618.7905939000193,619.8178907998372,617.4371412999462,617.4371412999462,617.4371412999462,617.4371412999462,old_sceneOut_1.png,154,3.0,1.3573682999704033,,,067,11,2025-03-28_14h05.45.542,Surprise recog test,2023.1.3,59.96444113675866,
154,0,154,0,,,,,,,,,,,,,,,,,,,,,,,,,,,,,,,,,,,,621.8910963998642,622.9215730000287,619.8178907998372,619.8178907998372,619.8178907998372,619.8178907998372,old_sceneIn_19.png,155,4.0,2.0737566999159753,,,067,11,2025-03-28_14h05.45.542,Surprise recog test,2023.1.3,59.96444113675866,
155,0,155,0,,,,,,,,,,,,,,,,,,,,,,,,,,,,,,,,,,,,624.5338747999631,625.5458301999606,622.9215730000287,622.9215730000287,622.9215730000287,622.9215730000287,new_stationery_9.png,156,4.0,1.6123849002178758,,,067,11,2025-03-28_14h05.45.542,Surprise recog test,2023.1.3,59.96444113675866,
156,0,156,0,,,,,,,,,,,,,,,,,,,,,,,,,,,,,,,,,,,,626.8487770999782,627.8606679998338,625.5458301999606,625.5458301999606,625.5458301999606,625.5458301999606,old_sceneOut_2.png,157,2.0,1.2954059999901801,,,067,11,2025-03-28_14h05.45.542,Surprise recog test,2023.1.3,59.96444113675866,
157,0,157,0,,,,,,,,,,,,,,,,,,,,,,,,,,,,,,,,,,,,629.0996730998158,630.117650500033,627.8606679998338,627.8606679998338,627.8606679998338,627.8606679998338,new_fruit_5.png,158,1.0,1.2356463000178337,,,067,11,2025-03-28_14h05.45.542,Surprise recog test,2023.1.3,59.96444113675866,
158,0,158,0,,,,,,,,,,,,,,,,,,,,,,,,,,,,,,,,,,,,631.9459951999597,,630.117650500033,630.117650500033,630.117650500033,630.117650500033,old_sceneIn_35.png,159,4.0,1.8251072999555618,,,067,11,2025-03-28_14h05.45.542,Surprise recog test,2023.1.3,59.96444113675866,
159,0,159,0,,,,,,,,,,,,,,,,,,,,,,,,,,,,,,,,,,,,635.6915276998188,636.7049101998564,632.9796056998894,632.9796056998894,632.9796056998894,632.9796056998894,old_sceneIn_31.png,160,3.0,2.714599800063297,,,067,11,2025-03-28_14h05.45.542,Surprise recog test,2023.1.3,59.96444113675866,
160,0,160,0,,,,,,,,,,,,,,,,,,,,,,,,,,,,,,,,,,,,638.7044612998143,639.7304263999686,636.7049101998564,636.7049101998564,636.7049101998564,636.7049101998564,old_sceneIn_11.png,161,3.0,1.993767100153491,,,067,11,2025-03-28_14h05.45.542,Surprise recog test,2023.1.3,59.96444113675866,
161,0,161,0,,,,,,,,,,,,,,,,,,,,,,,,,,,,,,,,,,,,640.8581458998378,641.8871915999334,639.7304263999686,639.7304263999686,639.7304263999686,639.7304263999686,new_fruit_31.png,162,2.0,1.129390599904582,,,067,11,2025-03-28_14h05.45.542,Surprise recog test,2023.1.3,59.96444113675866,
162,0,162,0,,,,,,,,,,,,,,,,,,,,,,,,,,,,,,,,,,,,643.5400129999034,,641.8871915999334,641.8871915999334,641.8871915999334,641.8871915999334,old_stationery_21.png,163,3.0,1.654478299897164,,,067,11,2025-03-28_14h05.45.542,Surprise recog test,2023.1.3,59.96444113675866,
163,0,163,0,,,,,,,,,,,,,,,,,,,,,,,,,,,,,,,,,,,,645.8053496000357,646.8088672999293,644.5704095999245,644.5704095999245,644.5704095999245,644.5704095999245,old_fruit_33.png,164,2.0,1.2351011999417096,,,067,11,2025-03-28_14h05.45.542,Surprise recog test,2023.1.3,59.96444113675866,
164,0,164,0,,,,,,,,,,,,,,,,,,,,,,,,,,,,,,,,,,,,648.5591485998593,649.5648483999539,646.8088672999293,646.8088672999293,646.8088672999293,646.8088672999293,new_stationery_47.png,165,3.0,1.7435417999513447,,,067,11,2025-03-28_14h05.45.542,Surprise recog test,2023.1.3,59.96444113675866,
165,0,165,0,,,,,,,,,,,,,,,,,,,,,,,,,,,,,,,,,,,,651.0009377999231,652.0267178998329,649.5648483999539,649.5648483999539,649.5648483999539,649.5648483999539,old_fruit_2.png,166,1.0,1.43215429992415,,,067,11,2025-03-28_14h05.45.542,Surprise recog test,2023.1.3,59.96444113675866,
166,0,166,0,,,,,,,,,,,,,,,,,,,,,,,,,,,,,,,,,,,,654.2877411998343,655.3031185998116,652.0267178998329,652.0267178998329,652.0267178998329,652.0267178998329,new_sceneIn_21.png,167,4.0,2.2633829000405967,,,067,11,2025-03-28_14h05.45.542,Surprise recog test,2023.1.3,59.96444113675866,
167,0,167,0,,,,,,,,,,,,,,,,,,,,,,,,,,,,,,,,,,,,656.69195639994,657.7184084998444,655.3031185998116,655.3031185998116,655.3031185998116,655.3031185998116,old_stationery_15.png,168,4.0,1.3850365998223424,,,067,11,2025-03-28_14h05.45.542,Surprise recog test,2023.1.3,59.96444113675866,
168,0,168,0,,,,,,,,,,,,,,,,,,,,,,,,,,,,,,,,,,,,658.9877583000343,660.0168377000373,657.7184084998444,657.7184084998444,657.7184084998444,657.7184084998444,old_sceneOut_3.png,169,2.0,1.2716434001922607,,,067,11,2025-03-28_14h05.45.542,Surprise recog test,2023.1.3,59.96444113675866,
169,0,169,0,,,,,,,,,,,,,,,,,,,,,,,,,,,,,,,,,,,,662.3385053998791,,660.0168377000373,660.0168377000373,660.0168377000373,660.0168377000373,old_sceneIn_9.png,170,4.0,2.323292799992487,,,067,11,2025-03-28_14h05.45.542,Surprise recog test,2023.1.3,59.96444113675866,
170,0,170,0,,,,,,,,,,,,,,,,,,,,,,,,,,,,,,,,,,,,665.0582172998693,,663.3711043000221,663.3711043000221,663.3711043000221,663.3711043000221,old_sceneOut_37.png,171,2.0,1.6869892000686377,,,067,11,2025-03-28_14h05.45.542,Surprise recog test,2023.1.3,59.96444113675866,
171,0,171,0,,,,,,,,,,,,,,,,,,,,,,,,,,,,,,,,,,,,667.2897423999384,668.3036868998315,666.0788662999403,666.0788662999403,666.0788662999403,666.0788662999403,old_sceneOut_4.png,172,2.0,1.1995576000772417,,,067,11,2025-03-28_14h05.45.542,Surprise recog test,2023.1.3,59.96444113675866,
172,0,172,0,,,,,,,,,,,,,,,,,,,,,,,,,,,,,,,,,,,,669.9240605998784,670.9424709999003,668.3036868998315,668.3036868998315,668.3036868998315,668.3036868998315,new_stationery_42.png,173,3.0,1.6186695999931544,,,067,11,2025-03-28_14h05.45.542,Surprise recog test,2023.1.3,59.96444113675866,
173,0,173,0,,,,,,,,,,,,,,,,,,,,,,,,,,,,,,,,,,,,672.6073339998256,673.6303460998461,670.9424709999003,670.9424709999003,670.9424709999003,670.9424709999003,new_stationery_45.png,174,2.0,1.6651188000105321,,,067,11,2025-03-28_14h05.45.542,Surprise recog test,2023.1.3,59.96444113675866,
174,0,174,0,,,,,,,,,,,,,,,,,,,,,,,,,,,,,,,,,,,,675.2257480998524,676.246485499898,673.6303460998461,673.6303460998461,673.6303460998461,673.6303460998461,old_stationery_12.png,175,1.0,1.5984157999046147,,,067,11,2025-03-28_14h05.45.542,Surprise recog test,2023.1.3,59.96444113675866,
175,0,175,0,,,,,,,,,,,,,,,,,,,,,,,,,,,,,,,,,,,,677.9254461999517,678.9505785999354,676.246485499898,676.246485499898,676.246485499898,676.246485499898,old_fruit_4.png,176,2.0,1.6781315000262111,,,067,11,2025-03-28_14h05.45.542,Surprise recog test,2023.1.3,59.96444113675866,
176,0,176,0,,,,,,,,,,,,,,,,,,,,,,,,,,,,,,,,,,,,680.2052692000289,681.2342953998595,678.9505785999354,678.9505785999354,678.9505785999354,678.9505785999354,new_sceneOut_46.png,177,2.0,1.2562446999363601,,,067,11,2025-03-28_14h05.45.542,Surprise recog test,2023.1.3,59.96444113675866,
177,0,177,0,,,,,,,,,,,,,,,,,,,,,,,,,,,,,,,,,,,,683.5360562999267,684.5427007998805,681.2342953998595,681.2342953998595,681.2342953998595,681.2342953998595,new_sceneIn_22.png,178,4.0,2.2983752000145614,,,067,11,2025-03-28_14h05.45.542,Surprise recog test,2023.1.3,59.96444113675866,
178,0,178,0,,,,,,,,,,,,,,,,,,,,,,,,,,,,,,,,,,,,686.3509243000299,687.3655717999209,684.5427007998805,684.5427007998805,684.5427007998805,684.5427007998805,old_stationery_42.png,179,2.0,1.8055631001479924,,,067,11,2025-03-28_14h05.45.542,Surprise recog test,2023.1.3,59.96444113675866,
179,0,179,0,,,,,,,,,,,,,,,,,,,,,,,,,,,,,,,,,,,,688.428747399943,689.4615426999517,687.3655717999209,687.3655717999209,687.3655717999209,687.3655717999209,new_sceneOut_1.png,180,2.0,1.0603285999968648,,,067,11,2025-03-28_14h05.45.542,Surprise recog test,2023.1.3,59.96444113675866,
180,0,180,0,,,,,,,,,,,,,,,,,,,,,,,,,,,,,,,,,,,,691.1238592998125,692.1470146998763,689.4615426999517,689.4615426999517,689.4615426999517,689.4615426999517,old_stationery_8.png,181,3.0,1.6649539000354707,,,067,11,2025-03-28_14h05.45.542,Surprise recog test,2023.1.3,59.96444113675866,
181,0,181,0,,,,,,,,,,,,,,,,,,,,,,,,,,,,,,,,,,,,694.8291793998796,695.8398062998895,692.1470146998763,692.1470146998763,692.1470146998763,692.1470146998763,new_sceneIn_32.png,182,2.0,2.676926099928096,,,067,11,2025-03-28_14h05.45.542,Surprise recog test,2023.1.3,59.96444113675866,
182,0,182,0,,,,,,,,,,,,,,,,,,,,,,,,,,,,,,,,,,,,697.373049199814,698.4015265000053,695.8398062998895,695.8398062998895,695.8398062998895,695.8398062998895,new_stationery_27.png,183,4.0,1.5318342000246048,,,067,11,2025-03-28_14h05.45.542,Surprise recog test,2023.1.3,59.96444113675866,
183,0,183,0,,,,,,,,,,,,,,,,,,,,,,,,,,,,,,,,,,,,699.9053805998992,700.9263232999947,698.4015265000053,698.4015265000053,698.4015265000053,698.4015265000053,new_fruit_34.png,184,3.0,1.5039339000359178,,,067,11,2025-03-28_14h05.45.542,Surprise recog test,2023.1.3,59.96444113675866,
184,0,184,0,,,,,,,,,,,,,,,,,,,,,,,,,,,,,,,,,,,,703.9989539999515,705.0229288998526,700.9263232999947,700.9263232999947,700.9263232999947,700.9263232999947,old_fruit_27.png,185,3.0,3.066132899839431,,,067,11,2025-03-28_14h05.45.542,Surprise recog test,2023.1.3,59.96444113675866,
185,0,185,0,,,,,,,,,,,,,,,,,,,,,,,,,,,,,,,,,,,,707.264530699933,708.2942180000246,705.0229288998526,705.0229288998526,705.0229288998526,705.0229288998526,new_sceneOut_36.png,186,2.0,2.2438617998268455,,,067,11,2025-03-28_14h05.45.542,Surprise recog test,2023.1.3,59.96444113675866,
186,0,186,0,,,,,,,,,,,,,,,,,,,,,,,,,,,,,,,,,,,,709.8471981999464,710.8810906000435,708.2942180000246,708.2942180000246,708.2942180000246,708.2942180000246,new_stationery_22.png,187,2.0,1.555154100060463,,,067,11,2025-03-28_14h05.45.542,Surprise recog test,2023.1.3,59.96444113675866,
187,0,187,0,,,,,,,,,,,,,,,,,,,,,,,,,,,,,,,,,,,,712.3852845998481,713.41359679983,710.8810906000435,710.8810906000435,710.8810906000435,710.8810906000435,new_sceneOut_31.png,188,1.0,1.5079270000569522,,,067,11,2025-03-28_14h05.45.542,Surprise recog test,2023.1.3,59.96444113675866,
188,0,188,0,,,,,,,,,,,,,,,,,,,,,,,,,,,,,,,,,,,,714.956444399897,715.9742733000312,713.41359679983,713.41359679983,713.41359679983,713.41359679983,old_sceneOut_14.png,189,1.0,1.5453884000889957,,,067,11,2025-03-28_14h05.45.542,Surprise recog test,2023.1.3,59.96444113675866,
189,0,189,0,,,,,,,,,,,,,,,,,,,,,,,,,,,,,,,,,,,,717.6295723000076,718.6375206999946,715.9742733000312,715.9742733000312,715.9742733000312,715.9742733000312,old_stationery_32.png,190,3.0,1.6549290001858026,,,067,11,2025-03-28_14h05.45.542,Surprise recog test,2023.1.3,59.96444113675866,
190,0,190,0,,,,,,,,,,,,,,,,,,,,,,,,,,,,,,,,,,,,720.0372342998162,,718.6375206999946,718.6375206999946,718.6375206999946,718.6375206999946,old_fruit_41.png,191,2.0,1.3948365999385715,,,067,11,2025-03-28_14h05.45.542,Surprise recog test,2023.1.3,59.96444113675866,
191,0,191,0,,,,,,,,,,,,,,,,,,,,,,,,,,,,,,,,,,,,723.0526779999491,724.0666100999806,721.0664825998247,721.0664825998247,721.0664825998247,721.0664825998247,new_sceneIn_25.png,192,4.0,1.9835957000032067,,,067,11,2025-03-28_14h05.45.542,Surprise recog test,2023.1.3,59.96444113675866,
192,0,192,0,,,,,,,,,,,,,,,,,,,,,,,,,,,,,,,,,,,,725.4212435998488,726.4434098999482,724.0666100999806,724.0666100999806,724.0666100999806,724.0666100999806,old_fruit_39.png,193,1.0,1.3489572000689805,,,067,11,2025-03-28_14h05.45.542,Surprise recog test,2023.1.3,59.96444113675866,
193,0,193,0,,,,,,,,,,,,,,,,,,,,,,,,,,,,,,,,,,,,728.562472499907,729.5928458999842,726.4434098999482,726.4434098999482,726.4434098999482,726.4434098999482,new_sceneIn_18.png,194,2.0,2.1197460000403225,,,067,11,2025-03-28_14h05.45.542,Surprise recog test,2023.1.3,59.96444113675866,
194,0,194,0,,,,,,,,,,,,,,,,,,,,,,,,,,,,,,,,,,,,730.9652439998463,731.9848821000196,729.5928458999842,729.5928458999842,729.5928458999842,729.5928458999842,old_sceneOut_43.png,195,2.0,1.3749869000166655,,,067,11,2025-03-28_14h05.45.542,Surprise recog test,2023.1.3,59.96444113675866,
195,0,195,0,,,,,,,,,,,,,,,,,,,,,,,,,,,,,,,,,,,,733.6742628000211,734.6877382998355,731.9848821000196,731.9848821000196,731.9848821000196,731.9848821000196,old_stationery_18.png,196,3.0,1.6851192000322044,,,067,11,2025-03-28_14h05.45.542,Surprise recog test,2023.1.3,59.96444113675866,
196,0,196,0,,,,,,,,,,,,,,,,,,,,,,,,,,,,,,,,,,,,736.4333182999399,,734.6877382998355,734.6877382998355,734.6877382998355,734.6877382998355,new_sceneOut_32.png,197,2.0,1.7405023998580873,,,067,11,2025-03-28_14h05.45.542,Surprise recog test,2023.1.3,59.96444113675866,
197,0,197,0,,,,,,,,,,,,,,,,,,,,,,,,,,,,,,,,,,,,739.4449632999022,740.4577605999075,737.4639268999454,737.4639268999454,737.4639268999454,737.4639268999454,old_sceneIn_25.png,198,3.0,1.982336200075224,,,067,11,2025-03-28_14h05.45.542,Surprise recog test,2023.1.3,59.96444113675866,
198,0,198,0,,,,,,,,,,,,,,,,,,,,,,,,,,,,,,,,,,,,742.3196477999445,743.3279738000128,740.4577605999075,740.4577605999075,740.4577605999075,740.4577605999075,old_stationery_14.png,199,4.0,1.857844099868089,,,067,11,2025-03-28_14h05.45.542,Surprise recog test,2023.1.3,59.96444113675866,
199,0,199,0,,,,,,,,,,,,,,,,,,,,,,,,,,,,,,,,,,,,745.8048655998427,746.8326141999569,743.3279738000128,743.3279738000128,743.3279738000128,743.3279738000128,new_fruit_18.png,200,2.0,2.4654880999587476,,,067,11,2025-03-28_14h05.45.542,Surprise recog test,2023.1.3,59.96444113675866,
200,0,200,0,,,,,,,,,,,,,,,,,,,,,,,,,,,,,,,,,,,,749.7442121999338,,746.8326141999569,746.8326141999569,746.8326141999569,746.8326141999569,old_sceneIn_28.png,201,3.0,2.9129768998827785,,,067,11,2025-03-28_14h05.45.542,Surprise recog test,2023.1.3,59.96444113675866,
201,0,201,0,,,,,,,,,,,,,,,,,,,,,,,,,,,,,,,,,,,,753.3860820999835,754.4139987998642,750.7778727998957,750.7778727998957,750.7778727998957,750.7778727998957,old_sceneOut_19.png,202,4.0,2.6061436999589205,,,067,11,2025-03-28_14h05.45.542,Surprise recog test,2023.1.3,59.96444113675866,
202,0,202,0,,,,,,,,,,,,,,,,,,,,,,,,,,,,,,,,,,,,756.4791021998972,757.4982761000283,754.4139987998642,754.4139987998642,754.4139987998642,754.4139987998642,new_sceneIn_12.png,203,3.0,2.0603634999133646,,,067,11,2025-03-28_14h05.45.542,Surprise recog test,2023.1.3,59.96444113675866,
203,0,203,0,,,,,,,,,,,,,,,,,,,,,,,,,,,,,,,,,,,,759.3662335998379,760.3749801998492,757.4982761000283,757.4982761000283,757.4982761000283,757.4982761000283,old_stationery_4.png,204,2.0,1.8665662999264896,,,067,11,2025-03-28_14h05.45.542,Surprise recog test,2023.1.3,59.96444113675866,
204,0,204,0,,,,,,,,,,,,,,,,,,,,,,,,,,,,,,,,,,,,761.9695198999252,762.9760670999531,760.3749801998492,760.3749801998492,760.3749801998492,760.3749801998492,new_sceneOut_39.png,205,2.0,1.5879909999202937,,,067,11,2025-03-28_14h05.45.542,Surprise recog test,2023.1.3,59.96444113675866,
205,0,205,0,,,,,,,,,,,,,,,,,,,,,,,,,,,,,,,,,,,,764.4038711998146,765.4205634999089,762.9760670999531,762.9760670999531,762.9760670999531,762.9760670999531,old_fruit_18.png,206,1.0,1.4161044999491423,,,067,11,2025-03-28_14h05.45.542,Surprise recog test,2023.1.3,59.96444113675866,
206,0,206,0,,,,,,,,,,,,,,,,,,,,,,,,,,,,,,,,,,,,767.2894223998301,768.3092660999391,765.4205634999089,765.4205634999089,765.4205634999089,765.4205634999089,old_stationery_41.png,207,3.0,1.8637790000066161,,,067,11,2025-03-28_14h05.45.542,Surprise recog test,2023.1.3,59.96444113675866,
207,0,207,0,,,,,,,,,,,,,,,,,,,,,,,,,,,,,,,,,,,,769.557646199828,770.5656570999417,768.3092660999391,768.3092660999391,768.3092660999391,768.3092660999391,old_stationery_34.png,208,3.0,1.2506486000493169,,,067,11,2025-03-28_14h05.45.542,Surprise recog test,2023.1.3,59.96444113675866,
208,0,208,0,,,,,,,,,,,,,,,,,,,,,,,,,,,,,,,,,,,,772.4761316999793,773.4853956999723,770.5656570999417,770.5656570999417,770.5656570999417,770.5656570999417,old_stationery_46.png,209,4.0,1.9064951001200825,,,067,11,2025-03-28_14h05.45.542,Surprise recog test,2023.1.3,59.96444113675866,
209,0,209,0,,,,,,,,,,,,,,,,,,,,,,,,,,,,,,,,,,,,774.9124453000259,775.9163120999001,773.4853956999723,773.4853956999723,773.4853956999723,773.4853956999723,new_sceneOut_18.png,210,2.0,1.4179499000310898,,,067,11,2025-03-28_14h05.45.542,Surprise recog test,2023.1.3,59.96444113675866,
210,0,210,0,,,,,,,,,,,,,,,,,,,,,,,,,,,,,,,,,,,,777.5205049999058,778.550508099841,775.9163120999001,775.9163120999001,775.9163120999001,775.9163120999001,new_stationery_38.png,211,1.0,1.5975013999268413,,,067,11,2025-03-28_14h05.45.542,Surprise recog test,2023.1.3,59.96444113675866,
211,0,211,0,,,,,,,,,,,,,,,,,,,,,,,,,,,,,,,,,,,,780.5407852998469,781.5729372999631,778.550508099841,778.550508099841,778.550508099841,778.550508099841,old_sceneOut_50.png,212,2.0,1.9924316999968141,,,067,11,2025-03-28_14h05.45.542,Surprise recog test,2023.1.3,59.96444113675866,
212,0,212,0,,,,,,,,,,,,,,,,,,,,,,,,,,,,,,,,,,,,784.109964299947,785.1280397998635,781.5729372999631,781.5729372999631,781.5729372999631,781.5729372999631,new_stationery_35.png,213,3.0,2.537939199944958,,,067,11,2025-03-28_14h05.45.542,Surprise recog test,2023.1.3,59.96444113675866,
213,0,213,0,,,,,,,,,,,,,,,,,,,,,,,,,,,,,,,,,,,,786.5221263000276,787.526911099907,785.1280397998635,785.1280397998635,785.1280397998635,785.1280397998635,new_fruit_26.png,214,2.0,1.3914314999710768,,,067,11,2025-03-28_14h05.45.542,Surprise recog test,2023.1.3,59.96444113675866,
214,0,214,0,,,,,,,,,,,,,,,,,,,,,,,,,,,,,,,,,,,,789.4852234998252,790.5105240999255,787.526911099907,787.526911099907,787.526911099907,787.526911099907,old_sceneIn_33.png,215,4.0,1.954400299815461,,,067,11,2025-03-28_14h05.45.542,Surprise recog test,2023.1.3,59.96444113675866,
215,0,215,0,,,,,,,,,,,,,,,,,,,,,,,,,,,,,,,,,,,,792.7321311000269,793.7532061999664,790.5105240999255,790.5105240999255,790.5105240999255,790.5105240999255,new_stationery_28.png,216,3.0,2.2235412001609802,,,067,11,2025-03-28_14h05.45.542,Surprise recog test,2023.1.3,59.96444113675866,
216,0,216,0,,,,,,,,,,,,,,,,,,,,,,,,,,,,,,,,,,,,796.1624767000321,797.169141399907,793.7532061999664,793.7532061999664,793.7532061999664,793.7532061999664,old_sceneIn_15.png,217,4.0,2.4045074000023305,,,067,11,2025-03-28_14h05.45.542,Surprise recog test,2023.1.3,59.96444113675866,
217,0,217,0,,,,,,,,,,,,,,,,,,,,,,,,,,,,,,,,,,,,798.9326190999709,799.9410740998574,797.169141399907,797.169141399907,797.169141399907,797.169141399907,old_stationery_16.png,218,2.0,1.752364099957049,,,067,11,2025-03-28_14h05.45.542,Surprise recog test,2023.1.3,59.96444113675866,
218,0,218,0,,,,,,,,,,,,,,,,,,,,,,,,,,,,,,,,,,,,801.4395120998379,802.4742372999899,799.9410740998574,799.9410740998574,799.9410740998574,799.9410740998574,old_stationery_6.png,219,3.0,1.4926533000543714,,,067,11,2025-03-28_14h05.45.542,Surprise recog test,2023.1.3,59.96444113675866,
219,0,219,0,,,,,,,,,,,,,,,,,,,,,,,,,,,,,,,,,,,,804.0719790998846,,802.4742372999899,802.4742372999899,802.4742372999899,802.4742372999899,old_sceneIn_24.png,220,3.0,1.5980382000561804,,,067,11,2025-03-28_14h05.45.542,Surprise recog test,2023.1.3,59.96444113675866,
220,0,220,0,,,,,,,,,,,,,,,,,,,,,,,,,,,,,,,,,,,,807.2396030998789,808.248018699931,805.1065473000053,805.1065473000053,805.1065473000053,805.1065473000053,new_stationery_26.png,221,3.0,2.1297043999657035,,,067,11,2025-03-28_14h05.45.542,Surprise recog test,2023.1.3,59.96444113675866,
221,0,221,0,,,,,,,,,,,,,,,,,,,,,,,,,,,,,,,,,,,,810.4787361000199,,808.248018699931,808.248018699931,808.248018699931,808.248018699931,new_fruit_16.png,222,1.0,2.227421399904415,,,067,11,2025-03-28_14h05.45.542,Surprise recog test,2023.1.3,59.96444113675866,
222,0,222,0,,,,,,,,,,,,,,,,,,,,,,,,,,,,,,,,,,,,813.0562521000393,814.0689846999012,811.500752999913,811.500752999913,811.500752999913,811.500752999913,old_sceneIn_17.png,223,4.0,1.5524619999341667,,,067,11,2025-03-28_14h05.45.542,Surprise recog test,2023.1.3,59.96444113675866,
223,0,223,0,,,,,,,,,,,,,,,,,,,,,,,,,,,,,,,,,,,,815.2801375000272,816.3024062998593,814.0689846999012,814.0689846999012,814.0689846999012,814.0689846999012,old_fruit_16.png,224,2.0,1.2069409000687301,,,067,11,2025-03-28_14h05.45.542,Surprise recog test,2023.1.3,59.96444113675866,
224,0,224,0,,,,,,,,,,,,,,,,,,,,,,,,,,,,,,,,,,,,817.7302401999477,818.7519759000279,816.3024062998593,816.3024062998593,816.3024062998593,816.3024062998593,old_fruit_13.png,225,2.0,1.4278887000400573,,,067,11,2025-03-28_14h05.45.542,Surprise recog test,2023.1.3,59.96444113675866,
225,0,225,0,,,,,,,,,,,,,,,,,,,,,,,,,,,,,,,,,,,,820.5869825000409,,818.7519759000279,818.7519759000279,818.7519759000279,818.7519759000279,new_stationery_12.png,226,2.0,1.837743500014767,,,067,11,2025-03-28_14h05.45.542,Surprise recog test,2023.1.3,59.96444113675866,
226,0,226,0,,,,,,,,,,,,,,,,,,,,,,,,,,,,,,,,,,,,824.3619822999462,825.3880682999734,821.6079869000241,821.6079869000241,821.6079869000241,821.6079869000241,old_fruit_1.png,227,3.0,2.7506438998971134,,,067,11,2025-03-28_14h05.45.542,Surprise recog test,2023.1.3,59.96444113675866,
227,0,227,0,,,,,,,,,,,,,,,,,,,,,,,,,,,,,,,,,,,,826.909529699944,,825.3880682999734,825.3880682999734,825.3880682999734,825.3880682999734,new_fruit_8.png,228,2.0,1.5231519001536071,,,067,11,2025-03-28_14h05.45.542,Surprise recog test,2023.1.3,59.96444113675866,
228,0,228,0,,,,,,,,,,,,,,,,,,,,,,,,,,,,,,,,,,,,828.8239384999033,829.8294207998551,827.934515299974,827.934515299974,827.934515299974,827.934515299974,old_fruit_37.png,229,2.0,0.8887475999072194,,,067,11,2025-03-28_14h05.45.542,Surprise recog test,2023.1.3,59.96444113675866,
229,0,229,0,,,,,,,,,,,,,,,,,,,,,,,,,,,,,,,,,,,,831.8727545000147,832.8857960999012,829.8294207998551,829.8294207998551,829.8294207998551,829.8294207998551,old_sceneIn_45.png,230,4.0,2.037472299998626,,,067,11,2025-03-28_14h05.45.542,Surprise recog test,2023.1.3,59.96444113675866,
230,0,230,0,,,,,,,,,,,,,,,,,,,,,,,,,,,,,,,,,,,,834.2619358999655,835.2695453998167,832.8857960999012,832.8857960999012,832.8857960999012,832.8857960999012,old_sceneOut_49.png,231,2.0,1.3652598999906331,,,067,11,2025-03-28_14h05.45.542,Surprise recog test,2023.1.3,59.96444113675866,
231,0,231,0,,,,,,,,,,,,,,,,,,,,,,,,,,,,,,,,,,,,836.7347837998532,,835.2695453998167,835.2695453998167,835.2695453998167,835.2695453998167,old_stationery_25.png,232,1.0,1.46094680018723,,,067,11,2025-03-28_14h05.45.542,Surprise recog test,2023.1.3,59.96444113675866,
232,0,232,0,,,,,,,,,,,,,,,,,,,,,,,,,,,,,,,,,,,,839.9246857999824,840.9390445000026,837.7511185000185,837.7511185000185,837.7511185000185,837.7511185000185,new_fruit_38.png,233,1.0,2.1674478999339044,,,067,11,2025-03-28_14h05.45.542,Surprise recog test,2023.1.3,59.96444113675866,
233,0,233,0,,,,,,,,,,,,,,,,,,,,,,,,,,,,,,,,,,,,842.3685055999085,843.3728120999876,840.9390445000026,840.9390445000026,840.9390445000026,840.9390445000026,new_sceneIn_15.png,234,4.0,1.4212097998242825,,,067,11,2025-03-28_14h05.45.542,Surprise recog test,2023.1.3,59.96444113675866,
234,0,234,0,,,,,,,,,,,,,,,,,,,,,,,,,,,,,,,,,,,,844.8205782000441,845.8295074999332,843.3728120999876,843.3728120999876,843.3728120999876,843.3728120999876,old_sceneIn_41.png,235,4.0,1.4371271999552846,,,067,11,2025-03-28_14h05.45.542,Surprise recog test,2023.1.3,59.96444113675866,
235,0,235,0,,,,,,,,,,,,,,,,,,,,,,,,,,,,,,,,,,,,847.5254008998163,,845.8295074999332,845.8295074999332,845.8295074999332,845.8295074999332,new_sceneOut_14.png,236,2.0,1.692926799878478,,,067,11,2025-03-28_14h05.45.542,Surprise recog test,2023.1.3,59.96444113675866,
236,0,236,0,,,,,,,,,,,,,,,,,,,,,,,,,,,,,,,,,,,,850.358444500016,851.3635019999929,848.544137599878,848.544137599878,848.544137599878,848.544137599878,new_sceneIn_7.png,237,4.0,1.8040277999825776,,,067,11,2025-03-28_14h05.45.542,Surprise recog test,2023.1.3,59.96444113675866,
237,0,237,0,,,,,,,,,,,,,,,,,,,,,,,,,,,,,,,,,,,,852.8772326000035,853.8823626998346,851.3635019999929,851.3635019999929,851.3635019999929,851.3635019999929,new_fruit_3.png,238,2.0,1.5038892000447959,,,067,11,2025-03-28_14h05.45.542,Surprise recog test,2023.1.3,59.96444113675866,
238,0,238,0,,,,,,,,,,,,,,,,,,,,,,,,,,,,,,,,,,,,855.4627539999783,856.466968299821,853.8823626998346,853.8823626998346,853.8823626998346,853.8823626998346,new_sceneOut_37.png,239,3.0,1.5700443000532687,,,067,11,2025-03-28_14h05.45.542,Surprise recog test,2023.1.3,59.96444113675866,
239,0,239,0,,,,,,,,,,,,,,,,,,,,,,,,,,,,,,,,,,,,857.7480585998856,858.7529200999998,856.466968299821,856.466968299821,856.466968299821,856.466968299821,old_stationery_35.png,240,2.0,1.2707423001993448,,,067,11,2025-03-28_14h05.45.542,Surprise recog test,2023.1.3,59.96444113675866,
240,0,240,0,,,,,,,,,,,,,,,,,,,,,,,,,,,,,,,,,,,,860.2667981998529,861.2718410999514,858.7529200999998,858.7529200999998,858.7529200999998,858.7529200999998,new_sceneOut_4.png,241,2.0,1.5045342999510467,,,067,11,2025-03-28_14h05.45.542,Surprise recog test,2023.1.3,59.96444113675866,
241,0,241,0,,,,,,,,,,,,,,,,,,,,,,,,,,,,,,,,,,,,863.0858044999186,864.0902640998829,861.2718410999514,861.2718410999514,861.2718410999514,861.2718410999514,new_sceneIn_33.png,242,4.0,1.803901799954474,,,067,11,2025-03-28_14h05.45.542,Surprise recog test,2023.1.3,59.96444113675866,
242,0,242,0,,,,,,,,,,,,,,,,,,,,,,,,,,,,,,,,,,,,866.1884128998499,867.1938992999494,864.0902640998829,864.0902640998829,864.0902640998829,864.0902640998829,old_fruit_8.png,243,2.0,2.0880925999954343,,,067,11,2025-03-28_14h05.45.542,Surprise recog test,2023.1.3,59.96444113675866,
243,0,243,0,,,,,,,,,,,,,,,,,,,,,,,,,,,,,,,,,,,,869.5745265998412,870.5790958998259,867.1938992999494,867.1938992999494,867.1938992999494,867.1938992999494,new_sceneIn_17.png,244,4.0,2.371155600063503,,,067,11,2025-03-28_14h05.45.542,Surprise recog test,2023.1.3,59.96444113675866,
244,0,244,0,,,,,,,,,,,,,,,,,,,,,,,,,,,,,,,,,,,,872.0598946998361,873.0665756999515,870.5790958998259,870.5790958998259,870.5790958998259,870.5790958998259,new_sceneIn_30.png,245,2.0,1.4708315001334995,,,067,11,2025-03-28_14h05.45.542,Surprise recog test,2023.1.3,59.96444113675866,
245,0,245,0,,,,,,,,,,,,,,,,,,,,,,,,,,,,,,,,,,,,874.3784749999177,875.3834207998589,873.0665756999515,873.0665756999515,873.0665756999515,873.0665756999515,old_stationery_24.png,246,2.0,1.3035430000163615,,,067,11,2025-03-28_14h05.45.542,Surprise recog test,2023.1.3,59.96444113675866,
246,0,246,0,,,,,,,,,,,,,,,,,,,,,,,,,,,,,,,,,,,,876.5302446999121,877.5348393998574,875.3834207998589,875.3834207998589,875.3834207998589,875.3834207998589,new_sceneOut_24.png,247,2.0,1.1369097998831421,,,067,11,2025-03-28_14h05.45.542,Surprise recog test,2023.1.3,59.96444113675866,
247,0,247,0,,,,,,,,,,,,,,,,,,,,,,,,,,,,,,,,,,,,879.3993936998304,880.4053795998916,877.5348393998574,877.5348393998574,877.5348393998574,877.5348393998574,old_sceneOut_25.png,248,1.0,1.85827809991315,,,067,11,2025-03-28_14h05.45.542,Surprise recog test,2023.1.3,59.96444113675866,
248,0,248,0,,,,,,,,,,,,,,,,,,,,,,,,,,,,,,,,,,,,882.3018286000006,883.3063693000004,880.4053795998916,880.4053795998916,880.4053795998916,880.4053795998916,new_stationery_24.png,249,2.0,1.8879145998507738,,,067,11,2025-03-28_14h05.45.542,Surprise recog test,2023.1.3,59.96444113675866,
249,0,249,0,,,,,,,,,,,,,,,,,,,,,,,,,,,,,,,,,,,,884.9539276999421,885.95963139995,883.3063693000004,883.3063693000004,883.3063693000004,883.3063693000004,new_stationery_19.png,250,2.0,1.6368537999223918,,,067,11,2025-03-28_14h05.45.542,Surprise recog test,2023.1.3,59.96444113675866,
250,0,250,0,,,,,,,,,,,,,,,,,,,,,,,,,,,,,,,,,,,,888.3901410000399,889.4089285000227,885.95963139995,885.95963139995,885.95963139995,885.95963139995,old_sceneIn_48.png,251,4.0,2.423414599848911,,,067,11,2025-03-28_14h05.45.542,Surprise recog test,2023.1.3,59.96444113675866,
251,0,251,0,,,,,,,,,,,,,,,,,,,,,,,,,,,,,,,,,,,,891.0646275999025,892.0992377998773,889.4089285000227,889.4089285000227,889.4089285000227,889.4089285000227,old_stationery_20.png,252,3.0,1.65614840015769,,,067,11,2025-03-28_14h05.45.542,Surprise recog test,2023.1.3,59.96444113675866,
252,0,252,0,,,,,,,,,,,,,,,,,,,,,,,,,,,,,,,,,,,,893.41883339989,894.4358836999163,892.0992377998773,892.0992377998773,892.0992377998773,892.0992377998773,new_sceneOut_28.png,253,2.0,1.3234071000479162,,,067,11,2025-03-28_14h05.45.542,Surprise recog test,2023.1.3,59.96444113675866,
253,0,253,0,,,,,,,,,,,,,,,,,,,,,,,,,,,,,,,,,,,,897.3353959999513,,894.4358836999163,894.4358836999163,894.4358836999163,894.4358836999163,new_sceneIn_26.png,254,3.0,2.8944325998891145,,,067,11,2025-03-28_14h05.45.542,Surprise recog test,2023.1.3,59.96444113675866,
254,0,254,0,,,,,,,,,,,,,,,,,,,,,,,,,,,,,,,,,,,,900.2166818999685,901.2369274999946,898.3694777998608,898.3694777998608,898.3694777998608,898.3694777998608,old_sceneOut_6.png,255,2.0,1.8495344000402838,,,067,11,2025-03-28_14h05.45.542,Surprise recog test,2023.1.3,59.96444113675866,
255,0,255,0,,,,,,,,,,,,,,,,,,,,,,,,,,,,,,,,,,,,902.9865129999816,904.007408299949,901.2369274999946,901.2369274999946,901.2369274999946,901.2369274999946,new_fruit_7.png,256,1.0,1.7487480998970568,,,067,11,2025-03-28_14h05.45.542,Surprise recog test,2023.1.3,59.96444113675866,
256,0,256,0,,,,,,,,,,,,,,,,,,,,,,,,,,,,,,,,,,,,905.8410618000198,,904.007408299949,904.007408299949,904.007408299949,904.007408299949,old_stationery_22.png,257,3.0,1.8368826999794692,,,067,11,2025-03-28_14h05.45.542,Surprise recog test,2023.1.3,59.96444113675866,
257,0,257,0,,,,,,,,,,,,,,,,,,,,,,,,,,,,,,,,,,,,909.4789837999269,,906.8779984000139,906.8779984000139,906.8779984000139,906.8779984000139,new_sceneIn_48.png,258,2.0,2.603775800205767,,,067,11,2025-03-28_14h05.45.542,Surprise recog test,2023.1.3,59.96444113675866,
258,0,258,0,,,,,,,,,,,,,,,,,,,,,,,,,,,,,,,,,,,,911.5905766999349,912.6010739000048,910.4994176998734,910.4994176998734,910.4994176998734,910.4994176998734,old_sceneOut_28.png,259,2.0,1.0863690001424402,,,067,11,2025-03-28_14h05.45.542,Surprise recog test,2023.1.3,59.96444113675866,
259,0,259,0,,,,,,,,,,,,,,,,,,,,,,,,,,,,,,,,,,,,914.2304312000051,915.2368089000229,912.6010739000048,912.6010739000048,912.6010739000048,912.6010739000048,old_sceneOut_45.png,260,1.0,1.6216072998940945,,,067,11,2025-03-28_14h05.45.542,Surprise recog test,2023.1.3,59.96444113675866,
260,0,260,0,,,,,,,,,,,,,,,,,,,,,,,,,,,,,,,,,,,,917.6292206998914,918.6522448000032,915.2368089000229,915.2368089000229,915.2368089000229,915.2368089000229,new_stationery_49.png,261,4.0,2.3883549000602216,,,067,11,2025-03-28_14h05.45.542,Surprise recog test,2023.1.3,59.96444113675866,
261,0,261,0,,,,,,,,,,,,,,,,,,,,,,,,,,,,,,,,,,,,920.1072017999832,921.1361620998941,918.6522448000032,918.6522448000032,918.6522448000032,918.6522448000032,old_sceneOut_33.png,262,2.0,1.4553373001981527,,,067,11,2025-03-28_14h05.45.542,Surprise recog test,2023.1.3,59.96444113675866,
262,0,262,0,,,,,,,,,,,,,,,,,,,,,,,,,,,,,,,,,,,,923.1434140999336,924.1568829999305,921.1361620998941,921.1361620998941,921.1361620998941,921.1361620998941,old_fruit_24.png,263,3.0,2.009517899947241,,,067,11,2025-03-28_14h05.45.542,Surprise recog test,2023.1.3,59.96444113675866,
263,0,263,0,,,,,,,,,,,,,,,,,,,,,,,,,,,,,,,,,,,,925.6351972999983,926.6438136999495,924.1568829999305,924.1568829999305,924.1568829999305,924.1568829999305,new_fruit_20.png,264,2.0,1.4744487998541445,,,067,11,2025-03-28_14h05.45.542,Surprise recog test,2023.1.3,59.96444113675866,
264,0,264,0,,,,,,,,,,,,,,,,,,,,,,,,,,,,,,,,,,,,928.428693599999,929.4609172998462,926.6438136999495,926.6438136999495,926.6438136999495,926.6438136999495,old_sceneIn_46.png,265,4.0,1.7818638000171632,,,067,11,2025-03-28_14h05.45.542,Surprise recog test,2023.1.3,59.96444113675866,
265,0,265,0,,,,,,,,,,,,,,,,,,,,,,,,,,,,,,,,,,,,930.6985237998888,931.7276520999148,929.4609172998462,929.4609172998462,929.4609172998462,929.4609172998462,old_sceneOut_16.png,266,2.0,1.2379934000782669,,,067,11,2025-03-28_14h05.45.542,Surprise recog test,2023.1.3,59.96444113675866,
266,0,266,0,,,,,,,,,,,,,,,,,,,,,,,,,,,,,,,,,,,,932.8794182999991,,931.7276520999148,931.7276520999148,931.7276520999148,931.7276520999148,old_fruit_6.png,267,2.0,1.1526338998228312,,,067,11,2025-03-28_14h05.45.542,Surprise recog test,2023.1.3,59.96444113675866,
267,0,267,0,,,,,,,,,,,,,,,,,,,,,,,,,,,,,,,,,,,,934.9913846999407,936.0035017000046,933.9121765999589,933.9121765999589,933.9121765999589,933.9121765999589,old_sceneOut_17.png,268,2.0,1.0779726000037044,,,067,11,2025-03-28_14h05.45.542,Surprise recog test,2023.1.3,59.96444113675866,
268,0,268,0,,,,,,,,,,,,,,,,,,,,,,,,,,,,,,,,,,,,937.6690305999946,938.6959767998196,936.0035017000046,936.0035017000046,936.0035017000046,936.0035017000046,old_stationery_30.png,269,4.0,1.6614910000935197,,,067,11,2025-03-28_14h05.45.542,Surprise recog test,2023.1.3,59.96444113675866,
269,0,269,0,,,,,,,,,,,,,,,,,,,,,,,,,,,,,,,,,,,,940.0969308000058,941.1195574000012,938.6959767998196,938.6959767998196,938.6959767998196,938.6959767998196,new_sceneOut_44.png,270,2.0,1.4021021998487413,,,067,11,2025-03-28_14h05.45.542,Surprise recog test,2023.1.3,59.96444113675866,
270,0,270,0,,,,,,,,,,,,,,,,,,,,,,,,,,,,,,,,,,,,943.4446949998382,944.4576284999494,941.1195574000012,941.1195574000012,941.1195574000012,941.1195574000012,new_stationery_32.png,271,3.0,2.3257359999697655,,,067,11,2025-03-28_14h05.45.542,Surprise recog test,2023.1.3,59.96444113675866,
271,0,271,0,,,,,,,,,,,,,,,,,,,,,,,,,,,,,,,,,,,,945.7320629998576,946.7599712999072,944.4576284999494,944.4576284999494,944.4576284999494,944.4576284999494,new_fruit_44.png,272,2.0,1.2681806001346558,,,067,11,2025-03-28_14h05.45.542,Surprise recog test,2023.1.3,59.96444113675866,
272,0,272,0,,,,,,,,,,,,,,,,,,,,,,,,,,,,,,,,,,,,948.4692382998765,949.492040499812,946.7599712999072,946.7599712999072,946.7599712999072,946.7599712999072,new_stationery_21.png,273,4.0,1.7118460000492632,,,067,11,2025-03-28_14h05.45.542,Surprise recog test,2023.1.3,59.96444113675866,
273,0,273,0,,,,,,,,,,,,,,,,,,,,,,,,,,,,,,,,,,,,950.9735435999464,951.9839961000253,949.492040499812,949.492040499812,949.492040499812,949.492040499812,new_stationery_13.png,274,3.0,1.483014800120145,,,067,11,2025-03-28_14h05.45.542,Surprise recog test,2023.1.3,59.96444113675866,
274,0,274,0,,,,,,,,,,,,,,,,,,,,,,,,,,,,,,,,,,,,953.7876349999569,954.8032442999538,951.9839961000253,951.9839961000253,951.9839961000253,951.9839961000253,new_stationery_8.png,275,3.0,1.7985194001812488,,,067,11,2025-03-28_14h05.45.542,Surprise recog test,2023.1.3,59.96444113675866,
275,0,275,0,,,,,,,,,,,,,,,,,,,,,,,,,,,,,,,,,,,,956.3346740000416,,954.8032442999538,954.8032442999538,954.8032442999538,954.8032442999538,old_sceneIn_29.png,276,4.0,1.5300397998653352,,,067,11,2025-03-28_14h05.45.542,Surprise recog test,2023.1.3,59.96444113675866,
276,0,276,0,,,,,,,,,,,,,,,,,,,,,,,,,,,,,,,,,,,,959.4028282999061,,957.3729532000143,957.3729532000143,957.3729532000143,957.3729532000143,old_fruit_46.png,277,4.0,2.0330264000222087,,,067,11,2025-03-28_14h05.45.542,Surprise recog test,2023.1.3,59.96444113675866,
277,0,277,0,,,,,,,,,,,,,,,,,,,,,,,,,,,,,,,,,,,,962.3083132999018,963.340719099855,960.423053599894,960.423053599894,960.423053599894,960.423053599894,old_fruit_49.png,278,3.0,1.8788811000995338,,,067,11,2025-03-28_14h05.45.542,Surprise recog test,2023.1.3,59.96444113675866,
278,0,278,0,,,,,,,,,,,,,,,,,,,,,,,,,,,,,,,,,,,,964.5644959998317,965.5899242998566,963.340719099855,963.340719099855,963.340719099855,963.340719099855,old_sceneOut_12.png,279,2.0,1.2269037999212742,,,067,11,2025-03-28_14h05.45.542,Surprise recog test,2023.1.3,59.96444113675866,
279,0,279,0,,,,,,,,,,,,,,,,,,,,,,,,,,,,,,,,,,,,966.7322903999593,967.7468544999138,965.5899242998566,965.5899242998566,965.5899242998566,965.5899242998566,old_fruit_44.png,280,2.0,1.1452909000217915,,,067,11,2025-03-28_14h05.45.542,Surprise recog test,2023.1.3,59.96444113675866,
280,0,280,0,,,,,,,,,,,,,,,,,,,,,,,,,,,,,,,,,,,,969.2066923999228,970.2294274999294,967.7468544999138,967.7468544999138,967.7468544999138,967.7468544999138,old_stationery_39.png,281,3.0,1.455026000039652,,,067,11,2025-03-28_14h05.45.542,Surprise recog test,2023.1.3,59.96444113675866,
281,0,281,0,,,,,,,,,,,,,,,,,,,,,,,,,,,,,,,,,,,,972.4436875998508,973.4535311998334,970.2294274999294,970.2294274999294,970.2294274999294,970.2294274999294,old_sceneOut_32.png,282,2.0,2.212927700020373,,,067,11,2025-03-28_14h05.45.542,Surprise recog test,2023.1.3,59.96444113675866,
282,0,282,0,,,,,,,,,,,,,,,,,,,,,,,,,,,,,,,,,,,,974.8863329000305,975.9043632999528,973.4535311998334,973.4535311998334,973.4535311998334,973.4535311998334,old_fruit_9.png,283,2.0,1.429925500182435,,,067,11,2025-03-28_14h05.45.542,Surprise recog test,2023.1.3,59.96444113675866,
283,0,283,0,,,,,,,,,,,,,,,,,,,,,,,,,,,,,,,,,,,,977.4047673998866,978.4352227000054,975.9043632999528,975.9043632999528,975.9043632999528,975.9043632999528,new_sceneIn_19.png,284,3.0,1.492848000023514,,,067,11,2025-03-28_14h05.45.542,Surprise recog test,2023.1.3,59.96444113675866,
284,0,284,0,,,,,,,,,,,,,,,,,,,,,,,,,,,,,,,,,,,,981.1408614998218,982.1603125999682,978.4352227000054,978.4352227000054,978.4352227000054,978.4352227000054,old_fruit_10.png,285,3.0,2.7051589998882264,,,067,11,2025-03-28_14h05.45.542,Surprise recog test,2023.1.3,59.96444113675866,
285,0,285,0,,,,,,,,,,,,,,,,,,,,,,,,,,,,,,,,,,,,983.4721209998243,,982.1603125999682,982.1603125999682,982.1603125999682,982.1603125999682,old_fruit_36.png,286,2.0,1.309517600107938,,,067,11,2025-03-28_14h05.45.542,Surprise recog test,2023.1.3,59.96444113675866,
286,0,286,0,,,,,,,,,,,,,,,,,,,,,,,,,,,,,,,,,,,,986.3686359999701,987.3843443999067,984.5042051998898,984.5042051998898,984.5042051998898,984.5042051998898,old_fruit_7.png,287,2.0,1.8638609000481665,,,067,11,2025-03-28_14h05.45.542,Surprise recog test,2023.1.3,59.96444113675866,
287,0,287,0,,,,,,,,,,,,,,,,,,,,,,,,,,,,,,,,,,,,989.8079867998604,990.8246993999928,987.3843443999067,987.3843443999067,987.3843443999067,987.3843443999067,new_fruit_28.png,288,2.0,2.418570099864155,,,067,11,2025-03-28_14h05.45.542,Surprise recog test,2023.1.3,59.96444113675866,
288,0,288,0,,,,,,,,,,,,,,,,,,,,,,,,,,,,,,,,,,,,993.4775945998263,994.4855888998136,990.8246993999928,990.8246993999928,990.8246993999928,990.8246993999928,old_sceneIn_43.png,289,4.0,2.6547699000220746,,,067,11,2025-03-28_14h05.45.542,Surprise recog test,2023.1.3,59.96444113675866,
289,0,289,0,,,,,,,,,,,,,,,,,,,,,,,,,,,,,,,,,,,,996.3330879998393,,994.4855888998136,994.4855888998136,994.4855888998136,994.4855888998136,old_sceneIn_13.png,290,4.0,1.8437528000213206,,,067,11,2025-03-28_14h05.45.542,Surprise recog test,2023.1.3,59.96444113675866,
290,0,290,0,,,,,,,,,,,,,,,,,,,,,,,,,,,,,,,,,,,,998.6512105998117,,997.3567331999075,997.3567331999075,997.3567331999075,997.3567331999075,old_fruit_32.png,291,3.0,1.2917503998614848,,,067,11,2025-03-28_14h05.45.542,Surprise recog test,2023.1.3,59.96444113675866,
291,0,291,0,,,,,,,,,,,,,,,,,,,,,,,,,,,,,,,,,,,,1001.3747982999776,1002.3911061999388,999.6829911000095,999.6829911000095,999.6829911000095,999.6829911000095,new_fruit_39.png,292,1.0,1.6920467999298126,,,067,11,2025-03-28_14h05.45.542,Surprise recog test,2023.1.3,59.96444113675866,
292,0,292,0,,,,,,,,,,,,,,,,,,,,,,,,,,,,,,,,,,,,1003.62574079982,1004.6574581998866,1002.3911061999388,1002.3911061999388,1002.3911061999388,1002.3911061999388,old_stationery_13.png,293,2.0,1.2327333998400718,,,067,11,2025-03-28_14h05.45.542,Surprise recog test,2023.1.3,59.96444113675866,
293,0,293,0,,,,,,,,,,,,,,,,,,,,,,,,,,,,,,,,,,,,1005.68795949989,1006.7099770999048,1004.6574581998866,1004.6574581998866,1004.6574581998866,1004.6574581998866,old_fruit_26.png,294,2.0,1.0282360001001507,,,067,11,2025-03-28_14h05.45.542,Surprise recog test,2023.1.3,59.96444113675866,
294,0,294,0,,,,,,,,,,,,,,,,,,,,,,,,,,,,,,,,,,,,1007.7273299999069,,1006.7099770999048,1006.7099770999048,1006.7099770999048,1006.7099770999048,old_sceneOut_27.png,295,2.0,1.015680099837482,,,067,11,2025-03-28_14h05.45.542,Surprise recog test,2023.1.3,59.96444113675866,
295,0,295,0,,,,,,,,,,,,,,,,,,,,,,,,,,,,,,,,,,,,1011.183198499959,1012.2136538999621,1008.7595428000204,1008.7595428000204,1008.7595428000204,1008.7595428000204,old_sceneIn_30.png,296,3.0,2.4259657999500632,,,067,11,2025-03-28_14h05.45.542,Surprise recog test,2023.1.3,59.96444113675866,
296,0,296,0,,,,,,,,,,,,,,,,,,,,,,,,,,,,,,,,,,,,1014.0448425998911,1015.062321400037,1012.2136538999621,1012.2136538999621,1012.2136538999621,1012.2136538999621,old_stationery_1.png,297,3.0,1.8328982999082655,,,067,11,2025-03-28_14h05.45.542,Surprise recog test,2023.1.3,59.96444113675866,
297,0,297,0,,,,,,,,,,,,,,,,,,,,,,,,,,,,,,,,,,,,1016.4396672998555,1017.4657146998215,1015.062321400037,1015.062321400037,1015.062321400037,1015.062321400037,new_fruit_2.png,298,2.0,1.3804231998510659,,,067,11,2025-03-28_14h05.45.542,Surprise recog test,2023.1.3,59.96444113675866,
298,0,298,0,,,,,,,,,,,,,,,,,,,,,,,,,,,,,,,,,,,,1018.7989103000145,1019.8162867999636,1017.4657146998215,1017.4657146998215,1017.4657146998215,1017.4657146998215,new_fruit_15.png,299,2.0,1.330873099854216,,,067,11,2025-03-28_14h05.45.542,Surprise recog test,2023.1.3,59.96444113675866,
299,0,299,0,,,,,,,,,,,,,,,,,,,,,,,,,,,,,,,,,,,,1022.2345791000407,1023.2557598999701,1019.8162867999636,1019.8162867999636,1019.8162867999636,1019.8162867999636,new_fruit_17.png,300,4.0,2.4199351998977363,,,067,11,2025-03-28_14h05.45.542,Surprise recog test,2023.1.3,59.96444113675866,
300,0,300,0,,,,,,,,,,,,,,,,,,,,,,,,,,,,,,,,,,,,1025.4544402000029,1026.468313699821,1023.2557598999701,1023.2557598999701,1023.2557598999701,1023.2557598999701,old_stationery_17.png,301,5.0,2.2005786998197436,,,067,11,2025-03-28_14h05.45.542,Surprise recog test,2023.1.3,59.96444113675866,
301,0,301,0,,,,,,,,,,,,,,,,,,,,,,,,,,,,,,,,,,,,1027.7895833000075,1028.795756699983,1026.468313699821,1026.468313699821,1026.468313699821,1026.468313699821,old_sceneOut_34.png,302,1.0,1.3219538000412285,,,067,11,2025-03-28_14h05.45.542,Surprise recog test,2023.1.3,59.96444113675866,
302,0,302,0,,,,,,,,,,,,,,,,,,,,,,,,,,,,,,,,,,,,1030.583487499971,1031.6142827000003,1028.795756699983,1028.795756699983,1028.795756699983,1028.795756699983,old_sceneIn_47.png,303,3.0,1.7825223000254482,,,067,11,2025-03-28_14h05.45.542,Surprise recog test,2023.1.3,59.96444113675866,
303,0,303,0,,,,,,,,,,,,,,,,,,,,,,,,,,,,,,,,,,,,1033.7789998999797,1034.7862313999794,1031.6142827000003,1031.6142827000003,1031.6142827000003,1031.6142827000003,new_sceneIn_8.png,304,2.0,2.167840600013733,,,067,11,2025-03-28_14h05.45.542,Surprise recog test,2023.1.3,59.96444113675866,
304,0,304,0,,,,,,,,,,,,,,,,,,,,,,,,,,,,,,,,,,,,1036.643287499901,1037.6670098998584,1034.7862313999794,1034.7862313999794,1034.7862313999794,1034.7862313999794,new_fruit_47.png,305,2.0,1.8535368000157177,,,067,11,2025-03-28_14h05.45.542,Surprise recog test,2023.1.3,59.96444113675866,
305,0,305,0,,,,,,,,,,,,,,,,,,,,,,,,,,,,,,,,,,,,1042.6584403000306,,1037.6670098998584,1037.6670098998584,1037.6670098998584,1037.6670098998584,old_sceneIn_26.png,306,None,None,1042.645003899932,,067,11,2025-03-28_14h05.45.542,Surprise recog test,2023.1.3,59.96444113675866,
306,0,306,0,,,,,,,,,,,,,,,,,,,,,,,,,,,,,,,,,,,,1046.7271866998635,1047.7629187998828,1043.692703800043,1043.692703800043,1043.692703800043,1043.692703800043,old_sceneIn_3.png,307,4.0,3.0399217000231147,,,067,11,2025-03-28_14h05.45.542,Surprise recog test,2023.1.3,59.96444113675866,
307,0,307,0,,,,,,,,,,,,,,,,,,,,,,,,,,,,,,,,,,,,1049.731486100005,1050.7589622999076,1047.7629187998828,1047.7629187998828,1047.7629187998828,1047.7629187998828,old_sceneOut_5.png,308,2.0,1.9692677999846637,,,067,11,2025-03-28_14h05.45.542,Surprise recog test,2023.1.3,59.96444113675866,
308,0,308,0,,,,,,,,,,,,,,,,,,,,,,,,,,,,,,,,,,,,1053.1274072998203,1054.1414510998875,1050.7589622999076,1050.7589622999076,1050.7589622999076,1050.7589622999076,new_sceneIn_47.png,309,3.0,2.366080100182444,,,067,11,2025-03-28_14h05.45.542,Surprise recog test,2023.1.3,59.96444113675866,
309,0,309,0,,,,,,,,,,,,,,,,,,,,,,,,,,,,,,,,,,,,1056.0195963999722,1057.0508200998884,1054.1414510998875,1054.1414510998875,1054.1414510998875,1054.1414510998875,new_stationery_43.png,310,2.0,1.8788705000188202,,,067,11,2025-03-28_14h05.45.542,Surprise recog test,2023.1.3,59.96444113675866,
310,0,310,0,,,,,,,,,,,,,,,,,,,,,,,,,,,,,,,,,,,,1058.9886808998417,1060.019547399832,1057.0508200998884,1057.0508200998884,1057.0508200998884,1057.0508200998884,new_sceneIn_31.png,311,3.0,1.9393659001216292,,,067,11,2025-03-28_14h05.45.542,Surprise recog test,2023.1.3,59.96444113675866,
311,0,311,0,,,,,,,,,,,,,,,,,,,,,,,,,,,,,,,,,,,,1062.387011299841,1063.4017819999717,1060.019547399832,1060.019547399832,1060.019547399832,1060.019547399832,new_sceneOut_13.png,312,3.0,2.36923799989745,,,067,11,2025-03-28_14h05.45.542,Surprise recog test,2023.1.3,59.96444113675866,
312,0,312,0,,,,,,,,,,,,,,,,,,,,,,,,,,,,,,,,,,,,1064.7425779998302,1065.757587299915,1063.4017819999717,1063.4017819999717,1063.4017819999717,1063.4017819999717,old_fruit_48.png,313,2.0,1.3426012999843806,,,067,11,2025-03-28_14h05.45.542,Surprise recog test,2023.1.3,59.96444113675866,
313,0,313,0,,,,,,,,,,,,,,,,,,,,,,,,,,,,,,,,,,,,1067.6664591999725,1068.6927753998898,1065.757587299915,1065.757587299915,1065.757587299915,1065.757587299915,new_fruit_10.png,314,4.0,1.9048550999723375,,,067,11,2025-03-28_14h05.45.542,Surprise recog test,2023.1.3,59.96444113675866,
314,0,314,0,,,,,,,,,,,,,,,,,,,,,,,,,,,,,,,,,,,,1069.9737438999582,1070.9827527999878,1068.6927753998898,1068.6927753998898,1068.6927753998898,1068.6927753998898,new_fruit_6.png,315,2.0,1.282837200211361,,,067,11,2025-03-28_14h05.45.542,Surprise recog test,2023.1.3,59.96444113675866,
315,0,315,0,,,,,,,,,,,,,,,,,,,,,,,,,,,,,,,,,,,,1072.9126156999264,,1070.9827527999878,1070.9827527999878,1070.9827527999878,1070.9827527999878,old_stationery_23.png,316,3.0,1.922085199970752,,,067,11,2025-03-28_14h05.45.542,Surprise recog test,2023.1.3,59.96444113675866,
316,0,316,0,,,,,,,,,,,,,,,,,,,,,,,,,,,,,,,,,,,,1075.3960507998709,1076.4156370998826,1073.948956700042,1073.948956700042,1073.948956700042,1073.948956700042,new_sceneIn_20.png,317,4.0,1.4499095999635756,,,067,11,2025-03-28_14h05.45.542,Surprise recog test,2023.1.3,59.96444113675866,
317,0,317,0,,,,,,,,,,,,,,,,,,,,,,,,,,,,,,,,,,,,1079.11242270004,1080.1238708999008,1076.4156370998826,1076.4156370998826,1076.4156370998826,1076.4156370998826,new_sceneIn_23.png,318,3.0,2.699195699999109,,,067,11,2025-03-28_14h05.45.542,Surprise recog test,2023.1.3,59.96444113675866,
318,0,318,0,,,,,,,,,,,,,,,,,,,,,,,,,,,,,,,,,,,,1082.0748620999511,1083.1012667999603,1080.1238708999008,1080.1238708999008,1080.1238708999008,1080.1238708999008,new_fruit_45.png,319,3.0,1.947306799935177,,,067,11,2025-03-28_14h05.45.542,Surprise recog test,2023.1.3,59.96444113675866,
319,0,319,0,,,,,,,,,,,,,,,,,,,,,,,,,,,,,,,,,,,,1085.1232282000128,,1083.1012667999603,1083.1012667999603,1083.1012667999603,1083.1012667999603,new_stationery_16.png,320,5.0,2.023962300037965,,,067,11,2025-03-28_14h05.45.542,Surprise recog test,2023.1.3,59.96444113675866,
320,0,320,0,,,,,,,,,,,,,,,,,,,,,,,,,,,,,,,,,,,,1087.5138363000005,1088.542102499865,1086.1573703999165,1086.1573703999165,1086.1573703999165,1086.1573703999165,new_sceneOut_49.png,321,1.0,1.3577342999633402,,,067,11,2025-03-28_14h05.45.542,Surprise recog test,2023.1.3,59.96444113675866,
321,0,321,0,,,,,,,,,,,,,,,,,,,,,,,,,,,,,,,,,,,,1089.4978910000063,1090.537626599893,1088.542102499865,1088.542102499865,1088.542102499865,1088.542102499865,old_sceneOut_46.png,322,1.0,0.9560462997760624,,,067,11,2025-03-28_14h05.45.542,Surprise recog test,2023.1.3,59.96444113675866,
322,0,322,0,,,,,,,,,,,,,,,,,,,,,,,,,,,,,,,,,,,,1092.2678767999168,1093.295772299869,1090.537626599893,1090.537626599893,1090.537626599893,1090.537626599893,old_stationery_27.png,323,2.0,1.7362703999970108,,,067,11,2025-03-28_14h05.45.542,Surprise recog test,2023.1.3,59.96444113675866,
323,0,323,0,,,,,,,,,,,,,,,,,,,,,,,,,,,,,,,,,,,,1094.8212067999411,1095.837395899929,1093.295772299869,1093.295772299869,1093.295772299869,1093.295772299869,new_sceneOut_45.png,324,1.0,1.5271900000516325,,,067,11,2025-03-28_14h05.45.542,Surprise recog test,2023.1.3,59.96444113675866,
324,0,324,0,,,,,,,,,,,,,,,,,,,,,,,,,,,,,,,,,,,,1096.8494801998604,,1095.837395899929,1095.837395899929,1095.837395899929,1095.837395899929,old_fruit_23.png,325,1.0,1.008730199886486,,,067,11,2025-03-28_14h05.45.542,Surprise recog test,2023.1.3,59.96444113675866,
325,0,325,0,,,,,,,,,,,,,,,,,,,,,,,,,,,,,,,,,,,,1098.6349263000302,,1097.8777625998482,1097.8777625998482,1097.8777625998482,1097.8777625998482,new_sceneOut_10.png,326,1.0,0.7577238001395017,,,067,11,2025-03-28_14h05.45.542,Surprise recog test,2023.1.3,59.96444113675866,
326,0,326,0,,,,,,,,,,,,,,,,,,,,,,,,,,,,,,,,,,,,1101.7431925998535,1102.771297399886,1099.6646650999319,1099.6646650999319,1099.6646650999319,1099.6646650999319,old_sceneIn_49.png,327,4.0,2.078391500050202,,,067,11,2025-03-28_14h05.45.542,Surprise recog test,2023.1.3,59.96444113675866,
327,0,327,0,,,,,,,,,,,,,,,,,,,,,,,,,,,,,,,,,,,,1104.8203499999363,1105.8271884999704,1102.771297399886,1102.771297399886,1102.771297399886,1102.771297399886,old_stationery_2.png,328,4.0,2.0485207999590784,,,067,11,2025-03-28_14h05.45.542,Surprise recog test,2023.1.3,59.96444113675866,
328,0,328,0,,,,,,,,,,,,,,,,,,,,,,,,,,,,,,,,,,,,1106.614537499845,1107.6363109999802,1105.8271884999704,1105.8271884999704,1105.8271884999704,1105.8271884999704,old_stationery_7.png,329,4.0,0.785058899782598,,,067,11,2025-03-28_14h05.45.542,Surprise recog test,2023.1.3,59.96444113675866,
329,0,329,0,,,,,,,,,,,,,,,,,,,,,,,,,,,,,,,,,,,,1109.374479399994,1110.3879564998206,1107.6363109999802,1107.6363109999802,1107.6363109999802,1107.6363109999802,old_sceneOut_23.png,330,3.0,1.7389581999741495,,,067,11,2025-03-28_14h05.45.542,Surprise recog test,2023.1.3,59.96444113675866,
330,0,330,0,,,,,,,,,,,,,,,,,,,,,,,,,,,,,,,,,,,,1111.7144306998234,1112.7444409998134,1110.3879564998206,1110.3879564998206,1110.3879564998206,1110.3879564998206,old_fruit_17.png,331,2.0,1.3266525999642909,,,067,11,2025-03-28_14h05.45.542,Surprise recog test,2023.1.3,59.96444113675866,
331,0,331,0,,,,,,,,,,,,,,,,,,,,,,,,,,,,,,,,,,,,1113.817498799879,1114.8358686999418,1112.7444409998134,1112.7444409998134,1112.7444409998134,1112.7444409998134,new_sceneOut_5.png,332,2.0,1.0741705000400543,,,067,11,2025-03-28_14h05.45.542,Surprise recog test,2023.1.3,59.96444113675866,
332,0,332,0,,,,,,,,,,,,,,,,,,,,,,,,,,,,,,,,,,,,1116.4290801000316,1117.4428336999845,1114.8358686999418,1114.8358686999418,1114.8358686999418,1114.8358686999418,new_fruit_4.png,333,3.0,1.5892013001721352,,,067,11,2025-03-28_14h05.45.542,Surprise recog test,2023.1.3,59.96444113675866,
333,0,333,0,,,,,,,,,,,,,,,,,,,,,,,,,,,,,,,,,,,,1119.0760381999426,1120.0894825998694,1117.4428336999845,1117.4428336999845,1117.4428336999845,1117.4428336999845,new_sceneOut_33.png,334,1.0,1.6329737999476492,,,067,11,2025-03-28_14h05.45.542,Surprise recog test,2023.1.3,59.96444113675866,
334,0,334,0,,,,,,,,,,,,,,,,,,,,,,,,,,,,,,,,,,,,1124.3757639999967,1125.4149382999167,1120.0894825998694,1120.0894825998694,1120.0894825998694,1120.0894825998694,new_sceneOut_17.png,335,2.0,4.279990199953318,,,067,11,2025-03-28_14h05.45.542,Surprise recog test,2023.1.3,59.96444113675866,
335,0,335,0,,,,,,,,,,,,,,,,,,,,,,,,,,,,,,,,,,,,1129.2044307999313,1130.226778900018,1125.4149382999167,1125.4149382999167,1125.4149382999167,1125.4149382999167,new_stationery_37.png,336,3.0,3.794609200209379,,,067,11,2025-03-28_14h05.45.542,Surprise recog test,2023.1.3,59.96444113675866,
336,0,336,0,,,,,,,,,,,,,,,,,,,,,,,,,,,,,,,,,,,,1131.676008899929,1132.6801542998292,1130.226778900018,1130.226778900018,1130.226778900018,1130.226778900018,old_fruit_47.png,337,3.0,1.4477029999252409,,,067,11,2025-03-28_14h05.45.542,Surprise recog test,2023.1.3,59.96444113675866,
337,0,337,0,,,,,,,,,,,,,,,,,,,,,,,,,,,,,,,,,,,,1134.2782300999388,1135.2856897998136,1132.6801542998292,1132.6801542998292,1132.6801542998292,1132.6801542998292,old_fruit_40.png,338,2.0,1.592131500132382,,,067,11,2025-03-28_14h05.45.542,Surprise recog test,2023.1.3,59.96444113675866,
338,0,338,0,,,,,,,,,,,,,,,,,,,,,,,,,,,,,,,,,,,,1138.4644799998496,1139.473750300007,1135.2856897998136,1135.2856897998136,1135.2856897998136,1135.2856897998136,new_stationery_31.png,339,3.0,3.17201459989883,,,067,11,2025-03-28_14h05.45.542,Surprise recog test,2023.1.3,59.96444113675866,
339,0,339,0,,,,,,,,,,,,,,,,,,,,,,,,,,,,,,,,,,,,1143.765451699961,1144.7950206999667,1139.473750300007,1139.473750300007,1139.473750300007,1139.473750300007,new_fruit_40.png,340,3.0,4.287940199952573,,,067,11,2025-03-28_14h05.45.542,Surprise recog test,2023.1.3,59.96444113675866,
340,0,340,0,,,,,,,,,,,,,,,,,,,,,,,,,,,,,,,,,,,,1146.558812599862,,1144.7950206999667,1144.7950206999667,1144.7950206999667,1144.7950206999667,old_sceneIn_4.png,341,4.0,1.7670954000204802,,,067,11,2025-03-28_14h05.45.542,Surprise recog test,2023.1.3,59.96444113675866,
341,0,341,0,,,,,,,,,,,,,,,,,,,,,,,,,,,,,,,,,,,,1149.2389082999434,1150.2519379998557,1147.5760907998774,1147.5760907998774,1147.5760907998774,1147.5760907998774,old_sceneOut_11.png,342,3.0,1.6587890998926014,,,067,11,2025-03-28_14h05.45.542,Surprise recog test,2023.1.3,59.96444113675866,
342,0,342,0,,,,,,,,,,,,,,,,,,,,,,,,,,,,,,,,,,,,1151.8093552999198,1152.8214808998164,1150.2519379998557,1150.2519379998557,1150.2519379998557,1150.2519379998557,old_stationery_31.png,343,4.0,1.5521283000707626,,,067,11,2025-03-28_14h05.45.542,Surprise recog test,2023.1.3,59.96444113675866,
343,0,343,0,,,,,,,,,,,,,,,,,,,,,,,,,,,,,,,,,,,,1156.3403872998897,1157.367372999899,1152.8214808998164,1152.8214808998164,1152.8214808998164,1152.8214808998164,new_fruit_50.png,344,3.0,3.5171077998820692,,,067,11,2025-03-28_14h05.45.542,Surprise recog test,2023.1.3,59.96444113675866,
344,0,344,0,,,,,,,,,,,,,,,,,,,,,,,,,,,,,,,,,,,,1159.2675342999864,,1157.367372999899,1157.367372999899,1157.367372999899,1157.367372999899,old_sceneOut_31.png,345,3.0,1.9028050999622792,,,067,11,2025-03-28_14h05.45.542,Surprise recog test,2023.1.3,59.96444113675866,
345,0,345,0,,,,,,,,,,,,,,,,,,,,,,,,,,,,,,,,,,,,1162.1930056998972,1163.2251814999618,1160.2900543999858,1160.2900543999858,1160.2900543999858,1160.2900543999858,new_sceneOut_29.png,346,2.0,1.8999554999172688,,,067,11,2025-03-28_14h05.45.542,Surprise recog test,2023.1.3,59.96444113675866,
346,0,346,0,,,,,,,,,,,,,,,,,,,,,,,,,,,,,,,,,,,,1164.9036923998501,1165.9097734999377,1163.2251814999618,1163.2251814999618,1163.2251814999618,1163.2251814999618,new_stationery_44.png,347,3.0,1.682867799885571,,,067,11,2025-03-28_14h05.45.542,Surprise recog test,2023.1.3,59.96444113675866,
347,0,347,0,,,,,,,,,,,,,,,,,,,,,,,,,,,,,,,,,,,,1167.5094222000334,,1165.9097734999377,1165.9097734999377,1165.9097734999377,1165.9097734999377,old_sceneOut_8.png,348,2.0,1.5955437999218702,,,067,11,2025-03-28_14h05.45.542,Surprise recog test,2023.1.3,59.96444113675866,
348,0,348,0,,,,,,,,,,,,,,,,,,,,,,,,,,,,,,,,,,,,1170.3798427998554,1171.4002386999782,1168.530429800041,1168.530429800041,1168.530429800041,1168.530429800041,new_fruit_9.png,349,1.0,1.8449899000115693,,,067,11,2025-03-28_14h05.45.542,Surprise recog test,2023.1.3,59.96444113675866,
349,0,349,0,,,,,,,,,,,,,,,,,,,,,,,,,,,,,,,,,,,,1174.4688571000006,1175.4890864999034,1171.4002386999782,1171.4002386999782,1171.4002386999782,1171.4002386999782,new_sceneIn_28.png,350,5.0,3.0646739001385868,,,067,11,2025-03-28_14h05.45.542,Surprise recog test,2023.1.3,59.96444113675866,
350,0,350,0,,,,,,,,,,,,,,,,,,,,,,,,,,,,,,,,,,,,1177.692746900022,1178.7204387998208,1175.4890864999034,1175.4890864999034,1175.4890864999034,1175.4890864999034,new_stationery_36.png,351,1.0,2.2039377000182867,,,067,11,2025-03-28_14h05.45.542,Surprise recog test,2023.1.3,59.96444113675866,
