trial_loop.thisRepN,trial_loop.thisTrialN,trial_loop.thisN,trial_loop.thisIndex,VAS_slider.started,VAS_text.started,VAS_notstressed_text.started,VAS_stressed_text.started,continue_input.started,continue_text.started,label0.started,label10.started,label20.started,label30.started,label40.started,label50.started,label60.started,label70.started,label80.started,label90.started,label100.started,VAS_slider.response,VAS_slider.rt,VAS_slider.history,Answer_VAS,continue_input.keys,instruction_text.started,continue_text_2.started,continue_input_2.started,continue_input_2.keys,continue_input_2.rt,continue_input_2.duration,example_text.started,example_slider_2.started,example_image.started,example_slider_2.response,example_slider_2.rt,fixcross.started,fixcross.stopped,front_square.started,stim_images.started,trial_inst_images.started,slider_images.started,slider_images.stopped,thisImg,trial_count,slider_images.response,slider_images.rt,outro.started,participant,condition,date,expName,psychopyVersion,frameRate,
,,,,197.0707791999448,197.0707791999448,197.0707791999448,197.0707791999448,197.0707791999448,197.0707791999448,197.0707791999448,197.0707791999448,197.0707791999448,197.0707791999448,197.0707791999448,197.0707791999448,197.0707791999448,197.0707791999448,197.0707791999448,197.0707791999448,197.0707791999448,1.0055555555555555,7.391287700040266,"[(1.0055555555555555, 7.391287700040266)]",1.0055555555555555,None,,,,,,,,,,,,,,,,,,,,,,,,068,00,2025-04-17_17h02.41.623,Surprise recog test,2023.1.3,59.960845590784665,
,,,,,,,,,,,,,,,,,,,,,,,,,,204.4881762000732,204.4881762000732,204.4881762000732,space,26.050372099969536,None,,,,,,,,,,,,,,,,,,068,00,2025-04-17_17h02.41.623,Surprise recog test,2023.1.3,59.960845590784665,
0,0,0,0,,,,,,,,,,,,,,,,,,,,,,,,,,,,,230.66135660000145,230.66135660000145,230.66135660000145,5.0,9.132019999902695,245.74162260000594,240.76108790002763,240.76108790002763,240.76108790002763,240.76108790002763,240.76108790002763,245.7265735999681,new_fruit_43.png,1,None,None,,068,00,2025-04-17_17h02.41.623,Surprise recog test,2023.1.3,59.960845590784665,
1,0,1,0,,,,,,,,,,,,,,,,,,,,,,,,,,,,,,,,,,251.74677590001374,,246.7492037001066,246.7492037001066,246.7492037001066,246.7492037001066,251.73172920010984,old_stationery_9.png,2,None,None,,068,00,2025-04-17_17h02.41.623,Surprise recog test,2023.1.3,59.960845590784665,
2,0,2,0,,,,,,,,,,,,,,,,,,,,,,,,,,,,,,,,,,255.33421900006942,256.34169659996405,252.76962610008195,252.76962610008195,252.76962610008195,252.76962610008195,,old_sceneIn_16.png,3,4.0,2.568136400077492,,068,00,2025-04-17_17h02.41.623,Surprise recog test,2023.1.3,59.960845590784665,
3,0,3,0,,,,,,,,,,,,,,,,,,,,,,,,,,,,,,,,,,259.40009919996373,260.4213233999908,256.34169659996405,256.34169659996405,256.34169659996405,256.34169659996405,,new_stationery_18.png,4,2.0,3.054459899896756,,068,00,2025-04-17_17h02.41.623,Surprise recog test,2023.1.3,59.960845590784665,
4,0,4,0,,,,,,,,,,,,,,,,,,,,,,,,,,,,,,,,,,263.34681829996407,264.37118680006824,260.4213233999908,260.4213233999908,260.4213233999908,260.4213233999908,,new_sceneOut_38.png,5,4.0,2.928366499952972,,068,00,2025-04-17_17h02.41.623,Surprise recog test,2023.1.3,59.960845590784665,
5,0,5,0,,,,,,,,,,,,,,,,,,,,,,,,,,,,,,,,,,266.6246529999189,267.6433294999879,264.37118680006824,264.37118680006824,264.37118680006824,264.37118680006824,,new_stationery_13.png,6,4.0,2.254744000034407,,068,00,2025-04-17_17h02.41.623,Surprise recog test,2023.1.3,59.960845590784665,
6,0,6,0,,,,,,,,,,,,,,,,,,,,,,,,,,,,,,,,,,269.69118129997514,270.7145970999263,267.6433294999879,267.6433294999879,267.6433294999879,267.6433294999879,,old_stationery_49.png,7,2.0,2.050673699937761,,068,00,2025-04-17_17h02.41.623,Surprise recog test,2023.1.3,59.960845590784665,
7,0,7,0,,,,,,,,,,,,,,,,,,,,,,,,,,,,,,,,,,273.3479711001273,274.3643912000116,270.7145970999263,270.7145970999263,270.7145970999263,270.7145970999263,,new_sceneIn_44.png,8,4.0,2.634679999900982,,068,00,2025-04-17_17h02.41.623,Surprise recog test,2023.1.3,59.960845590784665,
8,0,8,0,,,,,,,,,,,,,,,,,,,,,,,,,,,,,,,,,,277.42953449999914,278.44743159995414,274.3643912000116,274.3643912000116,274.3643912000116,274.3643912000116,,old_stationery_23.png,9,4.0,3.0666106999851763,,068,00,2025-04-17_17h02.41.623,Surprise recog test,2023.1.3,59.960845590784665,
9,0,9,0,,,,,,,,,,,,,,,,,,,,,,,,,,,,,,,,,,280.391806300031,,278.44743159995414,278.44743159995414,278.44743159995414,278.44743159995414,,new_sceneIn_41.png,10,4.0,1.943629499990493,,068,00,2025-04-17_17h02.41.623,Surprise recog test,2023.1.3,59.960845590784665,
10,0,10,0,,,,,,,,,,,,,,,,,,,,,,,,,,,,,,,,,,284.1896840999834,285.19889570004307,281.4259389999788,281.4259389999788,281.4259389999788,281.4259389999788,,old_fruit_50.png,11,4.0,2.7664359000045806,,068,00,2025-04-17_17h02.41.623,Surprise recog test,2023.1.3,59.960845590784665,
11,0,11,0,,,,,,,,,,,,,,,,,,,,,,,,,,,,,,,,,,287.22088590008207,288.2459565999452,285.19889570004307,285.19889570004307,285.19889570004307,285.19889570004307,,new_sceneIn_31.png,12,3.0,2.017796100117266,,068,00,2025-04-17_17h02.41.623,Surprise recog test,2023.1.3,59.960845590784665,
12,0,12,0,,,,,,,,,,,,,,,,,,,,,,,,,,,,,,,,,,290.0742027000524,291.08571349992417,288.2459565999452,288.2459565999452,288.2459565999452,288.2459565999452,,new_stationery_37.png,13,4.0,1.8297538000624627,,068,00,2025-04-17_17h02.41.623,Surprise recog test,2023.1.3,59.960845590784665,
13,0,13,0,,,,,,,,,,,,,,,,,,,,,,,,,,,,,,,,,,293.114583699964,294.13102460000664,291.08571349992417,291.08571349992417,291.08571349992417,291.08571349992417,,old_stationery_11.png,14,1.0,2.020526400068775,,068,00,2025-04-17_17h02.41.623,Surprise recog test,2023.1.3,59.960845590784665,
14,0,14,0,,,,,,,,,,,,,,,,,,,,,,,,,,,,,,,,,,296.5072312001139,297.5254414000083,294.13102460000664,294.13102460000664,294.13102460000664,294.13102460000664,,old_stationery_43.png,15,3.0,2.3769302000291646,,068,00,2025-04-17_17h02.41.623,Surprise recog test,2023.1.3,59.960845590784665,
15,0,15,0,,,,,,,,,,,,,,,,,,,,,,,,,,,,,,,,,,299.1840572000947,300.2016215999611,297.5254414000083,297.5254414000083,297.5254414000083,297.5254414000083,,new_stationery_39.png,16,4.0,1.653999299975112,,068,00,2025-04-17_17h02.41.623,Surprise recog test,2023.1.3,59.960845590784665,
16,0,16,0,,,,,,,,,,,,,,,,,,,,,,,,,,,,,,,,,,301.89135870011523,,300.2016215999611,300.2016215999611,300.2016215999611,300.2016215999611,,old_sceneIn_6.png,17,3.0,1.6910475001204759,,068,00,2025-04-17_17h02.41.623,Surprise recog test,2023.1.3,59.960845590784665,
17,0,17,0,,,,,,,,,,,,,,,,,,,,,,,,,,,,,,,,,,304.8197701999452,305.830155499978,302.92525080009364,302.92525080009364,302.92525080009364,302.92525080009364,,old_sceneIn_41.png,18,3.0,1.8951471000909805,,068,00,2025-04-17_17h02.41.623,Surprise recog test,2023.1.3,59.960845590784665,
18,0,18,0,,,,,,,,,,,,,,,,,,,,,,,,,,,,,,,,,,307.6768954999279,308.685562599916,305.830155499978,305.830155499978,305.830155499978,305.830155499978,,old_sceneOut_50.png,19,4.0,1.8419054998084903,,068,00,2025-04-17_17h02.41.623,Surprise recog test,2023.1.3,59.960845590784665,
19,0,19,0,,,,,,,,,,,,,,,,,,,,,,,,,,,,,,,,,,310.72238350007683,311.74804909992963,308.685562599916,308.685562599916,308.685562599916,308.685562599916,,old_stationery_38.png,20,2.0,2.032336900010705,,068,00,2025-04-17_17h02.41.623,Surprise recog test,2023.1.3,59.960845590784665,
20,0,20,0,,,,,,,,,,,,,,,,,,,,,,,,,,,,,,,,,,314.1848617999349,,311.74804909992963,311.74804909992963,311.74804909992963,311.74804909992963,,new_sceneOut_39.png,21,4.0,2.4352386000100523,,068,00,2025-04-17_17h02.41.623,Surprise recog test,2023.1.3,59.960845590784665,
21,0,21,0,,,,,,,,,,,,,,,,,,,,,,,,,,,,,,,,,,317.1914415000938,318.2082493000198,315.20606889994815,315.20606889994815,315.20606889994815,315.20606889994815,,new_fruit_13.png,22,3.0,1.9811573999468237,,068,00,2025-04-17_17h02.41.623,Surprise recog test,2023.1.3,59.960845590784665,
22,0,22,0,,,,,,,,,,,,,,,,,,,,,,,,,,,,,,,,,,320.0534810000099,321.0583840999752,318.2082493000198,318.2082493000198,318.2082493000198,318.2082493000198,,new_stationery_35.png,23,2.0,1.834618299966678,,068,00,2025-04-17_17h02.41.623,Surprise recog test,2023.1.3,59.960845590784665,
23,0,23,0,,,,,,,,,,,,,,,,,,,,,,,,,,,,,,,,,,322.5719675999135,323.5868838999886,321.0583840999752,321.0583840999752,321.0583840999752,321.0583840999752,,old_sceneIn_19.png,24,2.0,1.509533999953419,,068,00,2025-04-17_17h02.41.623,Surprise recog test,2023.1.3,59.960845590784665,
24,0,24,0,,,,,,,,,,,,,,,,,,,,,,,,,,,,,,,,,,325.7587532000616,326.77887060004286,323.5868838999886,323.5868838999886,323.5868838999886,323.5868838999886,,new_stationery_25.png,25,4.0,2.1722174000460654,,068,00,2025-04-17_17h02.41.623,Surprise recog test,2023.1.3,59.960845590784665,
25,0,25,0,,,,,,,,,,,,,,,,,,,,,,,,,,,,,,,,,,328.4214214000385,329.4340572000947,326.77887060004286,326.77887060004286,326.77887060004286,326.77887060004286,,new_stationery_15.png,26,3.0,1.643053599866107,,068,00,2025-04-17_17h02.41.623,Surprise recog test,2023.1.3,59.960845590784665,
26,0,26,0,,,,,,,,,,,,,,,,,,,,,,,,,,,,,,,,,,331.6802666001022,332.704793300014,329.4340572000947,329.4340572000947,329.4340572000947,329.4340572000947,,old_fruit_22.png,27,4.0,2.2426437998656183,,068,00,2025-04-17_17h02.41.623,Surprise recog test,2023.1.3,59.960845590784665,
27,0,27,0,,,,,,,,,,,,,,,,,,,,,,,,,,,,,,,,,,334.6148274000734,335.62214930006303,332.704793300014,332.704793300014,332.704793300014,332.704793300014,,old_sceneOut_14.png,28,4.0,1.9130169001873583,,068,00,2025-04-17_17h02.41.623,Surprise recog test,2023.1.3,59.960845590784665,
28,0,28,0,,,,,,,,,,,,,,,,,,,,,,,,,,,,,,,,,,338.2377780000679,,335.62214930006303,335.62214930006303,335.62214930006303,335.62214930006303,,old_fruit_28.png,29,3.0,2.609122399939224,,068,00,2025-04-17_17h02.41.623,Surprise recog test,2023.1.3,59.960845590784665,
29,0,29,0,,,,,,,,,,,,,,,,,,,,,,,,,,,,,,,,,,341.0006808000617,342.02177150011994,339.2659934000112,339.2659934000112,339.2659934000112,339.2659934000112,,new_sceneIn_46.png,30,4.0,1.7284015000332147,,068,00,2025-04-17_17h02.41.623,Surprise recog test,2023.1.3,59.960845590784665,
30,0,30,0,,,,,,,,,,,,,,,,,,,,,,,,,,,,,,,,,,343.7565667000599,344.7808999000117,342.02177150011994,342.02177150011994,342.02177150011994,342.02177150011994,,old_sceneIn_14.png,31,2.0,1.7346112998202443,,068,00,2025-04-17_17h02.41.623,Surprise recog test,2023.1.3,59.960845590784665,
31,0,31,0,,,,,,,,,,,,,,,,,,,,,,,,,,,,,,,,,,347.57765659992583,348.5926377000287,344.7808999000117,344.7808999000117,344.7808999000117,344.7808999000117,,new_sceneOut_31.png,32,3.0,2.7989813000895083,,068,00,2025-04-17_17h02.41.623,Surprise recog test,2023.1.3,59.960845590784665,
32,0,32,0,,,,,,,,,,,,,,,,,,,,,,,,,,,,,,,,,,351.1502628000453,,348.5926377000287,348.5926377000287,348.5926377000287,348.5926377000287,,new_stationery_8.png,33,5.0,2.5545973998960108,,068,00,2025-04-17_17h02.41.623,Surprise recog test,2023.1.3,59.960845590784665,
33,0,33,0,,,,,,,,,,,,,,,,,,,,,,,,,,,,,,,,,,354.71847949991934,,352.1811514000874,352.1811514000874,352.1811514000874,352.1811514000874,,old_stationery_17.png,34,2.0,2.5380156999453902,,068,00,2025-04-17_17h02.41.623,Surprise recog test,2023.1.3,59.960845590784665,
34,0,34,0,,,,,,,,,,,,,,,,,,,,,,,,,,,,,,,,,,357.71567409997806,358.7252972999122,355.75049460004084,355.75049460004084,355.75049460004084,355.75049460004084,,new_sceneIn_9.png,35,4.0,1.9687244000378996,,068,00,2025-04-17_17h02.41.623,Surprise recog test,2023.1.3,59.960845590784665,
35,0,35,0,,,,,,,,,,,,,,,,,,,,,,,,,,,,,,,,,,360.4148959000595,361.44029329996556,358.7252972999122,358.7252972999122,358.7252972999122,358.7252972999122,,old_stationery_5.png,36,1.0,1.6846145999152213,,068,00,2025-04-17_17h02.41.623,Surprise recog test,2023.1.3,59.960845590784665,
36,0,36,0,,,,,,,,,,,,,,,,,,,,,,,,,,,,,,,,,,363.79843370011076,364.8135820000898,361.44029329996556,361.44029329996556,361.44029329996556,361.44029329996556,,old_fruit_31.png,37,2.0,2.3580972000490874,,068,00,2025-04-17_17h02.41.623,Surprise recog test,2023.1.3,59.960845590784665,
37,0,37,0,,,,,,,,,,,,,,,,,,,,,,,,,,,,,,,,,,366.78734780009836,367.8013238001149,364.8135820000898,364.8135820000898,364.8135820000898,364.8135820000898,,old_sceneOut_40.png,38,3.0,1.9691358001437038,,068,00,2025-04-17_17h02.41.623,Surprise recog test,2023.1.3,59.960845590784665,
38,0,38,0,,,,,,,,,,,,,,,,,,,,,,,,,,,,,,,,,,369.5966789999511,,367.8013238001149,367.8013238001149,367.8013238001149,367.8013238001149,,new_sceneOut_17.png,39,4.0,1.788022599881515,,068,00,2025-04-17_17h02.41.623,Surprise recog test,2023.1.3,59.960845590784665,
39,0,39,0,,,,,,,,,,,,,,,,,,,,,,,,,,,,,,,,,,372.6802131999284,373.7000667001121,370.6306779999286,370.6306779999286,370.6306779999286,370.6306779999286,,new_fruit_36.png,40,2.0,2.052594899898395,,068,00,2025-04-17_17h02.41.623,Surprise recog test,2023.1.3,59.960845590784665,
40,0,40,0,,,,,,,,,,,,,,,,,,,,,,,,,,,,,,,,,,375.51619399990886,376.53136679995805,373.7000667001121,373.7000667001121,373.7000667001121,373.7000667001121,,old_stationery_26.png,41,3.0,1.8171636001206934,,068,00,2025-04-17_17h02.41.623,Surprise recog test,2023.1.3,59.960845590784665,
41,0,41,0,,,,,,,,,,,,,,,,,,,,,,,,,,,,,,,,,,378.72092760005035,379.73612440004945,376.53136679995805,376.53136679995805,376.53136679995805,376.53136679995805,,old_stationery_4.png,42,1.0,2.1913918000645936,,068,00,2025-04-17_17h02.41.623,Surprise recog test,2023.1.3,59.960845590784665,
42,0,42,0,,,,,,,,,,,,,,,,,,,,,,,,,,,,,,,,,,382.52632989990525,,379.73612440004945,379.73612440004945,379.73612440004945,379.73612440004945,,old_fruit_39.png,43,3.0,2.7889709998853505,,068,00,2025-04-17_17h02.41.623,Surprise recog test,2023.1.3,59.960845590784665,
43,0,43,0,,,,,,,,,,,,,,,,,,,,,,,,,,,,,,,,,,385.7579429000616,386.7766193000134,383.54747069999576,383.54747069999576,383.54747069999576,383.54747069999576,,old_sceneOut_38.png,44,4.0,2.2067961001303047,,068,00,2025-04-17_17h02.41.623,Surprise recog test,2023.1.3,59.960845590784665,
44,0,44,0,,,,,,,,,,,,,,,,,,,,,,,,,,,,,,,,,,389.1045417001005,390.1167389000766,386.7766193000134,386.7766193000134,386.7766193000134,386.7766193000134,,new_fruit_26.png,45,3.0,2.3298566001467407,,068,00,2025-04-17_17h02.41.623,Surprise recog test,2023.1.3,59.960845590784665,
45,0,45,0,,,,,,,,,,,,,,,,,,,,,,,,,,,,,,,,,,391.7219293001108,392.7380347000435,390.1167389000766,390.1167389000766,390.1167389000766,390.1167389000766,,old_fruit_45.png,46,1.0,1.6010577999986708,,068,00,2025-04-17_17h02.41.623,Surprise recog test,2023.1.3,59.960845590784665,
46,0,46,0,,,,,,,,,,,,,,,,,,,,,,,,,,,,,,,,,,394.1123051000759,395.12878970010206,392.7380347000435,392.7380347000435,392.7380347000435,392.7380347000435,,old_stationery_15.png,47,1.0,1.368652499979362,,068,00,2025-04-17_17h02.41.623,Surprise recog test,2023.1.3,59.960845590784665,
47,0,47,0,,,,,,,,,,,,,,,,,,,,,,,,,,,,,,,,,,397.68588800006546,398.6888359999284,395.12878970010206,395.12878970010206,395.12878970010206,395.12878970010206,,new_fruit_18.png,48,3.0,2.5577940999064595,,068,00,2025-04-17_17h02.41.623,Surprise recog test,2023.1.3,59.960845590784665,
48,0,48,0,,,,,,,,,,,,,,,,,,,,,,,,,,,,,,,,,,400.43496030010283,401.4516016000416,398.6888359999284,398.6888359999284,398.6888359999284,398.6888359999284,,old_sceneIn_49.png,49,4.0,1.7405707000289112,,068,00,2025-04-17_17h02.41.623,Surprise recog test,2023.1.3,59.960845590784665,
49,0,49,0,,,,,,,,,,,,,,,,,,,,,,,,,,,,,,,,,,403.65893539995886,,401.4516016000416,401.4516016000416,401.4516016000416,401.4516016000416,,old_fruit_46.png,50,3.0,2.2088333000428975,,068,00,2025-04-17_17h02.41.623,Surprise recog test,2023.1.3,59.960845590784665,
50,0,50,0,,,,,,,,,,,,,,,,,,,,,,,,,,,,,,,,,,406.91571639990434,407.9451844000723,404.68103350000456,404.68103350000456,404.68103350000456,404.68103350000456,,old_sceneIn_3.png,51,4.0,2.2313205001410097,,068,00,2025-04-17_17h02.41.623,Surprise recog test,2023.1.3,59.960845590784665,
51,0,51,0,,,,,,,,,,,,,,,,,,,,,,,,,,,,,,,,,,410.3159739000257,,407.9451844000723,407.9451844000723,407.9451844000723,407.9451844000723,,new_sceneIn_12.png,52,4.0,2.372590099927038,,068,00,2025-04-17_17h02.41.623,Surprise recog test,2023.1.3,59.960845590784665,
52,0,52,0,,,,,,,,,,,,,,,,,,,,,,,,,,,,,,,,,,413.4380659000017,414.4540464999154,411.34460499999113,411.34460499999113,411.34460499999113,411.34460499999113,,new_fruit_38.png,53,5.0,2.0952556000556797,,068,00,2025-04-17_17h02.41.623,Surprise recog test,2023.1.3,59.960845590784665,
53,0,53,0,,,,,,,,,,,,,,,,,,,,,,,,,,,,,,,,,,416.7955664000474,417.8074958999641,414.4540464999154,414.4540464999154,414.4540464999154,414.4540464999154,,new_fruit_44.png,54,4.0,2.3367025000043213,,068,00,2025-04-17_17h02.41.623,Surprise recog test,2023.1.3,59.960845590784665,
54,0,54,0,,,,,,,,,,,,,,,,,,,,,,,,,,,,,,,,,,419.823272800073,,417.8074958999641,417.8074958999641,417.8074958999641,417.8074958999641,,new_stationery_31.png,55,3.0,2.008940000087023,,068,00,2025-04-17_17h02.41.623,Surprise recog test,2023.1.3,59.960845590784665,
55,0,55,0,,,,,,,,,,,,,,,,,,,,,,,,,,,,,,,,,,422.4138796001207,423.4344442000147,420.84364530001767,420.84364530001767,420.84364530001767,420.84364530001767,,old_stationery_29.png,56,1.0,1.5622884999029338,,068,00,2025-04-17_17h02.41.623,Surprise recog test,2023.1.3,59.960845590784665,
56,0,56,0,,,,,,,,,,,,,,,,,,,,,,,,,,,,,,,,,,425.35602100007236,426.3729612000752,423.4344442000147,423.4344442000147,423.4344442000147,423.4344442000147,,new_stationery_33.png,57,3.0,1.9223283999599516,,068,00,2025-04-17_17h02.41.623,Surprise recog test,2023.1.3,59.960845590784665,
57,0,57,0,,,,,,,,,,,,,,,,,,,,,,,,,,,,,,,,,,427.98936260002665,429.0126139000058,426.3729612000752,426.3729612000752,426.3729612000752,426.3729612000752,,new_fruit_34.png,58,3.0,1.6143769999034703,,068,00,2025-04-17_17h02.41.623,Surprise recog test,2023.1.3,59.960845590784665,
58,0,58,0,,,,,,,,,,,,,,,,,,,,,,,,,,,,,,,,,,431.34622770012356,432.3545077999588,429.0126139000058,429.0126139000058,429.0126139000058,429.0126139000058,,old_sceneIn_38.png,59,2.0,2.3342136000283062,,068,00,2025-04-17_17h02.41.623,Surprise recog test,2023.1.3,59.960845590784665,
59,0,59,0,,,,,,,,,,,,,,,,,,,,,,,,,,,,,,,,,,433.9201114999596,434.9516122001223,432.3545077999588,432.3545077999588,432.3545077999588,432.3545077999588,,new_sceneIn_13.png,60,4.0,1.561366599984467,,068,00,2025-04-17_17h02.41.623,Surprise recog test,2023.1.3,59.960845590784665,
60,0,60,0,,,,,,,,,,,,,,,,,,,,,,,,,,,,,,,,,,436.5833970999811,437.60411370010115,434.9516122001223,434.9516122001223,434.9516122001223,434.9516122001223,,old_fruit_4.png,61,3.0,1.6338917999528348,,068,00,2025-04-17_17h02.41.623,Surprise recog test,2023.1.3,59.960845590784665,
61,0,61,0,,,,,,,,,,,,,,,,,,,,,,,,,,,,,,,,,,439.7783345999196,440.79407899989747,437.60411370010115,437.60411370010115,437.60411370010115,437.60411370010115,,old_sceneOut_18.png,62,4.0,2.1750626999419183,,068,00,2025-04-17_17h02.41.623,Surprise recog test,2023.1.3,59.960845590784665,
62,0,62,0,,,,,,,,,,,,,,,,,,,,,,,,,,,,,,,,,,442.54546059994027,443.5773742001038,440.79407899989747,440.79407899989747,440.79407899989747,440.79407899989747,,old_sceneIn_40.png,63,1.0,1.7492066998966038,,068,00,2025-04-17_17h02.41.623,Surprise recog test,2023.1.3,59.960845590784665,
63,0,63,0,,,,,,,,,,,,,,,,,,,,,,,,,,,,,,,,,,444.91526470007375,445.94491340010427,443.5773742001038,443.5773742001038,443.5773742001038,443.5773742001038,,old_stationery_35.png,64,1.0,1.3404039000160992,,068,00,2025-04-17_17h02.41.623,Surprise recog test,2023.1.3,59.960845590784665,
64,0,64,0,,,,,,,,,,,,,,,,,,,,,,,,,,,,,,,,,,446.970005299896,447.98375970008783,445.94491340010427,445.94491340010427,445.94491340010427,445.94491340010427,,old_fruit_13.png,65,1.0,1.021593099925667,,068,00,2025-04-17_17h02.41.623,Surprise recog test,2023.1.3,59.960845590784665,
65,0,65,0,,,,,,,,,,,,,,,,,,,,,,,,,,,,,,,,,,450.498605000088,,447.98375970008783,447.98375970008783,447.98375970008783,447.98375970008783,,new_sceneIn_39.png,66,4.0,2.5083633998874575,,068,00,2025-04-17_17h02.41.623,Surprise recog test,2023.1.3,59.960845590784665,
66,0,66,0,,,,,,,,,,,,,,,,,,,,,,,,,,,,,,,,,,452.5694019999355,453.5977676000912,451.5227008999791,451.5227008999791,451.5227008999791,451.5227008999791,,new_sceneOut_4.png,67,4.0,1.0443039000965655,,068,00,2025-04-17_17h02.41.623,Surprise recog test,2023.1.3,59.960845590784665,
67,0,67,0,,,,,,,,,,,,,,,,,,,,,,,,,,,,,,,,,,455.3336018000264,456.35366629995406,453.5977676000912,453.5977676000912,453.5977676000912,453.5977676000912,,old_fruit_3.png,68,3.0,1.7386435000225902,,068,00,2025-04-17_17h02.41.623,Surprise recog test,2023.1.3,59.960845590784665,
68,0,68,0,,,,,,,,,,,,,,,,,,,,,,,,,,,,,,,,,,458.4205132999923,,456.35366629995406,456.35366629995406,456.35366629995406,456.35366629995406,,new_fruit_7.png,69,2.0,2.066886299988255,,068,00,2025-04-17_17h02.41.623,Surprise recog test,2023.1.3,59.960845590784665,
69,0,69,0,,,,,,,,,,,,,,,,,,,,,,,,,,,,,,,,,,461.4932512999512,462.5121579999104,459.44275570008904,459.44275570008904,459.44275570008904,459.44275570008904,,new_sceneIn_5.png,70,3.0,2.04614569991827,,068,00,2025-04-17_17h02.41.623,Surprise recog test,2023.1.3,59.960845590784665,
70,0,70,0,,,,,,,,,,,,,,,,,,,,,,,,,,,,,,,,,,464.2283387000207,465.2485883999616,462.5121579999104,462.5121579999104,462.5121579999104,462.5121579999104,,new_sceneIn_28.png,71,1.0,1.7100519000086933,,068,00,2025-04-17_17h02.41.623,Surprise recog test,2023.1.3,59.960845590784665,
71,0,71,0,,,,,,,,,,,,,,,,,,,,,,,,,,,,,,,,,,467.88441310008056,468.91321530006826,465.2485883999616,465.2485883999616,465.2485883999616,465.2485883999616,,new_sceneOut_28.png,72,3.0,2.630054499953985,,068,00,2025-04-17_17h02.41.623,Surprise recog test,2023.1.3,59.960845590784665,
72,0,72,0,,,,,,,,,,,,,,,,,,,,,,,,,,,,,,,,,,470.44504379993305,471.45610589999706,468.91321530006826,468.91321530006826,468.91321530006826,468.91321530006826,,new_sceneOut_21.png,73,4.0,1.5271763999480754,,068,00,2025-04-17_17h02.41.623,Surprise recog test,2023.1.3,59.960845590784665,
73,0,73,0,,,,,,,,,,,,,,,,,,,,,,,,,,,,,,,,,,472.4800213999115,473.48865840001963,471.45610589999706,471.45610589999706,471.45610589999706,471.45610589999706,,new_sceneOut_8.png,74,4.0,1.0187673999462277,,068,00,2025-04-17_17h02.41.623,Surprise recog test,2023.1.3,59.960845590784665,
74,0,74,0,,,,,,,,,,,,,,,,,,,,,,,,,,,,,,,,,,474.95803810004145,475.97319369995967,473.48865840001963,473.48865840001963,473.48865840001963,473.48865840001963,,new_sceneOut_48.png,75,4.0,1.4650755999609828,,068,00,2025-04-17_17h02.41.623,Surprise recog test,2023.1.3,59.960845590784665,
75,0,75,0,,,,,,,,,,,,,,,,,,,,,,,,,,,,,,,,,,477.6428044999484,478.6566824999172,475.97319369995967,475.97319369995967,475.97319369995967,475.97319369995967,,old_fruit_2.png,76,2.0,1.6660960998851806,,068,00,2025-04-17_17h02.41.623,Surprise recog test,2023.1.3,59.960845590784665,
76,0,76,0,,,,,,,,,,,,,,,,,,,,,,,,,,,,,,,,,,480.5656193001196,481.5852971000131,478.6566824999172,478.6566824999172,478.6566824999172,478.6566824999172,,new_sceneIn_43.png,77,3.0,1.9061279001180083,,068,00,2025-04-17_17h02.41.623,Surprise recog test,2023.1.3,59.960845590784665,
77,0,77,0,,,,,,,,,,,,,,,,,,,,,,,,,,,,,,,,,,483.3727025000844,484.3892791001126,481.5852971000131,481.5852971000131,481.5852971000131,481.5852971000131,,new_sceneOut_50.png,78,4.0,1.7869098000228405,,068,00,2025-04-17_17h02.41.623,Surprise recog test,2023.1.3,59.960845590784665,
78,0,78,0,,,,,,,,,,,,,,,,,,,,,,,,,,,,,,,,,,485.91535699996166,486.9328676001169,484.3892791001126,484.3892791001126,484.3892791001126,484.3892791001126,,old_fruit_26.png,79,2.0,1.5275683999061584,,068,00,2025-04-17_17h02.41.623,Surprise recog test,2023.1.3,59.960845590784665,
79,0,79,0,,,,,,,,,,,,,,,,,,,,,,,,,,,,,,,,,,488.06384519999847,,486.9328676001169,486.9328676001169,486.9328676001169,486.9328676001169,,old_fruit_44.png,80,3.0,1.1266243001446128,,068,00,2025-04-17_17h02.41.623,Surprise recog test,2023.1.3,59.960845590784665,
80,0,80,0,,,,,,,,,,,,,,,,,,,,,,,,,,,,,,,,,,490.8885544000659,491.9157936000265,489.0914352000691,489.0914352000691,489.0914352000691,489.0914352000691,,old_sceneOut_29.png,81,4.0,1.799192599952221,,068,00,2025-04-17_17h02.41.623,Surprise recog test,2023.1.3,59.960845590784665,
81,0,81,0,,,,,,,,,,,,,,,,,,,,,,,,,,,,,,,,,,493.37757649994455,494.39296610001475,491.9157936000265,491.9157936000265,491.9157936000265,491.9157936000265,,old_stationery_33.png,82,1.0,1.461434799944982,,068,00,2025-04-17_17h02.41.623,Surprise recog test,2023.1.3,59.960845590784665,
82,0,82,0,,,,,,,,,,,,,,,,,,,,,,,,,,,,,,,,,,496.6466415000614,497.6683002000209,494.39296610001475,494.39296610001475,494.39296610001475,494.39296610001475,,new_sceneIn_3.png,83,3.0,2.251145499991253,,068,00,2025-04-17_17h02.41.623,Surprise recog test,2023.1.3,59.960845590784665,
83,0,83,0,,,,,,,,,,,,,,,,,,,,,,,,,,,,,,,,,,499.32586800004356,500.35973790008575,497.6683002000209,497.6683002000209,497.6683002000209,497.6683002000209,,old_stationery_32.png,84,1.0,1.6586366000119597,,068,00,2025-04-17_17h02.41.623,Surprise recog test,2023.1.3,59.960845590784665,
84,0,84,0,,,,,,,,,,,,,,,,,,,,,,,,,,,,,,,,,,502.1358650000766,503.15796159999445,500.35973790008575,500.35973790008575,500.35973790008575,500.35973790008575,,new_stationery_50.png,85,4.0,1.7782644000835717,,068,00,2025-04-17_17h02.41.623,Surprise recog test,2023.1.3,59.960845590784665,
85,0,85,0,,,,,,,,,,,,,,,,,,,,,,,,,,,,,,,,,,504.8573054000735,505.864404699998,503.15796159999445,503.15796159999445,503.15796159999445,503.15796159999445,,new_fruit_16.png,86,4.0,1.7024650000967085,,068,00,2025-04-17_17h02.41.623,Surprise recog test,2023.1.3,59.960845590784665,
86,0,86,0,,,,,,,,,,,,,,,,,,,,,,,,,,,,,,,,,,507.40907440008596,508.42373299994506,505.864404699998,505.864404699998,505.864404699998,505.864404699998,,old_stationery_41.png,87,2.0,1.5339789998251945,,068,00,2025-04-17_17h02.41.623,Surprise recog test,2023.1.3,59.960845590784665,
87,0,87,0,,,,,,,,,,,,,,,,,,,,,,,,,,,,,,,,,,510.019738700008,511.0431188000366,508.42373299994506,508.42373299994506,508.42373299994506,508.42373299994506,,old_sceneIn_12.png,88,1.0,1.5972634002100676,,068,00,2025-04-17_17h02.41.623,Surprise recog test,2023.1.3,59.960845590784665,
88,0,88,0,,,,,,,,,,,,,,,,,,,,,,,,,,,,,,,,,,512.8969527001027,513.917342599947,511.0431188000366,511.0431188000366,511.0431188000366,511.0431188000366,,new_stationery_19.png,89,4.0,1.8492789999581873,,068,00,2025-04-17_17h02.41.623,Surprise recog test,2023.1.3,59.960845590784665,
89,0,89,0,,,,,,,,,,,,,,,,,,,,,,,,,,,,,,,,,,515.8192686000839,,513.917342599947,513.917342599947,513.917342599947,513.917342599947,,old_sceneIn_37.png,90,2.0,1.9033522000536323,,068,00,2025-04-17_17h02.41.623,Surprise recog test,2023.1.3,59.960845590784665,
90,0,90,0,,,,,,,,,,,,,,,,,,,,,,,,,,,,,,,,,,518.4516068999656,519.4656227999367,516.8589347000234,516.8589347000234,516.8589347000234,516.8589347000234,,old_sceneIn_33.png,91,3.0,1.5898176999762654,,068,00,2025-04-17_17h02.41.623,Surprise recog test,2023.1.3,59.960845590784665,
91,0,91,0,,,,,,,,,,,,,,,,,,,,,,,,,,,,,,,,,,521.0048766999971,522.011946799932,519.4656227999367,519.4656227999367,519.4656227999367,519.4656227999367,,old_sceneOut_31.png,92,3.0,1.5404395000077784,,068,00,2025-04-17_17h02.41.623,Surprise recog test,2023.1.3,59.960845590784665,
92,0,92,0,,,,,,,,,,,,,,,,,,,,,,,,,,,,,,,,,,523.7932992000133,,522.011946799932,522.011946799932,522.011946799932,522.011946799932,,new_fruit_4.png,93,4.0,1.7764167999848723,,068,00,2025-04-17_17h02.41.623,Surprise recog test,2023.1.3,59.960845590784665,
93,0,93,0,,,,,,,,,,,,,,,,,,,,,,,,,,,,,,,,,,526.2857011999004,527.3107127998956,524.8246242001187,524.8246242001187,524.8246242001187,524.8246242001187,,new_stationery_10.png,94,2.0,1.4604924998711795,,068,00,2025-04-17_17h02.41.623,Surprise recog test,2023.1.3,59.960845590784665,
94,0,94,0,,,,,,,,,,,,,,,,,,,,,,,,,,,,,,,,,,528.6362165000755,529.662552600028,527.3107127998956,527.3107127998956,527.3107127998956,527.3107127998956,,new_fruit_9.png,95,3.0,1.3261008998379111,,068,00,2025-04-17_17h02.41.623,Surprise recog test,2023.1.3,59.960845590784665,
95,0,95,0,,,,,,,,,,,,,,,,,,,,,,,,,,,,,,,,,,531.2132604999933,532.2280111999717,529.662552600028,529.662552600028,529.662552600028,529.662552600028,,new_fruit_3.png,96,1.0,1.5495329000987113,,068,00,2025-04-17_17h02.41.623,Surprise recog test,2023.1.3,59.960845590784665,
96,0,96,0,,,,,,,,,,,,,,,,,,,,,,,,,,,,,,,,,,534.0660566000734,535.0867679000366,532.2280111999717,532.2280111999717,532.2280111999717,532.2280111999717,,new_sceneIn_45.png,97,4.0,1.8390231998637319,,068,00,2025-04-17_17h02.41.623,Surprise recog test,2023.1.3,59.960845590784665,
97,0,97,0,,,,,,,,,,,,,,,,,,,,,,,,,,,,,,,,,,536.7189277000725,,535.0867679000366,535.0867679000366,535.0867679000366,535.0867679000366,,old_stationery_47.png,98,1.0,1.6364452000707388,,068,00,2025-04-17_17h02.41.623,Surprise recog test,2023.1.3,59.960845590784665,
98,0,98,0,,,,,,,,,,,,,,,,,,,,,,,,,,,,,,,,,,539.2727946001105,,537.7502192999236,537.7502192999236,537.7502192999236,537.7502192999236,,old_sceneOut_15.png,99,4.0,1.5263139000162482,,068,00,2025-04-17_17h02.41.623,Surprise recog test,2023.1.3,59.960845590784665,
99,0,99,0,,,,,,,,,,,,,,,,,,,,,,,,,,,,,,,,,,541.9656006000005,542.9786638000514,540.2933400000911,540.2933400000911,540.2933400000911,540.2933400000911,,old_sceneIn_2.png,100,1.0,1.6680656999815255,,068,00,2025-04-17_17h02.41.623,Surprise recog test,2023.1.3,59.960845590784665,
100,0,100,0,,,,,,,,,,,,,,,,,,,,,,,,,,,,,,,,,,544.9428016000893,,542.9786638000514,542.9786638000514,542.9786638000514,542.9786638000514,,new_sceneIn_20.png,101,3.0,1.9575934999156743,,068,00,2025-04-17_17h02.41.623,Surprise recog test,2023.1.3,59.960845590784665,
101,0,101,0,,,,,,,,,,,,,,,,,,,,,,,,,,,,,,,,,,547.842563400045,548.8578504999168,545.9742374999914,545.9742374999914,545.9742374999914,545.9742374999914,,old_fruit_19.png,102,4.0,1.862734799971804,,068,00,2025-04-17_17h02.41.623,Surprise recog test,2023.1.3,59.960845590784665,
102,0,102,0,,,,,,,,,,,,,,,,,,,,,,,,,,,,,,,,,,550.1204757001251,551.142716200091,548.8578504999168,548.8578504999168,548.8578504999168,548.8578504999168,,old_sceneOut_9.png,103,4.0,1.26231799996458,,068,00,2025-04-17_17h02.41.623,Surprise recog test,2023.1.3,59.960845590784665,
103,0,103,0,,,,,,,,,,,,,,,,,,,,,,,,,,,,,,,,,,552.8515268000774,,551.142716200091,551.142716200091,551.142716200091,551.142716200091,,old_stationery_16.png,104,1.0,1.708262300118804,,068,00,2025-04-17_17h02.41.623,Surprise recog test,2023.1.3,59.960845590784665,
104,0,104,0,,,,,,,,,,,,,,,,,,,,,,,,,,,,,,,,,,555.2257449000608,556.2543838000856,553.8709303999785,553.8709303999785,553.8709303999785,553.8709303999785,,new_sceneIn_26.png,105,2.0,1.3496206998825073,,068,00,2025-04-17_17h02.41.623,Surprise recog test,2023.1.3,59.960845590784665,
105,0,105,0,,,,,,,,,,,,,,,,,,,,,,,,,,,,,,,,,,557.7894278999884,558.8241071999073,556.2543838000856,556.2543838000856,556.2543838000856,556.2543838000856,,old_sceneIn_13.png,106,1.0,1.536232499871403,,068,00,2025-04-17_17h02.41.623,Surprise recog test,2023.1.3,59.960845590784665,
106,0,106,0,,,,,,,,,,,,,,,,,,,,,,,,,,,,,,,,,,560.1578653999604,561.1839364001062,558.8241071999073,558.8241071999073,558.8241071999073,558.8241071999073,,new_sceneOut_24.png,107,4.0,1.3314958999399096,,068,00,2025-04-17_17h02.41.623,Surprise recog test,2023.1.3,59.960845590784665,
107,0,107,0,,,,,,,,,,,,,,,,,,,,,,,,,,,,,,,,,,563.0315044999588,564.0576021999586,561.1839364001062,561.1839364001062,561.1839364001062,561.1839364001062,,old_sceneIn_35.png,108,3.0,1.8467932001221925,,068,00,2025-04-17_17h02.41.623,Surprise recog test,2023.1.3,59.960845590784665,
108,0,108,0,,,,,,,,,,,,,,,,,,,,,,,,,,,,,,,,,,565.3568297999445,566.372765300097,564.0576021999586,564.0576021999586,564.0576021999586,564.0576021999586,,old_sceneIn_43.png,109,3.0,1.3014454999938607,,068,00,2025-04-17_17h02.41.623,Surprise recog test,2023.1.3,59.960845590784665,
109,0,109,0,,,,,,,,,,,,,,,,,,,,,,,,,,,,,,,,,,567.2659662000369,568.2962986000348,566.372765300097,566.372765300097,566.372765300097,566.372765300097,,new_sceneOut_33.png,110,3.0,0.8931152999866754,,068,00,2025-04-17_17h02.41.623,Surprise recog test,2023.1.3,59.960845590784665,
110,0,110,0,,,,,,,,,,,,,,,,,,,,,,,,,,,,,,,,,,570.1792782000266,571.1972914999351,568.2962986000348,568.2962986000348,568.2962986000348,568.2962986000348,,old_stationery_20.png,111,3.0,1.884325300110504,,068,00,2025-04-17_17h02.41.623,Surprise recog test,2023.1.3,59.960845590784665,
111,0,111,0,,,,,,,,,,,,,,,,,,,,,,,,,,,,,,,,,,572.8345842999406,573.854961700039,571.1972914999351,571.1972914999351,571.1972914999351,571.1972914999351,,new_sceneIn_29.png,112,4.0,1.638328299857676,,068,00,2025-04-17_17h02.41.623,Surprise recog test,2023.1.3,59.960845590784665,
112,0,112,0,,,,,,,,,,,,,,,,,,,,,,,,,,,,,,,,,,575.2446433999576,576.2704664000776,573.854961700039,573.854961700039,573.854961700039,573.854961700039,,new_fruit_20.png,113,3.0,1.3846668999176472,,068,00,2025-04-17_17h02.41.623,Surprise recog test,2023.1.3,59.960845590784665,
113,0,113,0,,,,,,,,,,,,,,,,,,,,,,,,,,,,,,,,,,578.0164860999212,579.0398897000123,576.2704664000776,576.2704664000776,576.2704664000776,576.2704664000776,,old_stationery_42.png,114,3.0,1.7477901000529528,,068,00,2025-04-17_17h02.41.623,Surprise recog test,2023.1.3,59.960845590784665,
114,0,114,0,,,,,,,,,,,,,,,,,,,,,,,,,,,,,,,,,,581.4528669000138,582.4615726999473,579.0398897000123,579.0398897000123,579.0398897000123,579.0398897000123,,old_sceneOut_23.png,115,4.0,2.41465810011141,,068,00,2025-04-17_17h02.41.623,Surprise recog test,2023.1.3,59.960845590784665,
115,0,115,0,,,,,,,,,,,,,,,,,,,,,,,,,,,,,,,,,,584.4896100999322,585.4993612999097,582.4615726999473,582.4615726999473,582.4615726999473,582.4615726999473,,new_fruit_42.png,116,4.0,2.0202277000062168,,068,00,2025-04-17_17h02.41.623,Surprise recog test,2023.1.3,59.960845590784665,
116,0,116,0,,,,,,,,,,,,,,,,,,,,,,,,,,,,,,,,,,587.4054936999455,588.4185589000117,585.4993612999097,585.4993612999097,585.4993612999097,585.4993612999097,,new_sceneOut_11.png,117,4.0,1.900711900088936,,068,00,2025-04-17_17h02.41.623,Surprise recog test,2023.1.3,59.960845590784665,
117,0,117,0,,,,,,,,,,,,,,,,,,,,,,,,,,,,,,,,,,590.5781473000534,591.5855513999704,588.4185589000117,588.4185589000117,588.4185589000117,588.4185589000117,,new_fruit_24.png,118,5.0,2.15620300010778,,068,00,2025-04-17_17h02.41.623,Surprise recog test,2023.1.3,59.960845590784665,
118,0,118,0,,,,,,,,,,,,,,,,,,,,,,,,,,,,,,,,,,592.9800197998993,593.998399999924,591.5855513999704,591.5855513999704,591.5855513999704,591.5855513999704,,old_stationery_13.png,119,2.0,1.3852267998736352,,068,00,2025-04-17_17h02.41.623,Surprise recog test,2023.1.3,59.960845590784665,
119,0,119,0,,,,,,,,,,,,,,,,,,,,,,,,,,,,,,,,,,595.1736006999854,596.1948557000142,593.998399999924,593.998399999924,593.998399999924,593.998399999924,,new_fruit_37.png,120,2.0,1.1768962999340147,,068,00,2025-04-17_17h02.41.623,Surprise recog test,2023.1.3,59.960845590784665,
120,0,120,0,,,,,,,,,,,,,,,,,,,,,,,,,,,,,,,,,,597.9302153999452,598.9391667000018,596.1948557000142,596.1948557000142,596.1948557000142,596.1948557000142,,old_sceneOut_13.png,121,4.0,1.7327523999847472,,068,00,2025-04-17_17h02.41.623,Surprise recog test,2023.1.3,59.960845590784665,
121,0,121,0,,,,,,,,,,,,,,,,,,,,,,,,,,,,,,,,,,600.4528896000702,601.4700692000333,598.9391667000018,598.9391667000018,598.9391667000018,598.9391667000018,,old_stationery_31.png,122,1.0,1.5034437000285834,,068,00,2025-04-17_17h02.41.623,Surprise recog test,2023.1.3,59.960845590784665,
122,0,122,0,,,,,,,,,,,,,,,,,,,,,,,,,,,,,,,,,,603.2105666000862,604.2355625000782,601.4700692000333,601.4700692000333,601.4700692000333,601.4700692000333,,new_stationery_45.png,123,4.0,1.7409981999080628,,068,00,2025-04-17_17h02.41.623,Surprise recog test,2023.1.3,59.960845590784665,
123,0,123,0,,,,,,,,,,,,,,,,,,,,,,,,,,,,,,,,,,606.0459175000433,607.0766851000953,604.2355625000782,604.2355625000782,604.2355625000782,604.2355625000782,,new_fruit_19.png,124,5.0,1.8094385999720544,,068,00,2025-04-17_17h02.41.623,Surprise recog test,2023.1.3,59.960845590784665,
124,0,124,0,,,,,,,,,,,,,,,,,,,,,,,,,,,,,,,,,,608.7397296000272,609.7577535999008,607.0766851000953,607.0766851000953,607.0766851000953,607.0766851000953,,old_fruit_23.png,125,3.0,1.66281219990924,,068,00,2025-04-17_17h02.41.623,Surprise recog test,2023.1.3,59.960845590784665,
125,0,125,0,,,,,,,,,,,,,,,,,,,,,,,,,,,,,,,,,,611.1629029000178,612.1780582999345,609.7577535999008,609.7577535999008,609.7577535999008,609.7577535999008,,old_fruit_12.png,126,3.0,1.4057418999727815,,068,00,2025-04-17_17h02.41.623,Surprise recog test,2023.1.3,59.960845590784665,
126,0,126,0,,,,,,,,,,,,,,,,,,,,,,,,,,,,,,,,,,614.1266207001172,615.1433077999391,612.1780582999345,612.1780582999345,612.1780582999345,612.1780582999345,,new_fruit_32.png,127,4.0,1.9503099999856204,,068,00,2025-04-17_17h02.41.623,Surprise recog test,2023.1.3,59.960845590784665,
127,0,127,0,,,,,,,,,,,,,,,,,,,,,,,,,,,,,,,,,,617.0232480000705,618.0521247999277,615.1433077999391,615.1433077999391,615.1433077999391,615.1433077999391,,new_sceneOut_44.png,128,4.0,1.8802726999856532,,068,00,2025-04-17_17h02.41.623,Surprise recog test,2023.1.3,59.960845590784665,
128,0,128,0,,,,,,,,,,,,,,,,,,,,,,,,,,,,,,,,,,619.9055906999856,,618.0521247999277,618.0521247999277,618.0521247999277,618.0521247999277,,new_stationery_49.png,129,4.0,1.8547593001276255,,068,00,2025-04-17_17h02.41.623,Surprise recog test,2023.1.3,59.960845590784665,
129,0,129,0,,,,,,,,,,,,,,,,,,,,,,,,,,,,,,,,,,622.2224147000816,623.2397221999709,620.9343020999804,620.9343020999804,620.9343020999804,620.9343020999804,,new_sceneIn_36.png,130,4.0,1.287821700097993,,068,00,2025-04-17_17h02.41.623,Surprise recog test,2023.1.3,59.960845590784665,
130,0,130,0,,,,,,,,,,,,,,,,,,,,,,,,,,,,,,,,,,624.541772000026,,623.2397221999709,623.2397221999709,623.2397221999709,623.2397221999709,,new_sceneIn_16.png,131,4.0,1.30425909999758,,068,00,2025-04-17_17h02.41.623,Surprise recog test,2023.1.3,59.960845590784665,
131,0,131,0,,,,,,,,,,,,,,,,,,,,,,,,,,,,,,,,,,627.3478975999169,628.3819981000852,625.5760633000173,625.5760633000173,625.5760633000173,625.5760633000173,,old_fruit_36.png,132,3.0,1.7756062000989914,,068,00,2025-04-17_17h02.41.623,Surprise recog test,2023.1.3,59.960845590784665,
132,0,132,0,,,,,,,,,,,,,,,,,,,,,,,,,,,,,,,,,,629.717924100114,630.7420316000935,628.3819981000852,628.3819981000852,628.3819981000852,628.3819981000852,,old_sceneIn_36.png,133,3.0,1.3373038999270648,,068,00,2025-04-17_17h02.41.623,Surprise recog test,2023.1.3,59.960845590784665,
133,0,133,0,,,,,,,,,,,,,,,,,,,,,,,,,,,,,,,,,,632.0957923999522,633.1234299000353,630.7420316000935,630.7420316000935,630.7420316000935,630.7420316000935,,new_sceneIn_14.png,134,4.0,1.3469414999708533,,068,00,2025-04-17_17h02.41.623,Surprise recog test,2023.1.3,59.960845590784665,
134,0,134,0,,,,,,,,,,,,,,,,,,,,,,,,,,,,,,,,,,634.59785869997,635.6140473999549,633.1234299000353,633.1234299000353,633.1234299000353,633.1234299000353,,new_sceneIn_30.png,135,2.0,1.471780100138858,,068,00,2025-04-17_17h02.41.623,Surprise recog test,2023.1.3,59.960845590784665,
135,0,135,0,,,,,,,,,,,,,,,,,,,,,,,,,,,,,,,,,,637.1048989000265,638.1351550999098,635.6140473999549,635.6140473999549,635.6140473999549,635.6140473999549,,old_sceneOut_17.png,136,4.0,1.4938304000534117,,068,00,2025-04-17_17h02.41.623,Surprise recog test,2023.1.3,59.960845590784665,
136,0,136,0,,,,,,,,,,,,,,,,,,,,,,,,,,,,,,,,,,639.6783551999833,640.7054429000709,638.1351550999098,638.1351550999098,638.1351550999098,638.1351550999098,,old_stationery_2.png,137,1.0,1.544613900128752,,068,00,2025-04-17_17h02.41.623,Surprise recog test,2023.1.3,59.960845590784665,
137,0,137,0,,,,,,,,,,,,,,,,,,,,,,,,,,,,,,,,,,642.1622615999077,643.1902614999563,640.7054429000709,640.7054429000709,640.7054429000709,640.7054429000709,,old_stationery_3.png,138,1.0,1.4594451999291778,,068,00,2025-04-17_17h02.41.623,Surprise recog test,2023.1.3,59.960845590784665,
138,0,138,0,,,,,,,,,,,,,,,,,,,,,,,,,,,,,,,,,,644.8133268000092,645.8413698000368,643.1902614999563,643.1902614999563,643.1902614999563,643.1902614999563,,new_fruit_21.png,139,2.0,1.624670899938792,,068,00,2025-04-17_17h02.41.623,Surprise recog test,2023.1.3,59.960845590784665,
139,0,139,0,,,,,,,,,,,,,,,,,,,,,,,,,,,,,,,,,,648.0276991000865,,645.8413698000368,645.8413698000368,645.8413698000368,645.8413698000368,,old_fruit_17.png,140,3.0,2.1881105001084507,,068,00,2025-04-17_17h02.41.623,Surprise recog test,2023.1.3,59.960845590784665,
140,0,140,0,,,,,,,,,,,,,,,,,,,,,,,,,,,,,,,,,,651.0620261000004,652.0838184999302,649.0617061001249,649.0617061001249,649.0617061001249,649.0617061001249,,old_stationery_22.png,141,2.0,2.00288139982149,,068,00,2025-04-17_17h02.41.623,Surprise recog test,2023.1.3,59.960845590784665,
141,0,141,0,,,,,,,,,,,,,,,,,,,,,,,,,,,,,,,,,,654.0273581000511,655.048464700114,652.0838184999302,652.0838184999302,652.0838184999302,652.0838184999302,,old_sceneOut_33.png,142,4.0,1.945666200015694,,068,00,2025-04-17_17h02.41.623,Surprise recog test,2023.1.3,59.960845590784665,
142,0,142,0,,,,,,,,,,,,,,,,,,,,,,,,,,,,,,,,,,656.4045287000481,657.42406999995,655.048464700114,655.048464700114,655.048464700114,655.048464700114,,old_sceneOut_20.png,143,4.0,1.3583873000461608,,068,00,2025-04-17_17h02.41.623,Surprise recog test,2023.1.3,59.960845590784665,
143,0,143,0,,,,,,,,,,,,,,,,,,,,,,,,,,,,,,,,,,659.0246453001164,660.0532776999753,657.42406999995,657.42406999995,657.42406999995,657.42406999995,,new_fruit_14.png,144,3.0,1.596629099920392,,068,00,2025-04-17_17h02.41.623,Surprise recog test,2023.1.3,59.960845590784665,
144,0,144,0,,,,,,,,,,,,,,,,,,,,,,,,,,,,,,,,,,661.0555098999757,,660.0532776999753,660.0532776999753,660.0532776999753,660.0532776999753,,new_fruit_12.png,145,3.0,1.0035666998010129,,068,00,2025-04-17_17h02.41.623,Surprise recog test,2023.1.3,59.960845590784665,
145,0,145,0,,,,,,,,,,,,,,,,,,,,,,,,,,,,,,,,,,663.3456463001203,664.371474500047,662.0773517999332,662.0773517999332,662.0773517999332,662.0773517999332,,new_fruit_30.png,146,3.0,1.2639007999096066,,068,00,2025-04-17_17h02.41.623,Surprise recog test,2023.1.3,59.960845590784665,
146,0,146,0,,,,,,,,,,,,,,,,,,,,,,,,,,,,,,,,,,665.8982850001194,666.9261807999574,664.371474500047,664.371474500047,664.371474500047,664.371474500047,,new_sceneIn_22.png,147,2.0,1.5272316001355648,,068,00,2025-04-17_17h02.41.623,Surprise recog test,2023.1.3,59.960845590784665,
147,0,147,0,,,,,,,,,,,,,,,,,,,,,,,,,,,,,,,,,,668.8601792999543,669.8718330000993,666.9261807999574,666.9261807999574,666.9261807999574,666.9261807999574,,old_sceneIn_18.png,148,4.0,1.933907900005579,,068,00,2025-04-17_17h02.41.623,Surprise recog test,2023.1.3,59.960845590784665,
148,0,148,0,,,,,,,,,,,,,,,,,,,,,,,,,,,,,,,,,,671.4117878000252,672.4336741999723,669.8718330000993,669.8718330000993,669.8718330000993,669.8718330000993,,old_stationery_25.png,149,2.0,1.5384450999554247,,068,00,2025-04-17_17h02.41.623,Surprise recog test,2023.1.3,59.960845590784665,
149,0,149,0,,,,,,,,,,,,,,,,,,,,,,,,,,,,,,,,,,674.4675437998958,,672.4336741999723,672.4336741999723,672.4336741999723,672.4336741999723,,new_sceneIn_27.png,150,4.0,2.034730000188574,,068,00,2025-04-17_17h02.41.623,Surprise recog test,2023.1.3,59.960845590784665,
150,0,150,0,,,,,,,,,,,,,,,,,,,,,,,,,,,,,,,,,,677.9453241999727,678.968118299963,675.5014219000004,675.5014219000004,675.5014219000004,675.5014219000004,,new_fruit_11.png,151,4.0,2.446166699985042,,068,00,2025-04-17_17h02.41.623,Surprise recog test,2023.1.3,59.960845590784665,
151,0,151,0,,,,,,,,,,,,,,,,,,,,,,,,,,,,,,,,,,680.35221859999,681.3609098000452,678.968118299963,678.968118299963,678.968118299963,678.968118299963,,new_sceneIn_15.png,152,4.0,1.385477000148967,,068,00,2025-04-17_17h02.41.623,Surprise recog test,2023.1.3,59.960845590784665,
152,0,152,0,,,,,,,,,,,,,,,,,,,,,,,,,,,,,,,,,,683.0058933999389,684.0130229000933,681.3609098000452,681.3609098000452,681.3609098000452,681.3609098000452,,old_sceneIn_24.png,153,2.0,1.6398664000444114,,068,00,2025-04-17_17h02.41.623,Surprise recog test,2023.1.3,59.960845590784665,
153,0,153,0,,,,,,,,,,,,,,,,,,,,,,,,,,,,,,,,,,685.336192100076,686.354606699897,684.0130229000933,684.0130229000933,684.0130229000933,684.0130229000933,,old_sceneOut_12.png,154,4.0,1.316722499905154,,068,00,2025-04-17_17h02.41.623,Surprise recog test,2023.1.3,59.960845590784665,
154,0,154,0,,,,,,,,,,,,,,,,,,,,,,,,,,,,,,,,,,687.7896257999819,688.8068822999485,686.354606699897,686.354606699897,686.354606699897,686.354606699897,,old_fruit_27.png,155,3.0,1.43641690001823,,068,00,2025-04-17_17h02.41.623,Surprise recog test,2023.1.3,59.960845590784665,
155,0,155,0,,,,,,,,,,,,,,,,,,,,,,,,,,,,,,,,,,690.403065700084,691.4353489999194,688.8068822999485,688.8068822999485,688.8068822999485,688.8068822999485,,new_stationery_29.png,156,4.0,1.595551999984309,,068,00,2025-04-17_17h02.41.623,Surprise recog test,2023.1.3,59.960845590784665,
156,0,156,0,,,,,,,,,,,,,,,,,,,,,,,,,,,,,,,,,,693.2786799001042,694.2902232999913,691.4353489999194,691.4353489999194,691.4353489999194,691.4353489999194,,old_sceneOut_36.png,157,5.0,1.8477290000300854,,068,00,2025-04-17_17h02.41.623,Surprise recog test,2023.1.3,59.960845590784665,
157,0,157,0,,,,,,,,,,,,,,,,,,,,,,,,,,,,,,,,,,696.0871798999142,697.1172118000686,694.2902232999913,694.2902232999913,694.2902232999913,694.2902232999913,,old_stationery_6.png,158,2.0,1.7966535000596195,,068,00,2025-04-17_17h02.41.623,Surprise recog test,2023.1.3,59.960845590784665,
158,0,158,0,,,,,,,,,,,,,,,,,,,,,,,,,,,,,,,,,,698.958513099933,699.9855500000995,697.1172118000686,697.1172118000686,697.1172118000686,697.1172118000686,,old_sceneIn_22.png,159,4.0,1.8443909001071006,,068,00,2025-04-17_17h02.41.623,Surprise recog test,2023.1.3,59.960845590784665,
159,0,159,0,,,,,,,,,,,,,,,,,,,,,,,,,,,,,,,,,,701.776842799969,702.8027633999009,699.9855500000995,699.9855500000995,699.9855500000995,699.9855500000995,,new_stationery_20.png,160,4.0,1.7933741000015289,,068,00,2025-04-17_17h02.41.623,Surprise recog test,2023.1.3,59.960845590784665,
160,0,160,0,,,,,,,,,,,,,,,,,,,,,,,,,,,,,,,,,,704.0617988000158,705.0929880999029,702.8027633999009,702.8027633999009,702.8027633999009,702.8027633999009,,new_fruit_45.png,161,3.0,1.259563700063154,,068,00,2025-04-17_17h02.41.623,Surprise recog test,2023.1.3,59.960845590784665,
161,0,161,0,,,,,,,,,,,,,,,,,,,,,,,,,,,,,,,,,,706.5709897000343,707.5959793999791,705.0929880999029,705.0929880999029,705.0929880999029,705.0929880999029,,old_sceneOut_8.png,162,4.0,1.4780568999703974,,068,00,2025-04-17_17h02.41.623,Surprise recog test,2023.1.3,59.960845590784665,
162,0,162,0,,,,,,,,,,,,,,,,,,,,,,,,,,,,,,,,,,709.1291763999034,,707.5959793999791,707.5959793999791,707.5959793999791,707.5959793999791,,new_sceneOut_6.png,163,3.0,1.533078100066632,,068,00,2025-04-17_17h02.41.623,Surprise recog test,2023.1.3,59.960845590784665,
163,0,163,0,,,,,,,,,,,,,,,,,,,,,,,,,,,,,,,,,,711.7560453000478,712.7822910000104,710.1574997000862,710.1574997000862,710.1574997000862,710.1574997000862,,new_stationery_34.png,164,4.0,1.589523799950257,,068,00,2025-04-17_17h02.41.623,Surprise recog test,2023.1.3,59.960845590784665,
164,0,164,0,,,,,,,,,,,,,,,,,,,,,,,,,,,,,,,,,,714.8981858999468,715.9119216001127,712.7822910000104,712.7822910000104,712.7822910000104,712.7822910000104,,new_stationery_17.png,165,3.0,2.119369300082326,,068,00,2025-04-17_17h02.41.623,Surprise recog test,2023.1.3,59.960845590784665,
165,0,165,0,,,,,,,,,,,,,,,,,,,,,,,,,,,,,,,,,,717.2492066000123,718.2671449000482,715.9119216001127,715.9119216001127,715.9119216001127,715.9119216001127,,old_fruit_48.png,166,3.0,1.3372986998874694,,068,00,2025-04-17_17h02.41.623,Surprise recog test,2023.1.3,59.960845590784665,
166,0,166,0,,,,,,,,,,,,,,,,,,,,,,,,,,,,,,,,,,719.1381431999616,,718.2671449000482,718.2671449000482,718.2671449000482,718.2671449000482,,new_fruit_25.png,167,3.0,0.8731339999940246,,068,00,2025-04-17_17h02.41.623,Surprise recog test,2023.1.3,59.960845590784665,
167,0,167,0,,,,,,,,,,,,,,,,,,,,,,,,,,,,,,,,,,722.1091112999711,723.128659500042,720.171126900008,720.171126900008,720.171126900008,720.171126900008,,new_sceneOut_10.png,168,3.0,1.9385965999681503,,068,00,2025-04-17_17h02.41.623,Surprise recog test,2023.1.3,59.960845590784665,
168,0,168,0,,,,,,,,,,,,,,,,,,,,,,,,,,,,,,,,,,724.6816762001254,725.7042032999452,723.128659500042,723.128659500042,723.128659500042,723.128659500042,,old_fruit_30.png,169,3.0,1.5490037000272423,,068,00,2025-04-17_17h02.41.623,Surprise recog test,2023.1.3,59.960845590784665,
169,0,169,0,,,,,,,,,,,,,,,,,,,,,,,,,,,,,,,,,,727.3453579000197,,725.7042032999452,725.7042032999452,725.7042032999452,725.7042032999452,,old_sceneOut_6.png,170,4.0,1.6430140000302345,,068,00,2025-04-17_17h02.41.623,Surprise recog test,2023.1.3,59.960845590784665,
170,0,170,0,,,,,,,,,,,,,,,,,,,,,,,,,,,,,,,,,,729.8055289001204,730.8240628999192,728.3643909001257,728.3643909001257,728.3643909001257,728.3643909001257,,new_fruit_33.png,171,3.0,1.4363434999249876,,068,00,2025-04-17_17h02.41.623,Surprise recog test,2023.1.3,59.960845590784665,
171,0,171,0,,,,,,,,,,,,,,,,,,,,,,,,,,,,,,,,,,732.5355925001204,733.5634185001254,730.8240628999192,730.8240628999192,730.8240628999192,730.8240628999192,,old_sceneOut_32.png,172,4.0,1.7120211001019925,,068,00,2025-04-17_17h02.41.623,Surprise recog test,2023.1.3,59.960845590784665,
172,0,172,0,,,,,,,,,,,,,,,,,,,,,,,,,,,,,,,,,,734.7469122000039,735.7609367000405,733.5634185001254,733.5634185001254,733.5634185001254,733.5634185001254,,new_sceneOut_30.png,173,4.0,1.1850962999742478,,068,00,2025-04-17_17h02.41.623,Surprise recog test,2023.1.3,59.960845590784665,
173,0,173,0,,,,,,,,,,,,,,,,,,,,,,,,,,,,,,,,,,737.0711374001112,738.0977580000181,735.7609367000405,735.7609367000405,735.7609367000405,735.7609367000405,,new_sceneOut_26.png,174,4.0,1.3093010000884533,,068,00,2025-04-17_17h02.41.623,Surprise recog test,2023.1.3,59.960845590784665,
174,0,174,0,,,,,,,,,,,,,,,,,,,,,,,,,,,,,,,,,,739.5259130001068,740.5482087000273,738.0977580000181,738.0977580000181,738.0977580000181,738.0977580000181,,new_sceneIn_25.png,175,3.0,1.4295049000065774,,068,00,2025-04-17_17h02.41.623,Surprise recog test,2023.1.3,59.960845590784665,
175,0,175,0,,,,,,,,,,,,,,,,,,,,,,,,,,,,,,,,,,742.7596801999025,743.7796247000806,740.5482087000273,740.5482087000273,740.5482087000273,740.5482087000273,,old_stationery_10.png,176,1.0,2.212066699983552,,068,00,2025-04-17_17h02.41.623,Surprise recog test,2023.1.3,59.960845590784665,
176,0,176,0,,,,,,,,,,,,,,,,,,,,,,,,,,,,,,,,,,745.3861233999487,746.4098817999475,743.7796247000806,743.7796247000806,743.7796247000806,743.7796247000806,,new_sceneIn_2.png,177,4.0,1.6023604001384228,,068,00,2025-04-17_17h02.41.623,Surprise recog test,2023.1.3,59.960845590784665,
177,0,177,0,,,,,,,,,,,,,,,,,,,,,,,,,,,,,,,,,,747.9572332999669,748.9718549000099,746.4098817999475,746.4098817999475,746.4098817999475,746.4098817999475,,old_sceneIn_5.png,178,1.0,1.5497642999980599,,068,00,2025-04-17_17h02.41.623,Surprise recog test,2023.1.3,59.960845590784665,
178,0,178,0,,,,,,,,,,,,,,,,,,,,,,,,,,,,,,,,,,750.9421363999136,751.9623887999915,748.9718549000099,748.9718549000099,748.9718549000099,748.9718549000099,,old_sceneIn_9.png,179,3.0,1.9710826999507844,,068,00,2025-04-17_17h02.41.623,Surprise recog test,2023.1.3,59.960845590784665,
179,0,179,0,,,,,,,,,,,,,,,,,,,,,,,,,,,,,,,,,,753.3818886999507,,751.9623887999915,751.9623887999915,751.9623887999915,751.9623887999915,,new_fruit_48.png,180,3.0,1.421254200162366,,068,00,2025-04-17_17h02.41.623,Surprise recog test,2023.1.3,59.960845590784665,
180,0,180,0,,,,,,,,,,,,,,,,,,,,,,,,,,,,,,,,,,755.851975500118,,754.4150690999813,754.4150690999813,754.4150690999813,754.4150690999813,,new_sceneOut_37.png,181,5.0,1.434677999932319,,068,00,2025-04-17_17h02.41.623,Surprise recog test,2023.1.3,59.960845590784665,
181,0,181,0,,,,,,,,,,,,,,,,,,,,,,,,,,,,,,,,,,758.3249699999578,759.3517179000191,756.8731132999528,756.8731132999528,756.8731132999528,756.8731132999528,,new_sceneOut_40.png,182,4.0,1.4480176998768002,,068,00,2025-04-17_17h02.41.623,Surprise recog test,2023.1.3,59.960845590784665,
182,0,182,0,,,,,,,,,,,,,,,,,,,,,,,,,,,,,,,,,,761.0194971999153,762.0390761001036,759.3517179000191,759.3517179000191,759.3517179000191,759.3517179000191,,old_fruit_11.png,183,2.0,1.6676354999653995,,068,00,2025-04-17_17h02.41.623,Surprise recog test,2023.1.3,59.960845590784665,
183,0,183,0,,,,,,,,,,,,,,,,,,,,,,,,,,,,,,,,,,763.5002445999999,764.5272818999365,762.0390761001036,762.0390761001036,762.0390761001036,762.0390761001036,,new_sceneIn_50.png,184,3.0,1.4608966000378132,,068,00,2025-04-17_17h02.41.623,Surprise recog test,2023.1.3,59.960845590784665,
184,0,184,0,,,,,,,,,,,,,,,,,,,,,,,,,,,,,,,,,,766.1033610000741,767.1264931000769,764.5272818999365,764.5272818999365,764.5272818999365,764.5272818999365,,new_sceneOut_1.png,185,4.0,1.5782165999989957,,068,00,2025-04-17_17h02.41.623,Surprise recog test,2023.1.3,59.960845590784665,
185,0,185,0,,,,,,,,,,,,,,,,,,,,,,,,,,,,,,,,,,768.6590289000887,769.6752098998986,767.1264931000769,767.1264931000769,767.1264931000769,767.1264931000769,,new_stationery_42.png,186,2.0,1.532257700106129,,068,00,2025-04-17_17h02.41.623,Surprise recog test,2023.1.3,59.960845590784665,
186,0,186,0,,,,,,,,,,,,,,,,,,,,,,,,,,,,,,,,,,771.1010082000867,772.116725299973,769.6752098998986,769.6752098998986,769.6752098998986,769.6752098998986,,old_sceneOut_7.png,187,4.0,1.423807900166139,,068,00,2025-04-17_17h02.41.623,Surprise recog test,2023.1.3,59.960845590784665,
187,0,187,0,,,,,,,,,,,,,,,,,,,,,,,,,,,,,,,,,,773.65336570004,774.6731052000541,772.116725299973,772.116725299973,772.116725299973,772.116725299973,,old_sceneOut_10.png,188,4.0,1.5332853998988867,,068,00,2025-04-17_17h02.41.623,Surprise recog test,2023.1.3,59.960845590784665,
188,0,188,0,,,,,,,,,,,,,,,,,,,,,,,,,,,,,,,,,,776.173890599981,777.201754800044,774.6731052000541,774.6731052000541,774.6731052000541,774.6731052000541,,new_stationery_28.png,189,1.0,1.4978283001109958,,068,00,2025-04-17_17h02.41.623,Surprise recog test,2023.1.3,59.960845590784665,
189,0,189,0,,,,,,,,,,,,,,,,,,,,,,,,,,,,,,,,,,778.7805049999151,779.8012278000824,777.201754800044,777.201754800044,777.201754800044,777.201754800044,,new_stationery_12.png,190,2.0,1.582302400143817,,068,00,2025-04-17_17h02.41.623,Surprise recog test,2023.1.3,59.960845590784665,
190,0,190,0,,,,,,,,,,,,,,,,,,,,,,,,,,,,,,,,,,781.6533143999986,782.6668581999838,779.8012278000824,779.8012278000824,779.8012278000824,779.8012278000824,,new_sceneIn_34.png,191,4.0,1.8507936000823975,,068,00,2025-04-17_17h02.41.623,Surprise recog test,2023.1.3,59.960845590784665,
191,0,191,0,,,,,,,,,,,,,,,,,,,,,,,,,,,,,,,,,,784.0744876000099,,782.6668581999838,782.6668581999838,782.6668581999838,782.6668581999838,,new_sceneOut_43.png,192,3.0,1.4083793999161571,,068,00,2025-04-17_17h02.41.623,Surprise recog test,2023.1.3,59.960845590784665,
192,0,192,0,,,,,,,,,,,,,,,,,,,,,,,,,,,,,,,,,,786.3571915000211,787.376707599964,785.1078468000051,785.1078468000051,785.1078468000051,785.1078468000051,,new_fruit_46.png,193,3.0,1.2513115999754518,,068,00,2025-04-17_17h02.41.623,Surprise recog test,2023.1.3,59.960845590784665,
193,0,193,0,,,,,,,,,,,,,,,,,,,,,,,,,,,,,,,,,,788.6757640999276,789.6892250000965,787.376707599964,787.376707599964,787.376707599964,787.376707599964,,old_fruit_40.png,194,3.0,1.2960086001548916,,068,00,2025-04-17_17h02.41.623,Surprise recog test,2023.1.3,59.960845590784665,
194,0,194,0,,,,,,,,,,,,,,,,,,,,,,,,,,,,,,,,,,791.375324399909,792.3958380001131,789.6892250000965,789.6892250000965,789.6892250000965,789.6892250000965,,new_sceneIn_37.png,195,4.0,1.6873930001165718,,068,00,2025-04-17_17h02.41.623,Surprise recog test,2023.1.3,59.960845590784665,
195,0,195,0,,,,,,,,,,,,,,,,,,,,,,,,,,,,,,,,,,794.013507500058,795.0350633000489,792.3958380001131,792.3958380001131,792.3958380001131,792.3958380001131,,new_stationery_11.png,196,4.0,1.6140900999307632,,068,00,2025-04-17_17h02.41.623,Surprise recog test,2023.1.3,59.960845590784665,
196,0,196,0,,,,,,,,,,,,,,,,,,,,,,,,,,,,,,,,,,796.376377100125,797.4040979000274,795.0350633000489,795.0350633000489,795.0350633000489,795.0350633000489,,old_stationery_12.png,197,1.0,1.343580799875781,,068,00,2025-04-17_17h02.41.623,Surprise recog test,2023.1.3,59.960845590784665,
197,0,197,0,,,,,,,,,,,,,,,,,,,,,,,,,,,,,,,,,,799.1808573000599,800.1965588999446,797.4040979000274,797.4040979000274,797.4040979000274,797.4040979000274,,old_sceneOut_42.png,198,4.0,1.7769952998496592,,068,00,2025-04-17_17h02.41.623,Surprise recog test,2023.1.3,59.960845590784665,
198,0,198,0,,,,,,,,,,,,,,,,,,,,,,,,,,,,,,,,,,801.398843199946,802.4112046000082,800.1965588999446,800.1965588999446,800.1965588999446,800.1965588999446,,old_sceneOut_43.png,199,3.0,1.2021727000828832,,068,00,2025-04-17_17h02.41.623,Surprise recog test,2023.1.3,59.960845590784665,
199,0,199,0,,,,,,,,,,,,,,,,,,,,,,,,,,,,,,,,,,804.3048201000784,805.3226530000102,802.4112046000082,802.4112046000082,802.4112046000082,802.4112046000082,,old_sceneIn_29.png,200,2.0,1.8885180000215769,,068,00,2025-04-17_17h02.41.623,Surprise recog test,2023.1.3,59.960845590784665,
200,0,200,0,,,,,,,,,,,,,,,,,,,,,,,,,,,,,,,,,,806.997068699915,808.0292750999797,805.3226530000102,805.3226530000102,805.3226530000102,805.3226530000102,,new_fruit_29.png,201,4.0,1.6762700998224318,,068,00,2025-04-17_17h02.41.623,Surprise recog test,2023.1.3,59.960845590784665,
201,0,201,0,,,,,,,,,,,,,,,,,,,,,,,,,,,,,,,,,,809.5401540000457,810.5645322999917,808.0292750999797,808.0292750999797,808.0292750999797,808.0292750999797,,new_stationery_47.png,202,2.0,1.513445100048557,,068,00,2025-04-17_17h02.41.623,Surprise recog test,2023.1.3,59.960845590784665,
202,0,202,0,,,,,,,,,,,,,,,,,,,,,,,,,,,,,,,,,,812.1224179998972,813.1455872999504,810.5645322999917,810.5645322999917,810.5645322999917,810.5645322999917,,old_stationery_27.png,203,2.0,1.5604148998390883,,068,00,2025-04-17_17h02.41.623,Surprise recog test,2023.1.3,59.960845590784665,
203,0,203,0,,,,,,,,,,,,,,,,,,,,,,,,,,,,,,,,,,814.5889135000762,815.6103050999809,813.1455872999504,813.1455872999504,813.1455872999504,813.1455872999504,,old_stationery_24.png,204,1.0,1.4455192000605166,,068,00,2025-04-17_17h02.41.623,Surprise recog test,2023.1.3,59.960845590784665,
204,0,204,0,,,,,,,,,,,,,,,,,,,,,,,,,,,,,,,,,,817.6498507999349,818.6552917999215,815.6103050999809,815.6103050999809,815.6103050999809,815.6103050999809,,old_sceneOut_37.png,205,4.0,2.0366497000213712,,068,00,2025-04-17_17h02.41.623,Surprise recog test,2023.1.3,59.960845590784665,
205,0,205,0,,,,,,,,,,,,,,,,,,,,,,,,,,,,,,,,,,820.1684505001176,821.1831622999161,818.6552917999215,818.6552917999215,818.6552917999215,818.6552917999215,,new_sceneIn_6.png,206,3.0,1.5096382999327034,,068,00,2025-04-17_17h02.41.623,Surprise recog test,2023.1.3,59.960845590784665,
206,0,206,0,,,,,,,,,,,,,,,,,,,,,,,,,,,,,,,,,,822.3315242999233,823.3559151000809,821.1831622999161,821.1831622999161,821.1831622999161,821.1831622999161,,new_sceneOut_20.png,207,3.0,1.1496258000843227,,068,00,2025-04-17_17h02.41.623,Surprise recog test,2023.1.3,59.960845590784665,
207,0,207,0,,,,,,,,,,,,,,,,,,,,,,,,,,,,,,,,,,824.9379092999734,825.9552078999113,823.3559151000809,823.3559151000809,823.3559151000809,823.3559151000809,,old_sceneIn_39.png,208,2.0,1.5834602999966592,,068,00,2025-04-17_17h02.41.623,Surprise recog test,2023.1.3,59.960845590784665,
208,0,208,0,,,,,,,,,,,,,,,,,,,,,,,,,,,,,,,,,,828.1557932000142,829.1642050999217,825.9552078999113,825.9552078999113,825.9552078999113,825.9552078999113,,new_stationery_14.png,209,3.0,2.19994720001705,,068,00,2025-04-17_17h02.41.623,Surprise recog test,2023.1.3,59.960845590784665,
209,0,209,0,,,,,,,,,,,,,,,,,,,,,,,,,,,,,,,,,,830.7525845000055,831.7818638000172,829.1642050999217,829.1642050999217,829.1642050999217,829.1642050999217,,new_sceneIn_23.png,210,1.0,1.5852735000662506,,068,00,2025-04-17_17h02.41.623,Surprise recog test,2023.1.3,59.960845590784665,
210,0,210,0,,,,,,,,,,,,,,,,,,,,,,,,,,,,,,,,,,833.4012361001223,834.4225981999189,831.7818638000172,831.7818638000172,831.7818638000172,831.7818638000172,,new_fruit_49.png,211,2.0,1.6212998998817056,,068,00,2025-04-17_17h02.41.623,Surprise recog test,2023.1.3,59.960845590784665,
211,0,211,0,,,,,,,,,,,,,,,,,,,,,,,,,,,,,,,,,,836.0485261001159,837.0616750000045,834.4225981999189,834.4225981999189,834.4225981999189,834.4225981999189,,new_sceneIn_21.png,212,2.0,1.6175557000096887,,068,00,2025-04-17_17h02.41.623,Surprise recog test,2023.1.3,59.960845590784665,
212,0,212,0,,,,,,,,,,,,,,,,,,,,,,,,,,,,,,,,,,839.051298599923,840.0596781999338,837.0616750000045,837.0616750000045,837.0616750000045,837.0616750000045,,old_sceneIn_27.png,213,4.0,1.9898660001344979,,068,00,2025-04-17_17h02.41.623,Surprise recog test,2023.1.3,59.960845590784665,
213,0,213,0,,,,,,,,,,,,,,,,,,,,,,,,,,,,,,,,,,841.6519995999988,842.6692564000841,840.0596781999338,840.0596781999338,840.0596781999338,840.0596781999338,,old_sceneIn_28.png,214,3.0,1.58747040014714,,068,00,2025-04-17_17h02.41.623,Surprise recog test,2023.1.3,59.960845590784665,
214,0,214,0,,,,,,,,,,,,,,,,,,,,,,,,,,,,,,,,,,843.897401599912,844.9193971999921,842.6692564000841,842.6692564000841,842.6692564000841,842.6692564000841,,new_sceneOut_45.png,215,3.0,1.2268112001474947,,068,00,2025-04-17_17h02.41.623,Surprise recog test,2023.1.3,59.960845590784665,
215,0,215,0,,,,,,,,,,,,,,,,,,,,,,,,,,,,,,,,,,846.7953147999942,847.8276279000565,844.9193971999921,844.9193971999921,844.9193971999921,844.9193971999921,,old_sceneOut_5.png,216,4.0,1.8753464999608696,,068,00,2025-04-17_17h02.41.623,Surprise recog test,2023.1.3,59.960845590784665,
216,0,216,0,,,,,,,,,,,,,,,,,,,,,,,,,,,,,,,,,,849.2232840000652,850.2468069999013,847.8276279000565,847.8276279000565,847.8276279000565,847.8276279000565,,old_sceneOut_27.png,217,4.0,1.3963471001479775,,068,00,2025-04-17_17h02.41.623,Surprise recog test,2023.1.3,59.960845590784665,
217,0,217,0,,,,,,,,,,,,,,,,,,,,,,,,,,,,,,,,,,852.5206001999322,853.542408999987,850.2468069999013,850.2468069999013,850.2468069999013,850.2468069999013,,new_stationery_7.png,218,4.0,2.275160799967125,,068,00,2025-04-17_17h02.41.623,Surprise recog test,2023.1.3,59.960845590784665,
218,0,218,0,,,,,,,,,,,,,,,,,,,,,,,,,,,,,,,,,,855.2810780000873,856.3063511000946,853.542408999987,853.542408999987,853.542408999987,853.542408999987,,old_fruit_14.png,219,1.0,1.731948000146076,,068,00,2025-04-17_17h02.41.623,Surprise recog test,2023.1.3,59.960845590784665,
219,0,219,0,,,,,,,,,,,,,,,,,,,,,,,,,,,,,,,,,,857.5467209001072,858.5751275001094,856.3063511000946,856.3063511000946,856.3063511000946,856.3063511000946,,new_sceneOut_13.png,220,4.0,1.2446125999558717,,068,00,2025-04-17_17h02.41.623,Surprise recog test,2023.1.3,59.960845590784665,
220,0,220,0,,,,,,,,,,,,,,,,,,,,,,,,,,,,,,,,,,859.6402283001225,860.6718218999449,858.5751275001094,858.5751275001094,858.5751275001094,858.5751275001094,,new_sceneOut_34.png,221,4.0,1.067825400037691,,068,00,2025-04-17_17h02.41.623,Surprise recog test,2023.1.3,59.960845590784665,
221,0,221,0,,,,,,,,,,,,,,,,,,,,,,,,,,,,,,,,,,862.0880370999221,863.1029596000444,860.6718218999449,860.6718218999449,860.6718218999449,860.6718218999449,,new_sceneOut_35.png,222,3.0,1.4152877999003977,,068,00,2025-04-17_17h02.41.623,Surprise recog test,2023.1.3,59.960845590784665,
222,0,222,0,,,,,,,,,,,,,,,,,,,,,,,,,,,,,,,,,,864.6584064001217,,863.1029596000444,863.1029596000444,863.1029596000444,863.1029596000444,,new_sceneIn_47.png,223,4.0,1.5557707999832928,,068,00,2025-04-17_17h02.41.623,Surprise recog test,2023.1.3,59.960845590784665,
223,0,223,0,,,,,,,,,,,,,,,,,,,,,,,,,,,,,,,,,,867.0953373000957,,865.6903488999233,865.6903488999233,865.6903488999233,865.6903488999233,,old_sceneOut_30.png,224,2.0,1.4063415999989957,,068,00,2025-04-17_17h02.41.623,Surprise recog test,2023.1.3,59.960845590784665,
224,0,224,0,,,,,,,,,,,,,,,,,,,,,,,,,,,,,,,,,,869.8257695001084,870.8332871000748,868.1208472000435,868.1208472000435,868.1208472000435,868.1208472000435,,new_sceneIn_42.png,225,3.0,1.7058953999076039,,068,00,2025-04-17_17h02.41.623,Surprise recog test,2023.1.3,59.960845590784665,
225,0,225,0,,,,,,,,,,,,,,,,,,,,,,,,,,,,,,,,,,872.164214800112,,870.8332871000748,870.8332871000748,870.8332871000748,870.8332871000748,,old_sceneIn_45.png,226,2.0,1.3260069999378175,,068,00,2025-04-17_17h02.41.623,Surprise recog test,2023.1.3,59.960845590784665,
226,0,226,0,,,,,,,,,,,,,,,,,,,,,,,,,,,,,,,,,,874.7651967999991,875.777299300069,873.1946374999825,873.1946374999825,873.1946374999825,873.1946374999825,,new_sceneOut_15.png,227,4.0,1.5706979997921735,,068,00,2025-04-17_17h02.41.623,Surprise recog test,2023.1.3,59.960845590784665,
227,0,227,0,,,,,,,,,,,,,,,,,,,,,,,,,,,,,,,,,,877.6403914000839,878.6537349000573,875.777299300069,875.777299300069,875.777299300069,875.777299300069,,new_sceneOut_29.png,228,4.0,1.8633177001029253,,068,00,2025-04-17_17h02.41.623,Surprise recog test,2023.1.3,59.960845590784665,
228,0,228,0,,,,,,,,,,,,,,,,,,,,,,,,,,,,,,,,,,880.7037349001039,881.7240263998974,878.6537349000573,878.6537349000573,878.6537349000573,878.6537349000573,,new_sceneIn_1.png,229,5.0,2.045852799899876,,068,00,2025-04-17_17h02.41.623,Surprise recog test,2023.1.3,59.960845590784665,
229,0,229,0,,,,,,,,,,,,,,,,,,,,,,,,,,,,,,,,,,882.9762911000289,883.9991055999417,881.7240263998974,881.7240263998974,881.7240263998974,881.7240263998974,,old_sceneOut_39.png,230,3.0,1.252486600074917,,068,00,2025-04-17_17h02.41.623,Surprise recog test,2023.1.3,59.960845590784665,
230,0,230,0,,,,,,,,,,,,,,,,,,,,,,,,,,,,,,,,,,885.6960483000148,886.7215909999795,883.9991055999417,883.9991055999417,883.9991055999417,883.9991055999417,,old_fruit_38.png,231,4.0,1.6970281000249088,,068,00,2025-04-17_17h02.41.623,Surprise recog test,2023.1.3,59.960845590784665,
231,0,231,0,,,,,,,,,,,,,,,,,,,,,,,,,,,,,,,,,,888.4085804000497,889.4230988000054,886.7215909999795,886.7215909999795,886.7215909999795,886.7215909999795,,old_sceneIn_48.png,232,4.0,1.685998999979347,,068,00,2025-04-17_17h02.41.623,Surprise recog test,2023.1.3,59.960845590784665,
232,0,232,0,,,,,,,,,,,,,,,,,,,,,,,,,,,,,,,,,,890.8356284000911,891.8538174999412,889.4230988000054,889.4230988000054,889.4230988000054,889.4230988000054,,old_sceneIn_30.png,233,2.0,1.4141259000170976,,068,00,2025-04-17_17h02.41.623,Surprise recog test,2023.1.3,59.960845590784665,
233,0,233,0,,,,,,,,,,,,,,,,,,,,,,,,,,,,,,,,,,893.5032985999715,894.5283520000521,891.8538174999412,891.8538174999412,891.8538174999412,891.8538174999412,,old_sceneOut_49.png,234,3.0,1.6486133998259902,,068,00,2025-04-17_17h02.41.623,Surprise recog test,2023.1.3,59.960845590784665,
234,0,234,0,,,,,,,,,,,,,,,,,,,,,,,,,,,,,,,,,,895.9314540999476,896.9535966999829,894.5283520000521,894.5283520000521,894.5283520000521,894.5283520000521,,old_stationery_46.png,235,2.0,1.4031031001359224,,068,00,2025-04-17_17h02.41.623,Surprise recog test,2023.1.3,59.960845590784665,
235,0,235,0,,,,,,,,,,,,,,,,,,,,,,,,,,,,,,,,,,898.4119118999224,899.433245500084,896.9535966999829,896.9535966999829,896.9535966999829,896.9535966999829,,new_sceneIn_35.png,236,4.0,1.4608744999859482,,068,00,2025-04-17_17h02.41.623,Surprise recog test,2023.1.3,59.960845590784665,
236,0,236,0,,,,,,,,,,,,,,,,,,,,,,,,,,,,,,,,,,901.0819137999788,902.105751400115,899.433245500084,899.433245500084,899.433245500084,899.433245500084,,new_stationery_41.png,237,4.0,1.6476375998463482,,068,00,2025-04-17_17h02.41.623,Surprise recog test,2023.1.3,59.960845590784665,
237,0,237,0,,,,,,,,,,,,,,,,,,,,,,,,,,,,,,,,,,903.4924850999378,904.5133124999702,902.105751400115,902.105751400115,902.105751400115,902.105751400115,,old_sceneOut_4.png,238,4.0,1.3871545000001788,,068,00,2025-04-17_17h02.41.623,Surprise recog test,2023.1.3,59.960845590784665,
238,0,238,0,,,,,,,,,,,,,,,,,,,,,,,,,,,,,,,,,,905.9889189999085,907.0034278999083,904.5133124999702,904.5133124999702,904.5133124999702,904.5133124999702,,new_sceneIn_18.png,239,3.0,1.4713264999445528,,068,00,2025-04-17_17h02.41.623,Surprise recog test,2023.1.3,59.960845590784665,
239,0,239,0,,,,,,,,,,,,,,,,,,,,,,,,,,,,,,,,,,908.7408090999816,909.7616465000901,907.0034278999083,907.0034278999083,907.0034278999083,907.0034278999083,,old_stationery_30.png,240,1.0,1.7388506000861526,,068,00,2025-04-17_17h02.41.623,Surprise recog test,2023.1.3,59.960845590784665,
240,0,240,0,,,,,,,,,,,,,,,,,,,,,,,,,,,,,,,,,,911.3996017000172,912.4243383000139,909.7616465000901,909.7616465000901,909.7616465000901,909.7616465000901,,new_sceneOut_7.png,241,4.0,1.6398592002224177,,068,00,2025-04-17_17h02.41.623,Surprise recog test,2023.1.3,59.960845590784665,
241,0,241,0,,,,,,,,,,,,,,,,,,,,,,,,,,,,,,,,,,913.806019899901,914.8345232999418,912.4243383000139,912.4243383000139,912.4243383000139,912.4243383000139,,new_sceneIn_49.png,242,3.0,1.3831449998542666,,068,00,2025-04-17_17h02.41.623,Surprise recog test,2023.1.3,59.960845590784665,
242,0,242,0,,,,,,,,,,,,,,,,,,,,,,,,,,,,,,,,,,916.3786569999065,917.3947564999107,914.8345232999418,914.8345232999418,914.8345232999418,914.8345232999418,,new_stationery_4.png,243,3.0,1.5469238997902721,,068,00,2025-04-17_17h02.41.623,Surprise recog test,2023.1.3,59.960845590784665,
243,0,243,0,,,,,,,,,,,,,,,,,,,,,,,,,,,,,,,,,,918.4017435999122,919.4145094999112,917.3947564999107,917.3947564999107,917.3947564999107,917.3947564999107,,old_sceneOut_46.png,244,3.0,1.0070427998434752,,068,00,2025-04-17_17h02.41.623,Surprise recog test,2023.1.3,59.960845590784665,
244,0,244,0,,,,,,,,,,,,,,,,,,,,,,,,,,,,,,,,,,920.6867545999121,921.6982376000378,919.4145094999112,919.4145094999112,919.4145094999112,919.4145094999112,,old_fruit_41.png,245,3.0,1.2726764001417905,,068,00,2025-04-17_17h02.41.623,Surprise recog test,2023.1.3,59.960845590784665,
245,0,245,0,,,,,,,,,,,,,,,,,,,,,,,,,,,,,,,,,,923.6347765000537,924.6466214000247,921.6982376000378,921.6982376000378,921.6982376000378,921.6982376000378,,old_fruit_37.png,246,1.0,1.9366136998869479,,068,00,2025-04-17_17h02.41.623,Surprise recog test,2023.1.3,59.960845590784665,
246,0,246,0,,,,,,,,,,,,,,,,,,,,,,,,,,,,,,,,,,926.2143924001139,927.241173800081,924.6466214000247,924.6466214000247,924.6466214000247,924.6466214000247,,old_sceneIn_34.png,247,1.0,1.5630858999211341,,068,00,2025-04-17_17h02.41.623,Surprise recog test,2023.1.3,59.960845590784665,
247,0,247,0,,,,,,,,,,,,,,,,,,,,,,,,,,,,,,,,,,928.8932421000209,929.9106020000763,927.241173800081,927.241173800081,927.241173800081,927.241173800081,,new_sceneIn_19.png,248,2.0,1.653748899931088,,068,00,2025-04-17_17h02.41.623,Surprise recog test,2023.1.3,59.960845590784665,
248,0,248,0,,,,,,,,,,,,,,,,,,,,,,,,,,,,,,,,,,931.3019226999022,932.3324945000932,929.9106020000763,929.9106020000763,929.9106020000763,929.9106020000763,,old_fruit_15.png,249,1.0,1.3934103001374751,,068,00,2025-04-17_17h02.41.623,Surprise recog test,2023.1.3,59.960845590784665,
249,0,249,0,,,,,,,,,,,,,,,,,,,,,,,,,,,,,,,,,,933.8193222999107,934.849878200097,932.3324945000932,932.3324945000932,932.3324945000932,932.3324945000932,,new_stationery_9.png,250,3.0,1.4879130001645535,,068,00,2025-04-17_17h02.41.623,Surprise recog test,2023.1.3,59.960845590784665,
250,0,250,0,,,,,,,,,,,,,,,,,,,,,,,,,,,,,,,,,,936.0985743999481,937.1029713999014,934.849878200097,934.849878200097,934.849878200097,934.849878200097,,new_sceneIn_33.png,251,3.0,1.2500410999637097,,068,00,2025-04-17_17h02.41.623,Surprise recog test,2023.1.3,59.960845590784665,
251,0,251,0,,,,,,,,,,,,,,,,,,,,,,,,,,,,,,,,,,938.2332715000957,939.251904200064,937.1029713999014,937.1029713999014,937.1029713999014,937.1029713999014,,old_fruit_6.png,252,3.0,1.1237846000585705,,068,00,2025-04-17_17h02.41.623,Surprise recog test,2023.1.3,59.960845590784665,
252,0,252,0,,,,,,,,,,,,,,,,,,,,,,,,,,,,,,,,,,940.2421576001216,941.2709951999132,939.251904200064,939.251904200064,939.251904200064,939.251904200064,,old_sceneOut_2.png,253,3.0,0.9908650999423116,,068,00,2025-04-17_17h02.41.623,Surprise recog test,2023.1.3,59.960845590784665,
253,0,253,0,,,,,,,,,,,,,,,,,,,,,,,,,,,,,,,,,,942.6292326000985,943.6526101001073,941.2709951999132,941.2709951999132,941.2709951999132,941.2709951999132,,old_sceneIn_31.png,254,2.0,1.35935840010643,,068,00,2025-04-17_17h02.41.623,Surprise recog test,2023.1.3,59.960845590784665,
254,0,254,0,,,,,,,,,,,,,,,,,,,,,,,,,,,,,,,,,,944.9657552000135,945.9864366999827,943.6526101001073,943.6526101001073,943.6526101001073,943.6526101001073,,new_sceneOut_47.png,255,4.0,1.3123294999822974,,068,00,2025-04-17_17h02.41.623,Surprise recog test,2023.1.3,59.960845590784665,
255,0,255,0,,,,,,,,,,,,,,,,,,,,,,,,,,,,,,,,,,947.2870732999872,948.2990747001022,945.9864366999827,945.9864366999827,945.9864366999827,945.9864366999827,,new_fruit_35.png,256,2.0,1.3018173000309616,,068,00,2025-04-17_17h02.41.623,Surprise recog test,2023.1.3,59.960845590784665,
256,0,256,0,,,,,,,,,,,,,,,,,,,,,,,,,,,,,,,,,,949.6773759999778,950.6876272999216,948.2990747001022,948.2990747001022,948.2990747001022,948.2990747001022,,new_fruit_17.png,257,1.0,1.3722532999236137,,068,00,2025-04-17_17h02.41.623,Surprise recog test,2023.1.3,59.960845590784665,
257,0,257,0,,,,,,,,,,,,,,,,,,,,,,,,,,,,,,,,,,952.154975600075,953.1753813000396,950.6876272999216,950.6876272999216,950.6876272999216,950.6876272999216,,new_sceneOut_46.png,258,3.0,1.466242800001055,,068,00,2025-04-17_17h02.41.623,Surprise recog test,2023.1.3,59.960845590784665,
258,0,258,0,,,,,,,,,,,,,,,,,,,,,,,,,,,,,,,,,,954.6968988000881,955.7035624999553,953.1753813000396,953.1753813000396,953.1753813000396,953.1753813000396,,old_fruit_20.png,259,3.0,1.515059000113979,,068,00,2025-04-17_17h02.41.623,Surprise recog test,2023.1.3,59.960845590784665,
259,0,259,0,,,,,,,,,,,,,,,,,,,,,,,,,,,,,,,,,,957.0988459000364,958.1133411000483,955.7035624999553,955.7035624999553,955.7035624999553,955.7035624999553,,old_stationery_8.png,260,2.0,1.3844408001750708,,068,00,2025-04-17_17h02.41.623,Surprise recog test,2023.1.3,59.960845590784665,
260,0,260,0,,,,,,,,,,,,,,,,,,,,,,,,,,,,,,,,,,959.2498051999137,960.2644410000648,958.1133411000483,958.1133411000483,958.1133411000483,958.1133411000483,,new_fruit_22.png,261,3.0,1.1353649001102895,,068,00,2025-04-17_17h02.41.623,Surprise recog test,2023.1.3,59.960845590784665,
261,0,261,0,,,,,,,,,,,,,,,,,,,,,,,,,,,,,,,,,,961.7860882999375,962.8056864999235,960.2644410000648,960.2644410000648,960.2644410000648,960.2644410000648,,new_stationery_2.png,262,3.0,1.5173448000568897,,068,00,2025-04-17_17h02.41.623,Surprise recog test,2023.1.3,59.960845590784665,
262,0,262,0,,,,,,,,,,,,,,,,,,,,,,,,,,,,,,,,,,964.1479976999108,965.174015100114,962.8056864999235,962.8056864999235,962.8056864999235,962.8056864999235,,new_fruit_23.png,263,3.0,1.3418775000609457,,068,00,2025-04-17_17h02.41.623,Surprise recog test,2023.1.3,59.960845590784665,
263,0,263,0,,,,,,,,,,,,,,,,,,,,,,,,,,,,,,,,,,966.7580683000851,967.774967999896,965.174015100114,965.174015100114,965.174015100114,965.174015100114,,new_stationery_23.png,264,3.0,1.5859886000398546,,068,00,2025-04-17_17h02.41.623,Surprise recog test,2023.1.3,59.960845590784665,
264,0,264,0,,,,,,,,,,,,,,,,,,,,,,,,,,,,,,,,,,969.1225411000196,970.1397442000452,967.774967999896,967.774967999896,967.774967999896,967.774967999896,,old_sceneOut_3.png,265,4.0,1.3480574998538941,,068,00,2025-04-17_17h02.41.623,Surprise recog test,2023.1.3,59.960845590784665,
265,0,265,0,,,,,,,,,,,,,,,,,,,,,,,,,,,,,,,,,,972.0577668000478,973.0687851000112,970.1397442000452,970.1397442000452,970.1397442000452,970.1397442000452,,old_sceneIn_46.png,266,5.0,1.9182287999428809,,068,00,2025-04-17_17h02.41.623,Surprise recog test,2023.1.3,59.960845590784665,
266,0,266,0,,,,,,,,,,,,,,,,,,,,,,,,,,,,,,,,,,974.5967099999543,975.6052069999278,973.0687851000112,973.0687851000112,973.0687851000112,973.0687851000112,,new_stationery_21.png,267,4.0,1.5174968999344856,,068,00,2025-04-17_17h02.41.623,Surprise recog test,2023.1.3,59.960845590784665,
267,0,267,0,,,,,,,,,,,,,,,,,,,,,,,,,,,,,,,,,,977.107595599955,978.1357482001185,975.6052069999278,975.6052069999278,975.6052069999278,975.6052069999278,,old_sceneIn_42.png,268,3.0,1.4962951000779867,,068,00,2025-04-17_17h02.41.623,Surprise recog test,2023.1.3,59.960845590784665,
268,0,268,0,,,,,,,,,,,,,,,,,,,,,,,,,,,,,,,,,,979.1863021000754,,978.1357482001185,978.1357482001185,978.1357482001185,978.1357482001185,,old_sceneOut_41.png,269,3.0,1.0526203999761492,,068,00,2025-04-17_17h02.41.623,Surprise recog test,2023.1.3,59.960845590784665,
269,0,269,0,,,,,,,,,,,,,,,,,,,,,,,,,,,,,,,,,,981.5790097001009,982.6047867001034,980.2139355998952,980.2139355998952,980.2139355998952,980.2139355998952,,new_sceneIn_32.png,270,3.0,1.3644506998825818,,068,00,2025-04-17_17h02.41.623,Surprise recog test,2023.1.3,59.960845590784665,
270,0,270,0,,,,,,,,,,,,,,,,,,,,,,,,,,,,,,,,,,984.037894600071,985.0423574000597,982.6047867001034,982.6047867001034,982.6047867001034,982.6047867001034,,new_stationery_22.png,271,2.0,1.427402500063181,,068,00,2025-04-17_17h02.41.623,Surprise recog test,2023.1.3,59.960845590784665,
271,0,271,0,,,,,,,,,,,,,,,,,,,,,,,,,,,,,,,,,,986.322598699946,987.3383981999941,985.0423574000597,985.0423574000597,985.0423574000597,985.0423574000597,,new_sceneOut_9.png,272,3.0,1.2742826000321656,,068,00,2025-04-17_17h02.41.623,Surprise recog test,2023.1.3,59.960845590784665,
272,0,272,0,,,,,,,,,,,,,,,,,,,,,,,,,,,,,,,,,,989.3256667999085,990.3374145999551,987.3383981999941,987.3383981999941,987.3383981999941,987.3383981999941,,new_stationery_30.png,273,2.0,1.9860901001375169,,068,00,2025-04-17_17h02.41.623,Surprise recog test,2023.1.3,59.960845590784665,
273,0,273,0,,,,,,,,,,,,,,,,,,,,,,,,,,,,,,,,,,991.9841273999773,993.0105189001188,990.3374145999551,990.3374145999551,990.3374145999551,990.3374145999551,,new_sceneOut_49.png,274,3.0,1.6461960999295115,,068,00,2025-04-17_17h02.41.623,Surprise recog test,2023.1.3,59.960845590784665,
274,0,274,0,,,,,,,,,,,,,,,,,,,,,,,,,,,,,,,,,,994.4028398999944,995.4333242001012,993.0105189001188,993.0105189001188,993.0105189001188,993.0105189001188,,old_stationery_7.png,275,1.0,1.3946250998415053,,068,00,2025-04-17_17h02.41.623,Surprise recog test,2023.1.3,59.960845590784665,
275,0,275,0,,,,,,,,,,,,,,,,,,,,,,,,,,,,,,,,,,997.2709713000804,998.2903998000547,995.4333242001012,995.4333242001012,995.4333242001012,995.4333242001012,,new_sceneOut_27.png,276,4.0,1.8401269000023603,,068,00,2025-04-17_17h02.41.623,Surprise recog test,2023.1.3,59.960845590784665,
276,0,276,0,,,,,,,,,,,,,,,,,,,,,,,,,,,,,,,,,,999.8777554999106,1000.9034718999173,998.2903998000547,998.2903998000547,998.2903998000547,998.2903998000547,,new_sceneOut_18.png,277,5.0,1.5832154999952763,,068,00,2025-04-17_17h02.41.623,Surprise recog test,2023.1.3,59.960845590784665,
277,0,277,0,,,,,,,,,,,,,,,,,,,,,,,,,,,,,,,,,,1002.6120984000154,1003.6404740998987,1000.9034718999173,1000.9034718999173,1000.9034718999173,1000.9034718999173,,old_sceneIn_7.png,278,3.0,1.7097053998149931,,068,00,2025-04-17_17h02.41.623,Surprise recog test,2023.1.3,59.960845590784665,
278,0,278,0,,,,,,,,,,,,,,,,,,,,,,,,,,,,,,,,,,1005.0449155999813,1006.0695249999408,1003.6404740998987,1003.6404740998987,1003.6404740998987,1003.6404740998987,,new_stationery_38.png,279,1.0,1.4072966000530869,,068,00,2025-04-17_17h02.41.623,Surprise recog test,2023.1.3,59.960845590784665,
279,0,279,0,,,,,,,,,,,,,,,,,,,,,,,,,,,,,,,,,,1007.7106194000226,,1006.0695249999408,1006.0695249999408,1006.0695249999408,1006.0695249999408,,old_sceneIn_17.png,280,3.0,1.641698399791494,,068,00,2025-04-17_17h02.41.623,Surprise recog test,2023.1.3,59.960845590784665,
280,0,280,0,,,,,,,,,,,,,,,,,,,,,,,,,,,,,,,,,,1010.5615813001059,1011.5793510999065,1008.7284673999529,1008.7284673999529,1008.7284673999529,1008.7284673999529,,new_stationery_48.png,281,2.0,1.8266112999990582,,068,00,2025-04-17_17h02.41.623,Surprise recog test,2023.1.3,59.960845590784665,
281,0,281,0,,,,,,,,,,,,,,,,,,,,,,,,,,,,,,,,,,1013.1202271999791,1014.1470306999981,1011.5793510999065,1011.5793510999065,1011.5793510999065,1011.5793510999065,,new_stationery_3.png,282,4.0,1.54305010009557,,068,00,2025-04-17_17h02.41.623,Surprise recog test,2023.1.3,59.960845590784665,
282,0,282,0,,,,,,,,,,,,,,,,,,,,,,,,,,,,,,,,,,1015.9181347000413,,1014.1470306999981,1014.1470306999981,1014.1470306999981,1014.1470306999981,,old_fruit_34.png,283,4.0,1.770180300110951,,068,00,2025-04-17_17h02.41.623,Surprise recog test,2023.1.3,59.960845590784665,
283,0,283,0,,,,,,,,,,,,,,,,,,,,,,,,,,,,,,,,,,1018.6358235001098,,1016.9445408000611,1016.9445408000611,1016.9445408000611,1016.9445408000611,,old_fruit_42.png,284,3.0,1.689710499951616,,068,00,2025-04-17_17h02.41.623,Surprise recog test,2023.1.3,59.960845590784665,
284,0,284,0,,,,,,,,,,,,,,,,,,,,,,,,,,,,,,,,,,1021.2854693001136,1022.3064769001212,1019.6692949999124,1019.6692949999124,1019.6692949999124,1019.6692949999124,,new_stationery_43.png,285,3.0,1.6134967000689358,,068,00,2025-04-17_17h02.41.623,Surprise recog test,2023.1.3,59.960845590784665,
285,0,285,0,,,,,,,,,,,,,,,,,,,,,,,,,,,,,,,,,,1023.5100291001145,1024.5265794000588,1022.3064769001212,1022.3064769001212,1022.3064769001212,1022.3064769001212,,new_sceneOut_42.png,286,4.0,1.2051159001421183,,068,00,2025-04-17_17h02.41.623,Surprise recog test,2023.1.3,59.960845590784665,
286,0,286,0,,,,,,,,,,,,,,,,,,,,,,,,,,,,,,,,,,1025.7950496999547,1026.8149842000566,1024.5265794000588,1024.5265794000588,1024.5265794000588,1024.5265794000588,,new_sceneIn_8.png,287,4.0,1.2645110001321882,,068,00,2025-04-17_17h02.41.623,Surprise recog test,2023.1.3,59.960845590784665,
287,0,287,0,,,,,,,,,,,,,,,,,,,,,,,,,,,,,,,,,,1028.086974899983,1029.0995805999264,1026.8149842000566,1026.8149842000566,1026.8149842000566,1026.8149842000566,,old_fruit_47.png,288,3.0,1.2695084000006318,,068,00,2025-04-17_17h02.41.623,Surprise recog test,2023.1.3,59.960845590784665,
288,0,288,0,,,,,,,,,,,,,,,,,,,,,,,,,,,,,,,,,,1030.2653530999087,1031.2975459001027,1029.0995805999264,1029.0995805999264,1029.0995805999264,1029.0995805999264,,old_sceneIn_44.png,289,3.0,1.1593120000325143,,068,00,2025-04-17_17h02.41.623,Surprise recog test,2023.1.3,59.960845590784665,
289,0,289,0,,,,,,,,,,,,,,,,,,,,,,,,,,,,,,,,,,1032.2112523000687,1033.2279894999228,1031.2975459001027,1031.2975459001027,1031.2975459001027,1031.2975459001027,,new_sceneIn_11.png,290,3.0,0.9123303000815213,,068,00,2025-04-17_17h02.41.623,Surprise recog test,2023.1.3,59.960845590784665,
290,0,290,0,,,,,,,,,,,,,,,,,,,,,,,,,,,,,,,,,,1034.902703100117,1035.9285266001243,1033.2279894999228,1033.2279894999228,1033.2279894999228,1033.2279894999228,,new_stationery_16.png,291,4.0,1.6770019000396132,,068,00,2025-04-17_17h02.41.623,Surprise recog test,2023.1.3,59.960845590784665,
291,0,291,0,,,,,,,,,,,,,,,,,,,,,,,,,,,,,,,,,,1037.121518299915,1038.1501323000994,1035.9285266001243,1035.9285266001243,1035.9285266001243,1035.9285266001243,,new_sceneOut_12.png,292,4.0,1.1938588998746127,,068,00,2025-04-17_17h02.41.623,Surprise recog test,2023.1.3,59.960845590784665,
292,0,292,0,,,,,,,,,,,,,,,,,,,,,,,,,,,,,,,,,,1039.7587619000115,1040.7786101999227,1038.1501323000994,1038.1501323000994,1038.1501323000994,1038.1501323000994,,old_stationery_19.png,293,2.0,1.6101009999401867,,068,00,2025-04-17_17h02.41.623,Surprise recog test,2023.1.3,59.960845590784665,
293,0,293,0,,,,,,,,,,,,,,,,,,,,,,,,,,,,,,,,,,1042.306554700015,,1040.7786101999227,1040.7786101999227,1040.7786101999227,1040.7786101999227,,old_sceneOut_48.png,294,4.0,1.5249175000935793,,068,00,2025-04-17_17h02.41.623,Surprise recog test,2023.1.3,59.960845590784665,
294,0,294,0,,,,,,,,,,,,,,,,,,,,,,,,,,,,,,,,,,1045.2767479999457,1046.3068514000624,1043.341305000009,1043.341305000009,1043.341305000009,1043.341305000009,,old_stationery_36.png,295,3.0,1.9377355000469834,,068,00,2025-04-17_17h02.41.623,Surprise recog test,2023.1.3,59.960845590784665,
295,0,295,0,,,,,,,,,,,,,,,,,,,,,,,,,,,,,,,,,,1047.7424842999317,1048.7448738000821,1046.3068514000624,1046.3068514000624,1046.3068514000624,1046.3068514000624,,old_stationery_18.png,296,1.0,1.4364514998160303,,068,00,2025-04-17_17h02.41.623,Surprise recog test,2023.1.3,59.960845590784665,
296,0,296,0,,,,,,,,,,,,,,,,,,,,,,,,,,,,,,,,,,1049.7969247000292,1050.818132699933,1048.7448738000821,1048.7448738000821,1048.7448738000821,1048.7448738000821,,old_stationery_34.png,297,1.0,1.0469572998117656,,068,00,2025-04-17_17h02.41.623,Surprise recog test,2023.1.3,59.960845590784665,
297,0,297,0,,,,,,,,,,,,,,,,,,,,,,,,,,,,,,,,,,1052.7753457999788,1053.796209000051,1050.818132699933,1050.818132699933,1050.818132699933,1050.818132699933,,new_sceneOut_22.png,298,4.0,1.9546676999889314,,068,00,2025-04-17_17h02.41.623,Surprise recog test,2023.1.3,59.960845590784665,
298,0,298,0,,,,,,,,,,,,,,,,,,,,,,,,,,,,,,,,,,1055.2637370999437,1056.2853850000538,1053.796209000051,1053.796209000051,1053.796209000051,1053.796209000051,,old_fruit_5.png,299,3.0,1.4657310999464244,,068,00,2025-04-17_17h02.41.623,Surprise recog test,2023.1.3,59.960845590784665,
299,0,299,0,,,,,,,,,,,,,,,,,,,,,,,,,,,,,,,,,,1057.4119738999289,1058.427585199941,1056.2853850000538,1056.2853850000538,1056.2853850000538,1056.2853850000538,,new_sceneOut_32.png,300,3.0,1.1282143001444638,,068,00,2025-04-17_17h02.41.623,Surprise recog test,2023.1.3,59.960845590784665,
300,0,300,0,,,,,,,,,,,,,,,,,,,,,,,,,,,,,,,,,,1060.0952864000574,1061.115064600017,1058.427585199941,1058.427585199941,1058.427585199941,1058.427585199941,,new_stationery_5.png,301,4.0,1.6673906999640167,,068,00,2025-04-17_17h02.41.623,Surprise recog test,2023.1.3,59.960845590784665,
301,0,301,0,,,,,,,,,,,,,,,,,,,,,,,,,,,,,,,,,,1062.6606948999688,1063.6902020999696,1061.115064600017,1061.115064600017,1061.115064600017,1061.115064600017,,new_stationery_27.png,302,4.0,1.5401133000850677,,068,00,2025-04-17_17h02.41.623,Surprise recog test,2023.1.3,59.960845590784665,
302,0,302,0,,,,,,,,,,,,,,,,,,,,,,,,,,,,,,,,,,1064.5716297999024,1065.5872671001125,1063.6902020999696,1063.6902020999696,1063.6902020999696,1063.6902020999696,,new_fruit_47.png,303,4.0,0.8785965999122709,,068,00,2025-04-17_17h02.41.623,Surprise recog test,2023.1.3,59.960845590784665,
303,0,303,0,,,,,,,,,,,,,,,,,,,,,,,,,,,,,,,,,,1066.906845800113,1067.9262182000093,1065.5872671001125,1065.5872671001125,1065.5872671001125,1065.5872671001125,,old_sceneOut_45.png,304,3.0,1.3186846999451518,,068,00,2025-04-17_17h02.41.623,Surprise recog test,2023.1.3,59.960845590784665,
304,0,304,0,,,,,,,,,,,,,,,,,,,,,,,,,,,,,,,,,,1068.9808068000712,1070.012247600127,1067.9262182000093,1067.9262182000093,1067.9262182000093,1067.9262182000093,,new_fruit_27.png,305,3.0,1.055186300072819,,068,00,2025-04-17_17h02.41.623,Surprise recog test,2023.1.3,59.960845590784665,
305,0,305,0,,,,,,,,,,,,,,,,,,,,,,,,,,,,,,,,,,1071.1101168999448,1072.117959300056,1070.012247600127,1070.012247600127,1070.012247600127,1070.012247600127,,old_fruit_10.png,306,3.0,1.0947122999932617,,068,00,2025-04-17_17h02.41.623,Surprise recog test,2023.1.3,59.960845590784665,
306,0,306,0,,,,,,,,,,,,,,,,,,,,,,,,,,,,,,,,,,1073.712270699907,1074.7198910999577,1072.117959300056,1072.117959300056,1072.117959300056,1072.117959300056,,old_stationery_21.png,307,1.0,1.5848502998705953,,068,00,2025-04-17_17h02.41.623,Surprise recog test,2023.1.3,59.960845590784665,
307,0,307,0,,,,,,,,,,,,,,,,,,,,,,,,,,,,,,,,,,1076.5553755001165,1077.578896699939,1074.7198910999577,1074.7198910999577,1074.7198910999577,1074.7198910999577,,new_sceneIn_4.png,308,4.0,1.8299934000242501,,068,00,2025-04-17_17h02.41.623,Surprise recog test,2023.1.3,59.960845590784665,
308,0,308,0,,,,,,,,,,,,,,,,,,,,,,,,,,,,,,,,,,1078.748983999947,1079.7594129999634,1077.578896699939,1077.578896699939,1077.578896699939,1077.578896699939,,old_sceneOut_26.png,309,4.0,1.170628200052306,,068,00,2025-04-17_17h02.41.623,Surprise recog test,2023.1.3,59.960845590784665,
309,0,309,0,,,,,,,,,,,,,,,,,,,,,,,,,,,,,,,,,,1080.9516855000984,1081.955554699991,1079.7594129999634,1079.7594129999634,1079.7594129999634,1079.7594129999634,,old_fruit_35.png,310,3.0,1.1871234998106956,,068,00,2025-04-17_17h02.41.623,Surprise recog test,2023.1.3,59.960845590784665,
310,0,310,0,,,,,,,,,,,,,,,,,,,,,,,,,,,,,,,,,,1083.3325428001117,1084.3517972999252,1081.955554699991,1081.955554699991,1081.955554699991,1081.955554699991,,new_stationery_6.png,311,4.0,1.3720191000029445,,068,00,2025-04-17_17h02.41.623,Surprise recog test,2023.1.3,59.960845590784665,
311,0,311,0,,,,,,,,,,,,,,,,,,,,,,,,,,,,,,,,,,1085.8688980999868,1086.8936095999088,1084.3517972999252,1084.3517972999252,1084.3517972999252,1084.3517972999252,,old_sceneOut_21.png,312,5.0,1.518329800106585,,068,00,2025-04-17_17h02.41.623,Surprise recog test,2023.1.3,59.960845590784665,
312,0,312,0,,,,,,,,,,,,,,,,,,,,,,,,,,,,,,,,,,1088.557923299959,1089.5659580999054,1086.8936095999088,1086.8936095999088,1086.8936095999088,1086.8936095999088,,new_fruit_6.png,313,4.0,1.6637742999009788,,068,00,2025-04-17_17h02.41.623,Surprise recog test,2023.1.3,59.960845590784665,
313,0,313,0,,,,,,,,,,,,,,,,,,,,,,,,,,,,,,,,,,1090.7854152999353,1091.8078397000208,1089.5659580999054,1089.5659580999054,1089.5659580999054,1089.5659580999054,,new_fruit_41.png,314,3.0,1.2138443000148982,,068,00,2025-04-17_17h02.41.623,Surprise recog test,2023.1.3,59.960845590784665,
314,0,314,0,,,,,,,,,,,,,,,,,,,,,,,,,,,,,,,,,,1092.851233900059,1093.8817187999375,1091.8078397000208,1091.8078397000208,1091.8078397000208,1091.8078397000208,,new_fruit_15.png,315,3.0,1.043588100001216,,068,00,2025-04-17_17h02.41.623,Surprise recog test,2023.1.3,59.960845590784665,
315,0,315,0,,,,,,,,,,,,,,,,,,,,,,,,,,,,,,,,,,1094.9698749000672,1096.0042165999766,1093.8817187999375,1093.8817187999375,1093.8817187999375,1093.8817187999375,,old_sceneOut_34.png,316,4.0,1.0900977000128478,,068,00,2025-04-17_17h02.41.623,Surprise recog test,2023.1.3,59.960845590784665,
316,0,316,0,,,,,,,,,,,,,,,,,,,,,,,,,,,,,,,,,,1097.3316353999544,1098.3493196999189,1096.0042165999766,1096.0042165999766,1096.0042165999766,1096.0042165999766,,new_stationery_36.png,317,4.0,1.3292246998753399,,068,00,2025-04-17_17h02.41.623,Surprise recog test,2023.1.3,59.960845590784665,
317,0,317,0,,,,,,,,,,,,,,,,,,,,,,,,,,,,,,,,,,1099.7541632000357,,1098.3493196999189,1098.3493196999189,1098.3493196999189,1098.3493196999189,,new_sceneOut_41.png,318,3.0,1.407537099905312,,068,00,2025-04-17_17h02.41.623,Surprise recog test,2023.1.3,59.960845590784665,
318,0,318,0,,,,,,,,,,,,,,,,,,,,,,,,,,,,,,,,,,1102.22542589996,1103.2495307000354,1100.7757210000418,1100.7757210000418,1100.7757210000418,1100.7757210000418,,new_fruit_39.png,319,2.0,1.4465121000539511,,068,00,2025-04-17_17h02.41.623,Surprise recog test,2023.1.3,59.960845590784665,
319,0,319,0,,,,,,,,,,,,,,,,,,,,,,,,,,,,,,,,,,1104.734195600031,1105.7526016999036,1103.2495307000354,1103.2495307000354,1103.2495307000354,1103.2495307000354,,new_sceneOut_23.png,320,3.0,1.4855894998181611,,068,00,2025-04-17_17h02.41.623,Surprise recog test,2023.1.3,59.960845590784665,
320,0,320,0,,,,,,,,,,,,,,,,,,,,,,,,,,,,,,,,,,1107.213464200031,1108.232083800016,1105.7526016999036,1105.7526016999036,1105.7526016999036,1105.7526016999036,,old_fruit_49.png,321,4.0,1.4599687999580055,,068,00,2025-04-17_17h02.41.623,Surprise recog test,2023.1.3,59.960845590784665,
321,0,321,0,,,,,,,,,,,,,,,,,,,,,,,,,,,,,,,,,,1109.5822304000612,1110.599633899983,1108.232083800016,1108.232083800016,1108.232083800016,1108.232083800016,,old_sceneIn_4.png,322,2.0,1.349110099952668,,068,00,2025-04-17_17h02.41.623,Surprise recog test,2023.1.3,59.960845590784665,
322,0,322,0,,,,,,,,,,,,,,,,,,,,,,,,,,,,,,,,,,1111.677107400028,1112.6989355001133,1110.599633899983,1110.599633899983,1110.599633899983,1110.599633899983,,old_fruit_21.png,323,2.0,1.0696169999428093,,068,00,2025-04-17_17h02.41.623,Surprise recog test,2023.1.3,59.960845590784665,
323,0,323,0,,,,,,,,,,,,,,,,,,,,,,,,,,,,,,,,,,1114.1982497000135,,1112.6989355001133,1112.6989355001133,1112.6989355001133,1112.6989355001133,,new_sceneOut_36.png,324,4.0,1.5020198000129312,,068,00,2025-04-17_17h02.41.623,Surprise recog test,2023.1.3,59.960845590784665,
324,0,324,0,,,,,,,,,,,,,,,,,,,,,,,,,,,,,,,,,,1116.1895522000268,1117.2191361000296,1115.2167706000619,1115.2167706000619,1115.2167706000619,1115.2167706000619,,new_sceneOut_16.png,325,4.0,0.9687430998310447,,068,00,2025-04-17_17h02.41.623,Surprise recog test,2023.1.3,59.960845590784665,
325,0,325,0,,,,,,,,,,,,,,,,,,,,,,,,,,,,,,,,,,1118.560291300062,1119.5875834999606,1117.2191361000296,1117.2191361000296,1117.2191361000296,1117.2191361000296,,old_fruit_8.png,326,4.0,1.3435937999747694,,068,00,2025-04-17_17h02.41.623,Surprise recog test,2023.1.3,59.960845590784665,
326,0,326,0,,,,,,,,,,,,,,,,,,,,,,,,,,,,,,,,,,1120.7007162999362,1121.720248900121,1119.5875834999606,1119.5875834999606,1119.5875834999606,1119.5875834999606,,old_sceneIn_1.png,327,4.0,1.1153977999929339,,068,00,2025-04-17_17h02.41.623,Surprise recog test,2023.1.3,59.960845590784665,
327,0,327,0,,,,,,,,,,,,,,,,,,,,,,,,,,,,,,,,,,1122.7635858000722,1123.7894365999382,1121.720248900121,1121.720248900121,1121.720248900121,1121.720248900121,,new_fruit_28.png,328,4.0,1.0449367000255734,,068,00,2025-04-17_17h02.41.623,Surprise recog test,2023.1.3,59.960845590784665,
328,0,328,0,,,,,,,,,,,,,,,,,,,,,,,,,,,,,,,,,,1124.7880394000094,1125.8019942000974,1123.7894365999382,1123.7894365999382,1123.7894365999382,1123.7894365999382,,new_sceneOut_25.png,329,4.0,0.9991317000240088,,068,00,2025-04-17_17h02.41.623,Surprise recog test,2023.1.3,59.960845590784665,
329,0,329,0,,,,,,,,,,,,,,,,,,,,,,,,,,,,,,,,,,1127.0588307001162,,1125.8019942000974,1125.8019942000974,1125.8019942000974,1125.8019942000974,,old_sceneIn_47.png,330,3.0,1.2573504999745637,,068,00,2025-04-17_17h02.41.623,Surprise recog test,2023.1.3,59.960845590784665,
330,0,330,0,,,,,,,,,,,,,,,,,,,,,,,,,,,,,,,,,,1129.1899812000338,1130.2134972999338,1128.0802500001155,1128.0802500001155,1128.0802500001155,1128.0802500001155,,old_sceneIn_10.png,331,3.0,1.1042585000395775,,068,00,2025-04-17_17h02.41.623,Surprise recog test,2023.1.3,59.960845590784665,
331,0,331,0,,,,,,,,,,,,,,,,,,,,,,,,,,,,,,,,,,1131.2810665001161,,1130.2134972999338,1130.2134972999338,1130.2134972999338,1130.2134972999338,,new_sceneOut_5.png,332,4.0,1.0702070998959243,,068,00,2025-04-17_17h02.41.623,Surprise recog test,2023.1.3,59.960845590784665,
332,0,332,0,,,,,,,,,,,,,,,,,,,,,,,,,,,,,,,,,,1133.5862374000717,1134.6105663001072,1132.3176720000338,1132.3176720000338,1132.3176720000338,1132.3176720000338,,old_sceneIn_25.png,333,3.0,1.2691984998527914,,068,00,2025-04-17_17h02.41.623,Surprise recog test,2023.1.3,59.960845590784665,
333,0,333,0,,,,,,,,,,,,,,,,,,,,,,,,,,,,,,,,,,1135.915702600032,1136.9320433000103,1134.6105663001072,1134.6105663001072,1134.6105663001072,1134.6105663001072,,old_sceneIn_20.png,334,4.0,1.307233199942857,,068,00,2025-04-17_17h02.41.623,Surprise recog test,2023.1.3,59.960845590784665,
334,0,334,0,,,,,,,,,,,,,,,,,,,,,,,,,,,,,,,,,,1138.7242022000719,1139.7523845001124,1136.9320433000103,1136.9320433000103,1136.9320433000103,1136.9320433000103,,old_sceneOut_19.png,335,2.0,1.7933017001487315,,068,00,2025-04-17_17h02.41.623,Surprise recog test,2023.1.3,59.960845590784665,
335,0,335,0,,,,,,,,,,,,,,,,,,,,,,,,,,,,,,,,,,1141.2507881000638,1142.2602027999237,1139.7523845001124,1139.7523845001124,1139.7523845001124,1139.7523845001124,,new_sceneIn_48.png,336,3.0,1.49827119987458,,068,00,2025-04-17_17h02.41.623,Surprise recog test,2023.1.3,59.960845590784665,
336,0,336,0,,,,,,,,,,,,,,,,,,,,,,,,,,,,,,,,,,1143.840889800107,,1142.2602027999237,1142.2602027999237,1142.2602027999237,1142.2602027999237,,new_sceneIn_24.png,337,4.0,1.5764999000821263,,068,00,2025-04-17_17h02.41.623,Surprise recog test,2023.1.3,59.960845590784665,
337,0,337,0,,,,,,,,,,,,,,,,,,,,,,,,,,,,,,,,,,1146.5394266999792,1147.5589992001187,1144.8656856999733,1144.8656856999733,1144.8656856999733,1144.8656856999733,,new_fruit_1.png,338,2.0,1.6725820999126881,,068,00,2025-04-17_17h02.41.623,Surprise recog test,2023.1.3,59.960845590784665,
338,0,338,0,,,,,,,,,,,,,,,,,,,,,,,,,,,,,,,,,,1148.7296211000066,1149.7624240000732,1147.5589992001187,1147.5589992001187,1147.5589992001187,1147.5589992001187,,old_sceneOut_35.png,339,4.0,1.1732533001340926,,068,00,2025-04-17_17h02.41.623,Surprise recog test,2023.1.3,59.960845590784665,
339,0,339,0,,,,,,,,,,,,,,,,,,,,,,,,,,,,,,,,,,1150.8688344999682,1151.8967422000133,1149.7624240000732,1149.7624240000732,1149.7624240000732,1149.7624240000732,,new_sceneOut_14.png,340,4.0,1.108060299884528,,068,00,2025-04-17_17h02.41.623,Surprise recog test,2023.1.3,59.960845590784665,
340,0,340,0,,,,,,,,,,,,,,,,,,,,,,,,,,,,,,,,,,1153.8450690000318,1154.863614199916,1151.8967422000133,1151.8967422000133,1151.8967422000133,1151.8967422000133,,new_fruit_10.png,341,2.0,1.9505153999198228,,068,00,2025-04-17_17h02.41.623,Surprise recog test,2023.1.3,59.960845590784665,
341,0,341,0,,,,,,,,,,,,,,,,,,,,,,,,,,,,,,,,,,1156.2821746000554,1157.3011010999326,1154.863614199916,1154.863614199916,1154.863614199916,1154.863614199916,,old_sceneOut_47.png,342,4.0,1.418965300079435,,068,00,2025-04-17_17h02.41.623,Surprise recog test,2023.1.3,59.960845590784665,
342,0,342,0,,,,,,,,,,,,,,,,,,,,,,,,,,,,,,,,,,1159.1762413000688,1160.1916712000966,1157.3011010999326,1157.3011010999326,1157.3011010999326,1157.3011010999326,,new_stationery_44.png,343,4.0,1.8778134000021964,,068,00,2025-04-17_17h02.41.623,Surprise recog test,2023.1.3,59.960845590784665,
343,0,343,0,,,,,,,,,,,,,,,,,,,,,,,,,,,,,,,,,,1161.9188246000558,1162.932397400029,1160.1916712000966,1160.1916712000966,1160.1916712000966,1160.1916712000966,,old_stationery_39.png,344,2.0,1.7224519001320004,,068,00,2025-04-17_17h02.41.623,Surprise recog test,2023.1.3,59.960845590784665,
344,0,344,0,,,,,,,,,,,,,,,,,,,,,,,,,,,,,,,,,,1164.0423699999228,1165.0714781999122,1162.932397400029,1162.932397400029,1162.932397400029,1162.932397400029,,old_sceneOut_22.png,345,3.0,1.1075877998955548,,068,00,2025-04-17_17h02.41.623,Surprise recog test,2023.1.3,59.960845590784665,
345,0,345,0,,,,,,,,,,,,,,,,,,,,,,,,,,,,,,,,,,1166.4416867000982,,1165.0714781999122,1165.0714781999122,1165.0714781999122,1165.0714781999122,,new_fruit_5.png,346,4.0,1.3702167000155896,,068,00,2025-04-17_17h02.41.623,Surprise recog test,2023.1.3,59.960845590784665,
346,0,346,0,,,,,,,,,,,,,,,,,,,,,,,,,,,,,,,,,,1169.0820430999156,1170.1095672000665,1167.4699655000586,1167.4699655000586,1167.4699655000586,1167.4699655000586,,old_sceneIn_21.png,347,4.0,1.6124289000872523,,068,00,2025-04-17_17h02.41.623,Surprise recog test,2023.1.3,59.960845590784665,
347,0,347,0,,,,,,,,,,,,,,,,,,,,,,,,,,,,,,,,,,1171.3195086000487,1172.352675900096,1170.1095672000665,1170.1095672000665,1170.1095672000665,1170.1095672000665,,old_fruit_18.png,348,2.0,1.211079299915582,,068,00,2025-04-17_17h02.41.623,Surprise recog test,2023.1.3,59.960845590784665,
348,0,348,0,,,,,,,,,,,,,,,,,,,,,,,,,,,,,,,,,,1173.7658333000727,,1172.352675900096,1172.352675900096,1172.352675900096,1172.352675900096,,old_sceneOut_24.png,349,3.0,1.4195493999868631,,068,00,2025-04-17_17h02.41.623,Surprise recog test,2023.1.3,59.960845590784665,
349,0,349,0,,,,,,,,,,,,,,,,,,,,,,,,,,,,,,,,,,1175.6238726999145,1176.6449222001247,1174.7929599999916,1174.7929599999916,1174.7929599999916,1174.7929599999916,,new_sceneOut_3.png,350,3.0,0.8304447999689728,,068,00,2025-04-17_17h02.41.623,Surprise recog test,2023.1.3,59.960845590784665,
350,0,350,0,,,,,,,,,,,,,,,,,,,,,,,,,,,,,,,,,,1178.1673196000047,1179.180508499965,1176.6449222001247,1176.6449222001247,1176.6449222001247,1176.6449222001247,,new_stationery_24.png,351,3.0,1.5212103999219835,,068,00,2025-04-17_17h02.41.623,Surprise recog test,2023.1.3,59.960845590784665,
351,0,351,0,,,,,,,,,,,,,,,,,,,,,,,,,,,,,,,,,,1180.423451700015,1181.4582875000779,1179.180508499965,1179.180508499965,1179.180508499965,1179.180508499965,,new_sceneIn_38.png,352,4.0,1.2433563000522554,,068,00,2025-04-17_17h02.41.623,Surprise recog test,2023.1.3,59.960845590784665,
