trial_loop.thisRepN,trial_loop.thisTrialN,trial_loop.thisN,trial_loop.thisIndex,VAS_slider.started,VAS_text.started,VAS_notstressed_text.started,VAS_stressed_text.started,continue_input.started,continue_text.started,label0.started,label10.started,label20.started,label30.started,label40.started,label50.started,label60.started,label70.started,label80.started,label90.started,label100.started,VAS_slider.response,VAS_slider.rt,VAS_slider.history,Answer_VAS,continue_input.keys,instruction_text.started,continue_text_2.started,continue_input_2.started,continue_input_2.keys,continue_input_2.rt,continue_input_2.duration,example_text.started,example_slider_2.started,example_image.started,example_slider_2.response,example_slider_2.rt,fixcross.started,fixcross.stopped,front_square.started,stim_images.started,trial_inst_images.started,slider_images.started,thisImg,trial_count,slider_images.response,slider_images.rt,outro.started,participant,condition,date,expName,psychopyVersion,frameRate,
,,,,192.36670589999994,192.36670589999994,192.36670589999994,192.36670589999994,192.36670589999994,192.36670589999994,192.36670589999994,192.36670589999994,192.36670589999994,192.36670589999994,192.36670589999994,192.36670589999994,192.36670589999994,192.36670589999994,192.36670589999994,192.36670589999994,192.36670589999994,1.9944444444444442,6.680626000044867,"[(1.9944444444444442, 6.680626000044867)]",1.9944444444444442,None,,,,,,,,,,,,,,,,,,,,,,,069,00,2025-04-08_16h31.33.076,Surprise recog test,2023.1.3,59.936120085223756,
,,,,,,,,,,,,,,,,,,,,,,,,,,199.07492409995757,199.07492409995757,199.07492409995757,space,37.30239070003154,None,,,,,,,,,,,,,,,,,069,00,2025-04-08_16h31.33.076,Surprise recog test,2023.1.3,59.936120085223756,
0,0,0,0,,,,,,,,,,,,,,,,,,,,,,,,,,,,,236.51523289998295,236.51523289998295,236.51523289998295,4.0,5.829834400035907,245.98171879997244,246.99960019998252,243.31508349999785,243.31508349999785,243.31508349999785,243.31508349999785,old_sceneIn_14.png,1,2.0,2.663686999992933,,069,00,2025-04-08_16h31.33.076,Surprise recog test,2023.1.3,59.936120085223756,
1,0,1,0,,,,,,,,,,,,,,,,,,,,,,,,,,,,,,,,,,249.51151129999198,250.5381364999921,246.99960019998252,246.99960019998252,246.99960019998252,246.99960019998252,new_fruit_43.png,2,5.0,2.514270799991209,,069,00,2025-04-08_16h31.33.076,Surprise recog test,2023.1.3,59.936120085223756,
2,0,2,0,,,,,,,,,,,,,,,,,,,,,,,,,,,,,,,,,,252.66755809995811,253.683501099993,250.5381364999921,250.5381364999921,250.5381364999921,250.5381364999921,new_sceneIn_38.png,3,4.0,2.1316407999838702,,069,00,2025-04-08_16h31.33.076,Surprise recog test,2023.1.3,59.936120085223756,
3,0,3,0,,,,,,,,,,,,,,,,,,,,,,,,,,,,,,,,,,256.38261929998407,257.3961396999657,253.683501099993,253.683501099993,253.683501099993,253.683501099993,old_sceneIn_30.png,4,3.0,2.6972976999823004,,069,00,2025-04-08_16h31.33.076,Surprise recog test,2023.1.3,59.936120085223756,
4,0,4,0,,,,,,,,,,,,,,,,,,,,,,,,,,,,,,,,,,259.67857019999065,,257.3961396999657,257.3961396999657,257.3961396999657,257.3961396999657,old_fruit_43.png,5,1.0,2.2785695999627933,,069,00,2025-04-08_16h31.33.076,Surprise recog test,2023.1.3,59.936120085223756,
5,0,5,0,,,,,,,,,,,,,,,,,,,,,,,,,,,,,,,,,,262.67890090000583,263.6974050999852,260.70166769996285,260.70166769996285,260.70166769996285,260.70166769996285,new_sceneOut_27.png,6,1.0,1.969460499996785,,069,00,2025-04-08_16h31.33.076,Surprise recog test,2023.1.3,59.936120085223756,
6,0,6,0,,,,,,,,,,,,,,,,,,,,,,,,,,,,,,,,,,265.5941030999529,266.6126706000068,263.6974050999852,263.6974050999852,263.6974050999852,263.6974050999852,old_fruit_10.png,7,2.0,1.8978413000004366,,069,00,2025-04-08_16h31.33.076,Surprise recog test,2023.1.3,59.936120085223756,
7,0,7,0,,,,,,,,,,,,,,,,,,,,,,,,,,,,,,,,,,268.4972383999848,269.52410689997487,266.6126706000068,266.6126706000068,266.6126706000068,266.6126706000068,new_sceneOut_48.png,8,3.0,1.8855095999897458,,069,00,2025-04-08_16h31.33.076,Surprise recog test,2023.1.3,59.936120085223756,
8,0,8,0,,,,,,,,,,,,,,,,,,,,,,,,,,,,,,,,,,271.4604451999767,272.4833387999679,269.52410689997487,269.52410689997487,269.52410689997487,269.52410689997487,old_sceneOut_25.png,9,4.0,1.93769589997828,,069,00,2025-04-08_16h31.33.076,Surprise recog test,2023.1.3,59.936120085223756,
9,0,9,0,,,,,,,,,,,,,,,,,,,,,,,,,,,,,,,,,,274.82356509997044,275.848463399976,272.4833387999679,272.4833387999679,272.4833387999679,272.4833387999679,new_stationery_19.png,10,2.0,2.3408245000173338,,069,00,2025-04-08_16h31.33.076,Surprise recog test,2023.1.3,59.936120085223756,
10,0,10,0,,,,,,,,,,,,,,,,,,,,,,,,,,,,,,,,,,278.34214419999626,279.363282300008,275.848463399976,275.848463399976,275.848463399976,275.848463399976,new_fruit_10.png,11,3.0,2.4969480999861844,,069,00,2025-04-08_16h31.33.076,Surprise recog test,2023.1.3,59.936120085223756,
11,0,11,0,,,,,,,,,,,,,,,,,,,,,,,,,,,,,,,,,,280.97257929999614,281.9829268999747,279.363282300008,279.363282300008,279.363282300008,279.363282300008,old_sceneOut_5.png,12,2.0,1.6110627999878488,,069,00,2025-04-08_16h31.33.076,Surprise recog test,2023.1.3,59.936120085223756,
12,0,12,0,,,,,,,,,,,,,,,,,,,,,,,,,,,,,,,,,,284.71273400000064,285.7318644999759,281.9829268999747,281.9829268999747,281.9829268999747,281.9829268999747,new_fruit_47.png,13,4.0,2.724530200008303,,069,00,2025-04-08_16h31.33.076,Surprise recog test,2023.1.3,59.936120085223756,
13,0,13,0,,,,,,,,,,,,,,,,,,,,,,,,,,,,,,,,,,288.0535775999888,,285.7318644999759,285.7318644999759,285.7318644999759,285.7318644999759,old_stationery_48.png,14,2.0,2.3216271999990568,,069,00,2025-04-08_16h31.33.076,Surprise recog test,2023.1.3,59.936120085223756,
14,0,14,0,,,,,,,,,,,,,,,,,,,,,,,,,,,,,,,,,,290.90246879996266,291.91895799996564,289.089536399988,289.089536399988,289.089536399988,289.089536399988,old_stationery_3.png,15,1.0,1.810380199982319,,069,00,2025-04-08_16h31.33.076,Surprise recog test,2023.1.3,59.936120085223756,
15,0,15,0,,,,,,,,,,,,,,,,,,,,,,,,,,,,,,,,,,293.9048346999916,294.92285360000096,291.91895799996564,291.91895799996564,291.91895799996564,291.91895799996564,new_stationery_9.png,16,4.0,1.984203800035175,,069,00,2025-04-08_16h31.33.076,Surprise recog test,2023.1.3,59.936120085223756,
16,0,16,0,,,,,,,,,,,,,,,,,,,,,,,,,,,,,,,,,,296.4686324999784,297.4833545999718,294.92285360000096,294.92285360000096,294.92285360000096,294.92285360000096,new_stationery_22.png,17,3.0,1.5468281999928877,,069,00,2025-04-08_16h31.33.076,Surprise recog test,2023.1.3,59.936120085223756,
17,0,17,0,,,,,,,,,,,,,,,,,,,,,,,,,,,,,,,,,,299.1609779999708,,297.4833545999718,297.4833545999718,297.4833545999718,297.4833545999718,old_sceneIn_32.png,18,5.0,1.6725624999962747,,069,00,2025-04-08_16h31.33.076,Surprise recog test,2023.1.3,59.936120085223756,
18,0,18,0,,,,,,,,,,,,,,,,,,,,,,,,,,,,,,,,,,301.8877686999622,302.90367219998734,300.1893751999596,300.1893751999596,300.1893751999596,300.1893751999596,old_stationery_41.png,19,4.0,1.698983500013128,,069,00,2025-04-08_16h31.33.076,Surprise recog test,2023.1.3,59.936120085223756,
19,0,19,0,,,,,,,,,,,,,,,,,,,,,,,,,,,,,,,,,,304.39696729998104,305.41715160000604,302.90367219998734,302.90367219998734,302.90367219998734,302.90367219998734,old_sceneIn_6.png,20,5.0,1.4831513999961317,,069,00,2025-04-08_16h31.33.076,Surprise recog test,2023.1.3,59.936120085223756,
20,0,20,0,,,,,,,,,,,,,,,,,,,,,,,,,,,,,,,,,,307.3025708000059,,305.41715160000604,305.41715160000604,305.41715160000604,305.41715160000604,old_sceneIn_1.png,21,2.0,1.883683199994266,,069,00,2025-04-08_16h31.33.076,Surprise recog test,2023.1.3,59.936120085223756,
21,0,21,0,,,,,,,,,,,,,,,,,,,,,,,,,,,,,,,,,,309.9477776999702,310.95897519995924,308.33459069998935,308.33459069998935,308.33459069998935,308.33459069998935,old_sceneIn_37.png,22,3.0,1.6148951000068337,,069,00,2025-04-08_16h31.33.076,Surprise recog test,2023.1.3,59.936120085223756,
22,0,22,0,,,,,,,,,,,,,,,,,,,,,,,,,,,,,,,,,,312.57187220000196,313.5791723000002,310.95897519995924,310.95897519995924,310.95897519995924,310.95897519995924,new_sceneOut_13.png,23,4.0,1.606349500012584,,069,00,2025-04-08_16h31.33.076,Surprise recog test,2023.1.3,59.936120085223756,
23,0,23,0,,,,,,,,,,,,,,,,,,,,,,,,,,,,,,,,,,314.9082527999999,,313.5791723000002,313.5791723000002,313.5791723000002,313.5791723000002,old_sceneOut_9.png,24,4.0,1.3243462999816984,,069,00,2025-04-08_16h31.33.076,Surprise recog test,2023.1.3,59.936120085223756,
24,0,24,0,,,,,,,,,,,,,,,,,,,,,,,,,,,,,,,,,,318.22340199997416,319.2400997999939,315.9263457999914,315.9263457999914,315.9263457999914,315.9263457999914,new_sceneIn_48.png,25,4.0,2.2909238999709487,,069,00,2025-04-08_16h31.33.076,Surprise recog test,2023.1.3,59.936120085223756,
25,0,25,0,,,,,,,,,,,,,,,,,,,,,,,,,,,,,,,,,,321.5694400999928,322.5863304999657,319.2400997999939,319.2400997999939,319.2400997999939,319.2400997999939,old_stationery_15.png,26,4.0,2.3292717000003904,,069,00,2025-04-08_16h31.33.076,Surprise recog test,2023.1.3,59.936120085223756,
26,0,26,0,,,,,,,,,,,,,,,,,,,,,,,,,,,,,,,,,,325.15094649995444,,322.5863304999657,322.5863304999657,322.5863304999657,322.5863304999657,new_sceneIn_39.png,27,5.0,2.560718699998688,,069,00,2025-04-08_16h31.33.076,Surprise recog test,2023.1.3,59.936120085223756,
27,0,27,0,,,,,,,,,,,,,,,,,,,,,,,,,,,,,,,,,,328.24666020000586,329.2577503999928,326.17186449997826,326.17186449997826,326.17186449997826,326.17186449997826,old_sceneOut_18.png,28,3.0,2.06858869997086,,069,00,2025-04-08_16h31.33.076,Surprise recog test,2023.1.3,59.936120085223756,
28,0,28,0,,,,,,,,,,,,,,,,,,,,,,,,,,,,,,,,,,330.9606720999582,331.9898324999958,329.2577503999928,329.2577503999928,329.2577503999928,329.2577503999928,old_sceneIn_33.png,29,4.0,1.699136700015515,,069,00,2025-04-08_16h31.33.076,Surprise recog test,2023.1.3,59.936120085223756,
29,0,29,0,,,,,,,,,,,,,,,,,,,,,,,,,,,,,,,,,,333.3681387999677,334.3786689999979,331.9898324999958,331.9898324999958,331.9898324999958,331.9898324999958,old_fruit_35.png,30,2.0,1.38057460001437,,069,00,2025-04-08_16h31.33.076,Surprise recog test,2023.1.3,59.936120085223756,
30,0,30,0,,,,,,,,,,,,,,,,,,,,,,,,,,,,,,,,,,336.5384008999681,337.55811419995734,334.3786689999979,334.3786689999979,334.3786689999979,334.3786689999979,new_fruit_25.png,31,1.0,2.153658399998676,,069,00,2025-04-08_16h31.33.076,Surprise recog test,2023.1.3,59.936120085223756,
31,0,31,0,,,,,,,,,,,,,,,,,,,,,,,,,,,,,,,,,,340.4286585999653,,337.55811419995734,337.55811419995734,337.55811419995734,337.55811419995734,new_stationery_50.png,32,3.0,2.8713237999472767,,069,00,2025-04-08_16h31.33.076,Surprise recog test,2023.1.3,59.936120085223756,
32,0,32,0,,,,,,,,,,,,,,,,,,,,,,,,,,,,,,,,,,342.9208483999828,343.9473814999801,341.4578078999766,341.4578078999766,341.4578078999766,341.4578078999766,new_fruit_33.png,33,2.0,1.4623928999644704,,069,00,2025-04-08_16h31.33.076,Surprise recog test,2023.1.3,59.936120085223756,
33,0,33,0,,,,,,,,,,,,,,,,,,,,,,,,,,,,,,,,,,346.86802669998724,,343.9473814999801,343.9473814999801,343.9473814999801,343.9473814999801,old_stationery_12.png,34,2.0,2.9197933999821544,,069,00,2025-04-08_16h31.33.076,Surprise recog test,2023.1.3,59.936120085223756,
34,0,34,0,,,,,,,,,,,,,,,,,,,,,,,,,,,,,,,,,,349.7080572999548,350.7383073999663,347.88988649996463,347.88988649996463,347.88988649996463,347.88988649996463,new_sceneIn_20.png,35,2.0,1.8142999000265263,,069,00,2025-04-08_16h31.33.076,Surprise recog test,2023.1.3,59.936120085223756,
35,0,35,0,,,,,,,,,,,,,,,,,,,,,,,,,,,,,,,,,,353.60683239996433,,350.7383073999663,350.7383073999663,350.7383073999663,350.7383073999663,new_stationery_24.png,36,3.0,2.8709342000074685,,069,00,2025-04-08_16h31.33.076,Surprise recog test,2023.1.3,59.936120085223756,
36,0,36,0,,,,,,,,,,,,,,,,,,,,,,,,,,,,,,,,,,356.7966659999802,357.8250670999987,354.6297845999943,354.6297845999943,354.6297845999943,354.6297845999943,new_sceneIn_4.png,37,4.0,2.159879999991972,,069,00,2025-04-08_16h31.33.076,Surprise recog test,2023.1.3,59.936120085223756,
37,0,37,0,,,,,,,,,,,,,,,,,,,,,,,,,,,,,,,,,,359.2821091999649,360.3051798999659,357.8250670999987,357.8250670999987,357.8250670999987,357.8250670999987,old_sceneOut_41.png,38,4.0,1.4577006999752484,,069,00,2025-04-08_16h31.33.076,Surprise recog test,2023.1.3,59.936120085223756,
38,0,38,0,,,,,,,,,,,,,,,,,,,,,,,,,,,,,,,,,,362.37010299996473,363.38789579999866,360.3051798999659,360.3051798999659,360.3051798999659,360.3051798999659,new_sceneIn_28.png,39,3.0,2.064702000003308,,069,00,2025-04-08_16h31.33.076,Surprise recog test,2023.1.3,59.936120085223756,
39,0,39,0,,,,,,,,,,,,,,,,,,,,,,,,,,,,,,,,,,365.6009034999879,,363.38789579999866,363.38789579999866,363.38789579999866,363.38789579999866,old_stationery_43.png,40,2.0,2.210104300000239,,069,00,2025-04-08_16h31.33.076,Surprise recog test,2023.1.3,59.936120085223756,
40,0,40,0,,,,,,,,,,,,,,,,,,,,,,,,,,,,,,,,,,368.38528170000063,369.402563199983,366.6286855000071,366.6286855000071,366.6286855000071,366.6286855000071,new_stationery_20.png,41,4.0,1.7557536999811418,,069,00,2025-04-08_16h31.33.076,Surprise recog test,2023.1.3,59.936120085223756,
41,0,41,0,,,,,,,,,,,,,,,,,,,,,,,,,,,,,,,,,,371.4500774999615,372.45695530000376,369.402563199983,369.402563199983,369.402563199983,369.402563199983,old_sceneOut_39.png,42,2.0,2.047207299969159,,069,00,2025-04-08_16h31.33.076,Surprise recog test,2023.1.3,59.936120085223756,
42,0,42,0,,,,,,,,,,,,,,,,,,,,,,,,,,,,,,,,,,374.29298470000504,375.3166031999863,372.45695530000376,372.45695530000376,372.45695530000376,372.45695530000376,new_fruit_30.png,43,1.0,1.8312070000101812,,069,00,2025-04-08_16h31.33.076,Surprise recog test,2023.1.3,59.936120085223756,
43,0,43,0,,,,,,,,,,,,,,,,,,,,,,,,,,,,,,,,,,376.98272679996444,378.00970979995327,375.3166031999863,375.3166031999863,375.3166031999863,375.3166031999863,old_fruit_41.png,44,1.0,1.6661810000077821,,069,00,2025-04-08_16h31.33.076,Surprise recog test,2023.1.3,59.936120085223756,
44,0,44,0,,,,,,,,,,,,,,,,,,,,,,,,,,,,,,,,,,379.7525934999576,380.77368129999377,378.00970979995327,378.00970979995327,378.00970979995327,378.00970979995327,new_stationery_23.png,45,2.0,1.7451956999721006,,069,00,2025-04-08_16h31.33.076,Surprise recog test,2023.1.3,59.936120085223756,
45,0,45,0,,,,,,,,,,,,,,,,,,,,,,,,,,,,,,,,,,383.31565559998853,,380.77368129999377,380.77368129999377,380.77368129999377,380.77368129999377,new_fruit_40.png,46,4.0,2.5429799999692477,,069,00,2025-04-08_16h31.33.076,Surprise recog test,2023.1.3,59.936120085223756,
46,0,46,0,,,,,,,,,,,,,,,,,,,,,,,,,,,,,,,,,,386.0938030999969,387.1125353999669,384.34179779997794,384.34179779997794,384.34179779997794,384.34179779997794,old_stationery_20.png,47,2.0,1.7525571000296623,,069,00,2025-04-08_16h31.33.076,Surprise recog test,2023.1.3,59.936120085223756,
47,0,47,0,,,,,,,,,,,,,,,,,,,,,,,,,,,,,,,,,,389.13182329997653,390.1527928999858,387.1125353999669,387.1125353999669,387.1125353999669,387.1125353999669,new_fruit_38.png,48,4.0,2.020725499955006,,069,00,2025-04-08_16h31.33.076,Surprise recog test,2023.1.3,59.936120085223756,
48,0,48,0,,,,,,,,,,,,,,,,,,,,,,,,,,,,,,,,,,392.6036371999653,393.60823049995815,390.1527928999858,390.1527928999858,390.1527928999858,390.1527928999858,new_sceneIn_42.png,49,3.0,2.4452368000056595,,069,00,2025-04-08_16h31.33.076,Surprise recog test,2023.1.3,59.936120085223756,
49,0,49,0,,,,,,,,,,,,,,,,,,,,,,,,,,,,,,,,,,395.62873719999334,396.6537177999853,393.60823049995815,393.60823049995815,393.60823049995815,393.60823049995815,new_fruit_36.png,50,4.0,2.0159351999755017,,069,00,2025-04-08_16h31.33.076,Surprise recog test,2023.1.3,59.936120085223756,
50,0,50,0,,,,,,,,,,,,,,,,,,,,,,,,,,,,,,,,,,399.6204729999881,400.6337281999877,396.6537177999853,396.6537177999853,396.6537177999853,396.6537177999853,old_fruit_9.png,51,4.0,2.9672903000027873,,069,00,2025-04-08_16h31.33.076,Surprise recog test,2023.1.3,59.936120085223756,
51,0,51,0,,,,,,,,,,,,,,,,,,,,,,,,,,,,,,,,,,402.304120899993,403.3316594999633,400.6337281999877,400.6337281999877,400.6337281999877,400.6337281999877,old_sceneIn_29.png,52,5.0,1.6654700000071898,,069,00,2025-04-08_16h31.33.076,Surprise recog test,2023.1.3,59.936120085223756,
52,0,52,0,,,,,,,,,,,,,,,,,,,,,,,,,,,,,,,,,,405.7149484999827,406.72282139997697,403.3316594999633,403.3316594999633,403.3316594999633,403.3316594999633,new_sceneOut_39.png,53,3.0,2.38543560000835,,069,00,2025-04-08_16h31.33.076,Surprise recog test,2023.1.3,59.936120085223756,
53,0,53,0,,,,,,,,,,,,,,,,,,,,,,,,,,,,,,,,,,409.0170414999593,410.0393183999695,406.72282139997697,406.72282139997697,406.72282139997697,406.72282139997697,old_fruit_42.png,54,5.0,2.286658900033217,,069,00,2025-04-08_16h31.33.076,Surprise recog test,2023.1.3,59.936120085223756,
54,0,54,0,,,,,,,,,,,,,,,,,,,,,,,,,,,,,,,,,,412.02982759999577,413.05764359998284,410.0393183999695,410.0393183999695,410.0393183999695,410.0393183999695,new_sceneOut_31.png,55,3.0,1.9933026999933645,,069,00,2025-04-08_16h31.33.076,Surprise recog test,2023.1.3,59.936120085223756,
55,0,55,0,,,,,,,,,,,,,,,,,,,,,,,,,,,,,,,,,,414.61073109996505,415.64153199997963,413.05764359998284,413.05764359998284,413.05764359998284,413.05764359998284,old_sceneIn_26.png,56,4.0,1.5553339999751188,,069,00,2025-04-08_16h31.33.076,Surprise recog test,2023.1.3,59.936120085223756,
56,0,56,0,,,,,,,,,,,,,,,,,,,,,,,,,,,,,,,,,,417.46052439999767,,415.64153199997963,415.64153199997963,415.64153199997963,415.64153199997963,new_sceneIn_19.png,57,1.0,1.8205071000265889,,069,00,2025-04-08_16h31.33.076,Surprise recog test,2023.1.3,59.936120085223756,
57,0,57,0,,,,,,,,,,,,,,,,,,,,,,,,,,,,,,,,,,420.352320499951,421.38022509997245,418.4908997999737,418.4908997999737,418.4908997999737,418.4908997999737,new_stationery_5.png,58,3.0,1.8606571999844164,,069,00,2025-04-08_16h31.33.076,Surprise recog test,2023.1.3,59.936120085223756,
58,0,58,0,,,,,,,,,,,,,,,,,,,,,,,,,,,,,,,,,,423.56702289998066,,421.38022509997245,421.38022509997245,421.38022509997245,421.38022509997245,new_sceneIn_44.png,59,4.0,2.187095000001136,,069,00,2025-04-08_16h31.33.076,Surprise recog test,2023.1.3,59.936120085223756,
59,0,59,0,,,,,,,,,,,,,,,,,,,,,,,,,,,,,,,,,,426.37863569997717,427.40676849999,424.5920826999936,424.5920826999936,424.5920826999936,424.5920826999936,old_stationery_19.png,60,1.0,1.7863155000377446,,069,00,2025-04-08_16h31.33.076,Surprise recog test,2023.1.3,59.936120085223756,
60,0,60,0,,,,,,,,,,,,,,,,,,,,,,,,,,,,,,,,,,429.4452775999671,430.465509200003,427.40676849999,427.40676849999,427.40676849999,427.40676849999,old_sceneOut_43.png,61,1.0,2.0438076000427827,,069,00,2025-04-08_16h31.33.076,Surprise recog test,2023.1.3,59.936120085223756,
61,0,61,0,,,,,,,,,,,,,,,,,,,,,,,,,,,,,,,,,,433.72324500000104,,430.465509200003,430.465509200003,430.465509200003,430.465509200003,old_stationery_37.png,62,1.0,3.2593656000099145,,069,00,2025-04-08_16h31.33.076,Surprise recog test,2023.1.3,59.936120085223756,
62,0,62,0,,,,,,,,,,,,,,,,,,,,,,,,,,,,,,,,,,436.465423799993,437.48648169997614,434.7548058999819,434.7548058999819,434.7548058999819,434.7548058999819,new_sceneOut_43.png,63,2.0,1.7111890000524,,069,00,2025-04-08_16h31.33.076,Surprise recog test,2023.1.3,59.936120085223756,
63,0,63,0,,,,,,,,,,,,,,,,,,,,,,,,,,,,,,,,,,439.2490428999881,440.26756690000184,437.48648169997614,437.48648169997614,437.48648169997614,437.48648169997614,old_sceneIn_3.png,64,4.0,1.762515100010205,,069,00,2025-04-08_16h31.33.076,Surprise recog test,2023.1.3,59.936120085223756,
64,0,64,0,,,,,,,,,,,,,,,,,,,,,,,,,,,,,,,,,,442.22790649998933,443.23549150000326,440.26756690000184,440.26756690000184,440.26756690000184,440.26756690000184,new_sceneOut_49.png,65,3.0,1.952792500029318,,069,00,2025-04-08_16h31.33.076,Surprise recog test,2023.1.3,59.936120085223756,
65,0,65,0,,,,,,,,,,,,,,,,,,,,,,,,,,,,,,,,,,445.26983069995185,446.2927102999529,443.23549150000326,443.23549150000326,443.23549150000326,443.23549150000326,new_fruit_45.png,66,3.0,2.0298572000465356,,069,00,2025-04-08_16h31.33.076,Surprise recog test,2023.1.3,59.936120085223756,
66,0,66,0,,,,,,,,,,,,,,,,,,,,,,,,,,,,,,,,,,447.5851025999873,,446.2927102999529,446.2927102999529,446.2927102999529,446.2927102999529,old_fruit_26.png,67,2.0,1.2901308999862522,,069,00,2025-04-08_16h31.33.076,Surprise recog test,2023.1.3,59.936120085223756,
67,0,67,0,,,,,,,,,,,,,,,,,,,,,,,,,,,,,,,,,,450.41892540000845,451.4303172999644,448.61327209998854,448.61327209998854,448.61327209998854,448.61327209998854,new_sceneIn_33.png,68,4.0,1.803970200009644,,069,00,2025-04-08_16h31.33.076,Surprise recog test,2023.1.3,59.936120085223756,
68,0,68,0,,,,,,,,,,,,,,,,,,,,,,,,,,,,,,,,,,452.7311771999812,453.76025659998413,451.4303172999644,451.4303172999644,451.4303172999644,451.4303172999644,old_fruit_1.png,69,4.0,1.3013877000194043,,069,00,2025-04-08_16h31.33.076,Surprise recog test,2023.1.3,59.936120085223756,
69,0,69,0,,,,,,,,,,,,,,,,,,,,,,,,,,,,,,,,,,455.3889171999763,456.4104863999528,453.76025659998413,453.76025659998413,453.76025659998413,453.76025659998413,old_sceneOut_17.png,70,5.0,1.6298881000257097,,069,00,2025-04-08_16h31.33.076,Surprise recog test,2023.1.3,59.936120085223756,
70,0,70,0,,,,,,,,,,,,,,,,,,,,,,,,,,,,,,,,,,458.21167190000415,,456.4104863999528,456.4104863999528,456.4104863999528,456.4104863999528,new_fruit_14.png,71,3.0,1.8047170999925584,,069,00,2025-04-08_16h31.33.076,Surprise recog test,2023.1.3,59.936120085223756,
71,0,71,0,,,,,,,,,,,,,,,,,,,,,,,,,,,,,,,,,,461.076952399977,462.09652289998485,459.2454768999596,459.2454768999596,459.2454768999596,459.2454768999596,old_sceneOut_7.png,72,2.0,1.8322599999955855,,069,00,2025-04-08_16h31.33.076,Surprise recog test,2023.1.3,59.936120085223756,
72,0,72,0,,,,,,,,,,,,,,,,,,,,,,,,,,,,,,,,,,463.9582981999847,464.98590629996033,462.09652289998485,462.09652289998485,462.09652289998485,462.09652289998485,new_stationery_14.png,73,4.0,1.8636330000008456,,069,00,2025-04-08_16h31.33.076,Surprise recog test,2023.1.3,59.936120085223756,
73,0,73,0,,,,,,,,,,,,,,,,,,,,,,,,,,,,,,,,,,466.56149649998406,467.5854277999606,464.98590629996033,464.98590629996033,464.98590629996033,464.98590629996033,new_sceneOut_17.png,74,4.0,1.5783611999941058,,069,00,2025-04-08_16h31.33.076,Surprise recog test,2023.1.3,59.936120085223756,
74,0,74,0,,,,,,,,,,,,,,,,,,,,,,,,,,,,,,,,,,469.6771804000018,470.69831309997244,467.5854277999606,467.5854277999606,467.5854277999606,467.5854277999606,new_fruit_7.png,75,2.0,2.094464199966751,,069,00,2025-04-08_16h31.33.076,Surprise recog test,2023.1.3,59.936120085223756,
75,0,75,0,,,,,,,,,,,,,,,,,,,,,,,,,,,,,,,,,,472.13545780000277,473.15234639996197,470.69831309997244,470.69831309997244,470.69831309997244,470.69831309997244,new_fruit_35.png,76,2.0,1.437397499976214,,069,00,2025-04-08_16h31.33.076,Surprise recog test,2023.1.3,59.936120085223756,
76,0,76,0,,,,,,,,,,,,,,,,,,,,,,,,,,,,,,,,,,474.63055239996174,475.66010069998447,473.15234639996197,473.15234639996197,473.15234639996197,473.15234639996197,new_sceneIn_45.png,77,5.0,1.4798494999995455,,069,00,2025-04-08_16h31.33.076,Surprise recog test,2023.1.3,59.936120085223756,
77,0,77,0,,,,,,,,,,,,,,,,,,,,,,,,,,,,,,,,,,477.495752799965,478.5276376999682,475.66010069998447,475.66010069998447,475.66010069998447,475.66010069998447,new_fruit_41.png,78,4.0,1.8379241999937221,,069,00,2025-04-08_16h31.33.076,Surprise recog test,2023.1.3,59.936120085223756,
78,0,78,0,,,,,,,,,,,,,,,,,,,,,,,,,,,,,,,,,,480.25061609997647,481.27107339998474,478.5276376999682,478.5276376999682,478.5276376999682,478.5276376999682,new_fruit_11.png,79,4.0,1.7224367000162601,,069,00,2025-04-08_16h31.33.076,Surprise recog test,2023.1.3,59.936120085223756,
79,0,79,0,,,,,,,,,,,,,,,,,,,,,,,,,,,,,,,,,,482.99340539996047,484.0109437999781,481.27107339998474,481.27107339998474,481.27107339998474,481.27107339998474,new_stationery_26.png,80,3.0,1.7220762000069954,,069,00,2025-04-08_16h31.33.076,Surprise recog test,2023.1.3,59.936120085223756,
80,0,80,0,,,,,,,,,,,,,,,,,,,,,,,,,,,,,,,,,,486.9379754999536,487.9581514999736,484.0109437999781,484.0109437999781,484.0109437999781,484.0109437999781,new_stationery_1.png,81,4.0,2.9262941000051796,,069,00,2025-04-08_16h31.33.076,Surprise recog test,2023.1.3,59.936120085223756,
81,0,81,0,,,,,,,,,,,,,,,,,,,,,,,,,,,,,,,,,,489.89398029999575,490.9126510999631,487.9581514999736,487.9581514999736,487.9581514999736,487.9581514999736,new_sceneOut_3.png,82,1.0,1.930581799999345,,069,00,2025-04-08_16h31.33.076,Surprise recog test,2023.1.3,59.936120085223756,
82,0,82,0,,,,,,,,,,,,,,,,,,,,,,,,,,,,,,,,,,492.7812168999808,493.8014197999728,490.9126510999631,490.9126510999631,490.9126510999631,490.9126510999631,new_sceneOut_36.png,83,5.0,1.8658756000222638,,069,00,2025-04-08_16h31.33.076,Surprise recog test,2023.1.3,59.936120085223756,
83,0,83,0,,,,,,,,,,,,,,,,,,,,,,,,,,,,,,,,,,495.7026776999701,496.7139405999915,493.8014197999728,493.8014197999728,493.8014197999728,493.8014197999728,old_sceneOut_1.png,84,3.0,1.8997931000194512,,069,00,2025-04-08_16h31.33.076,Surprise recog test,2023.1.3,59.936120085223756,
84,0,84,0,,,,,,,,,,,,,,,,,,,,,,,,,,,,,,,,,,498.52466709999135,499.5422752999584,496.7139405999915,496.7139405999915,496.7139405999915,496.7139405999915,new_stationery_34.png,85,4.0,1.8059583999565803,,069,00,2025-04-08_16h31.33.076,Surprise recog test,2023.1.3,59.936120085223756,
85,0,85,0,,,,,,,,,,,,,,,,,,,,,,,,,,,,,,,,,,501.1401432999992,502.1631845999509,499.5422752999584,499.5422752999584,499.5422752999584,499.5422752999584,old_stationery_6.png,86,1.0,1.597901099943556,,069,00,2025-04-08_16h31.33.076,Surprise recog test,2023.1.3,59.936120085223756,
86,0,86,0,,,,,,,,,,,,,,,,,,,,,,,,,,,,,,,,,,504.0092211999581,505.0316346999607,502.1631845999509,502.1631845999509,502.1631845999509,502.1631845999509,old_sceneOut_22.png,87,4.0,1.847453200025484,,069,00,2025-04-08_16h31.33.076,Surprise recog test,2023.1.3,59.936120085223756,
87,0,87,0,,,,,,,,,,,,,,,,,,,,,,,,,,,,,,,,,,507.9540100999875,508.9746333999792,505.0316346999607,505.0316346999607,505.0316346999607,505.0316346999607,new_stationery_18.png,88,3.0,2.92294670001138,,069,00,2025-04-08_16h31.33.076,Surprise recog test,2023.1.3,59.936120085223756,
88,0,88,0,,,,,,,,,,,,,,,,,,,,,,,,,,,,,,,,,,510.72616989997914,511.7485536999884,508.9746333999792,508.9746333999792,508.9746333999792,508.9746333999792,old_stationery_46.png,89,2.0,1.7454259999794886,,069,00,2025-04-08_16h31.33.076,Surprise recog test,2023.1.3,59.936120085223756,
89,0,89,0,,,,,,,,,,,,,,,,,,,,,,,,,,,,,,,,,,513.9999002999975,515.0268640999566,511.7485536999884,511.7485536999884,511.7485536999884,511.7485536999884,new_stationery_43.png,90,2.0,2.25122769997688,,069,00,2025-04-08_16h31.33.076,Surprise recog test,2023.1.3,59.936120085223756,
90,0,90,0,,,,,,,,,,,,,,,,,,,,,,,,,,,,,,,,,,516.3104152999585,,515.0268640999566,515.0268640999566,515.0268640999566,515.0268640999566,new_fruit_39.png,91,4.0,1.285838200012222,,069,00,2025-04-08_16h31.33.076,Surprise recog test,2023.1.3,59.936120085223756,
91,0,91,0,,,,,,,,,,,,,,,,,,,,,,,,,,,,,,,,,,518.7914239999955,519.8143486999907,517.3297225999995,517.3297225999995,517.3297225999995,517.3297225999995,old_fruit_23.png,92,1.0,1.4526899000047706,,069,00,2025-04-08_16h31.33.076,Surprise recog test,2023.1.3,59.936120085223756,
92,0,92,0,,,,,,,,,,,,,,,,,,,,,,,,,,,,,,,,,,521.7608553000027,522.7800177999889,519.8143486999907,519.8143486999907,519.8143486999907,519.8143486999907,new_fruit_22.png,93,3.0,1.9497257000184618,,069,00,2025-04-08_16h31.33.076,Surprise recog test,2023.1.3,59.936120085223756,
93,0,93,0,,,,,,,,,,,,,,,,,,,,,,,,,,,,,,,,,,524.0870818999829,525.1133335999912,522.7800177999889,522.7800177999889,522.7800177999889,522.7800177999889,old_sceneOut_46.png,94,3.0,1.30648490000749,,069,00,2025-04-08_16h31.33.076,Surprise recog test,2023.1.3,59.936120085223756,
94,0,94,0,,,,,,,,,,,,,,,,,,,,,,,,,,,,,,,,,,526.6712893999647,527.7008757999865,525.1133335999912,525.1133335999912,525.1133335999912,525.1133335999912,old_stationery_50.png,95,1.0,1.560278200020548,,069,00,2025-04-08_16h31.33.076,Surprise recog test,2023.1.3,59.936120085223756,
95,0,95,0,,,,,,,,,,,,,,,,,,,,,,,,,,,,,,,,,,529.6259724999545,530.6532650999725,527.7008757999865,527.7008757999865,527.7008757999865,527.7008757999865,new_stationery_15.png,96,2.0,1.9269281000015326,,069,00,2025-04-08_16h31.33.076,Surprise recog test,2023.1.3,59.936120085223756,
96,0,96,0,,,,,,,,,,,,,,,,,,,,,,,,,,,,,,,,,,532.7428133999929,533.7632245999994,530.6532650999725,530.6532650999725,530.6532650999725,530.6532650999725,old_sceneIn_41.png,97,4.0,2.092267800006084,,069,00,2025-04-08_16h31.33.076,Surprise recog test,2023.1.3,59.936120085223756,
97,0,97,0,,,,,,,,,,,,,,,,,,,,,,,,,,,,,,,,,,536.1840652999817,537.2095848000026,533.7632245999994,533.7632245999994,533.7632245999994,533.7632245999994,old_fruit_5.png,98,4.0,2.4177610999904573,,069,00,2025-04-08_16h31.33.076,Surprise recog test,2023.1.3,59.936120085223756,
98,0,98,0,,,,,,,,,,,,,,,,,,,,,,,,,,,,,,,,,,539.8043746000039,540.817617499968,537.2095848000026,537.2095848000026,537.2095848000026,537.2095848000026,new_stationery_32.png,99,3.0,2.5937174999853596,,069,00,2025-04-08_16h31.33.076,Surprise recog test,2023.1.3,59.936120085223756,
99,0,99,0,,,,,,,,,,,,,,,,,,,,,,,,,,,,,,,,,,542.8680765999597,543.9000848999713,540.817617499968,540.817617499968,540.817617499968,540.817617499968,old_sceneIn_47.png,100,3.0,2.04699729999993,,069,00,2025-04-08_16h31.33.076,Surprise recog test,2023.1.3,59.936120085223756,
100,0,100,0,,,,,,,,,,,,,,,,,,,,,,,,,,,,,,,,,,546.2978316000081,547.3118557999842,543.9000848999713,543.9000848999713,543.9000848999713,543.9000848999713,new_fruit_44.png,101,2.0,2.39198449999094,,069,00,2025-04-08_16h31.33.076,Surprise recog test,2023.1.3,59.936120085223756,
101,0,101,0,,,,,,,,,,,,,,,,,,,,,,,,,,,,,,,,,,548.4327572999755,549.4403267999878,547.3118557999842,547.3118557999842,547.3118557999842,547.3118557999842,old_fruit_30.png,102,2.0,1.1202246000175364,,069,00,2025-04-08_16h31.33.076,Surprise recog test,2023.1.3,59.936120085223756,
102,0,102,0,,,,,,,,,,,,,,,,,,,,,,,,,,,,,,,,,,551.1099732999573,552.1365407999838,549.4403267999878,549.4403267999878,549.4403267999878,549.4403267999878,old_sceneOut_36.png,103,5.0,1.666546200052835,,069,00,2025-04-08_16h31.33.076,Surprise recog test,2023.1.3,59.936120085223756,
103,0,103,0,,,,,,,,,,,,,,,,,,,,,,,,,,,,,,,,,,554.0535605999758,555.0681172999903,552.1365407999838,552.1365407999838,552.1365407999838,552.1365407999838,new_sceneOut_1.png,104,3.0,1.9163380999816582,,069,00,2025-04-08_16h31.33.076,Surprise recog test,2023.1.3,59.936120085223756,
104,0,104,0,,,,,,,,,,,,,,,,,,,,,,,,,,,,,,,,,,557.2443698999705,,555.0681172999903,555.0681172999903,555.0681172999903,555.0681172999903,old_stationery_35.png,105,4.0,2.1749272000161,,069,00,2025-04-08_16h31.33.076,Surprise recog test,2023.1.3,59.936120085223756,
105,0,105,0,,,,,,,,,,,,,,,,,,,,,,,,,,,,,,,,,,559.812008399982,,558.2705036999541,558.2705036999541,558.2705036999541,558.2705036999541,new_fruit_32.png,106,2.0,1.543043999990914,,069,00,2025-04-08_16h31.33.076,Surprise recog test,2023.1.3,59.936120085223756,
106,0,106,0,,,,,,,,,,,,,,,,,,,,,,,,,,,,,,,,,,562.158905499964,563.1742083999561,560.8296264999663,560.8296264999663,560.8296264999663,560.8296264999663,new_sceneOut_42.png,107,4.0,1.3231240999884903,,069,00,2025-04-08_16h31.33.076,Surprise recog test,2023.1.3,59.936120085223756,
107,0,107,0,,,,,,,,,,,,,,,,,,,,,,,,,,,,,,,,,,565.5940843999851,566.610316300008,563.1742083999561,563.1742083999561,563.1742083999561,563.1742083999561,new_sceneOut_4.png,108,3.0,2.4201953999581747,,069,00,2025-04-08_16h31.33.076,Surprise recog test,2023.1.3,59.936120085223756,
108,0,108,0,,,,,,,,,,,,,,,,,,,,,,,,,,,,,,,,,,567.794919399952,568.8087114999653,566.610316300008,566.610316300008,566.610316300008,566.610316300008,old_sceneIn_18.png,109,3.0,1.1810686999815516,,069,00,2025-04-08_16h31.33.076,Surprise recog test,2023.1.3,59.936120085223756,
109,0,109,0,,,,,,,,,,,,,,,,,,,,,,,,,,,,,,,,,,570.6595753000001,571.6830105999834,568.8087114999653,568.8087114999653,568.8087114999653,568.8087114999653,new_sceneIn_9.png,110,4.0,1.847855800006073,,069,00,2025-04-08_16h31.33.076,Surprise recog test,2023.1.3,59.936120085223756,
110,0,110,0,,,,,,,,,,,,,,,,,,,,,,,,,,,,,,,,,,573.9611615999602,574.9840477999533,571.6830105999834,571.6830105999834,571.6830105999834,571.6830105999834,old_stationery_7.png,111,3.0,2.2801911999704316,,069,00,2025-04-08_16h31.33.076,Surprise recog test,2023.1.3,59.936120085223756,
111,0,111,0,,,,,,,,,,,,,,,,,,,,,,,,,,,,,,,,,,576.91418349999,577.9430539999739,574.9840477999533,574.9840477999533,574.9840477999533,574.9840477999533,new_sceneOut_15.png,112,5.0,1.9294696999713778,,069,00,2025-04-08_16h31.33.076,Surprise recog test,2023.1.3,59.936120085223756,
112,0,112,0,,,,,,,,,,,,,,,,,,,,,,,,,,,,,,,,,,579.5902512999601,580.6086387999821,577.9430539999739,577.9430539999739,577.9430539999739,577.9430539999739,new_fruit_24.png,113,4.0,1.64919359999476,,069,00,2025-04-08_16h31.33.076,Surprise recog test,2023.1.3,59.936120085223756,
113,0,113,0,,,,,,,,,,,,,,,,,,,,,,,,,,,,,,,,,,582.2514470999595,583.2764636999927,580.6086387999821,580.6086387999821,580.6086387999821,580.6086387999821,old_stationery_31.png,114,2.0,1.6446441999869421,,069,00,2025-04-08_16h31.33.076,Surprise recog test,2023.1.3,59.936120085223756,
114,0,114,0,,,,,,,,,,,,,,,,,,,,,,,,,,,,,,,,,,585.1018639999675,586.1363676000037,583.2764636999927,583.2764636999927,583.2764636999927,583.2764636999927,new_fruit_6.png,115,2.0,1.8262338999775238,,069,00,2025-04-08_16h31.33.076,Surprise recog test,2023.1.3,59.936120085223756,
115,0,115,0,,,,,,,,,,,,,,,,,,,,,,,,,,,,,,,,,,588.234585499973,,586.1363676000037,586.1363676000037,586.1363676000037,586.1363676000037,new_stationery_17.png,116,4.0,2.1018585999845527,,069,00,2025-04-08_16h31.33.076,Surprise recog test,2023.1.3,59.936120085223756,
116,0,116,0,,,,,,,,,,,,,,,,,,,,,,,,,,,,,,,,,,590.8507471999619,591.8715832000016,589.2550594999921,589.2550594999921,589.2550594999921,589.2550594999921,new_sceneIn_41.png,117,5.0,1.5913646999979392,,069,00,2025-04-08_16h31.33.076,Surprise recog test,2023.1.3,59.936120085223756,
117,0,117,0,,,,,,,,,,,,,,,,,,,,,,,,,,,,,,,,,,594.4942339999834,595.523323100002,591.8715832000016,591.8715832000016,591.8715832000016,591.8715832000016,new_sceneIn_27.png,118,3.0,2.6208144999691285,,069,00,2025-04-08_16h31.33.076,Surprise recog test,2023.1.3,59.936120085223756,
118,0,118,0,,,,,,,,,,,,,,,,,,,,,,,,,,,,,,,,,,596.9062271000003,597.9238465999952,595.523323100002,595.523323100002,595.523323100002,595.523323100002,new_sceneOut_12.png,119,4.0,1.383779699972365,,069,00,2025-04-08_16h31.33.076,Surprise recog test,2023.1.3,59.936120085223756,
119,0,119,0,,,,,,,,,,,,,,,,,,,,,,,,,,,,,,,,,,599.200767399976,600.2295757999527,597.9238465999952,597.9238465999952,597.9238465999952,597.9238465999952,new_fruit_31.png,120,4.0,1.2785412999801338,,069,00,2025-04-08_16h31.33.076,Surprise recog test,2023.1.3,59.936120085223756,
120,0,120,0,,,,,,,,,,,,,,,,,,,,,,,,,,,,,,,,,,602.7738918999676,603.7952350999694,600.2295757999527,600.2295757999527,600.2295757999527,600.2295757999527,old_sceneOut_28.png,121,5.0,2.5448158999788575,,069,00,2025-04-08_16h31.33.076,Surprise recog test,2023.1.3,59.936120085223756,
121,0,121,0,,,,,,,,,,,,,,,,,,,,,,,,,,,,,,,,,,606.0976744999643,607.116958300001,603.7952350999694,603.7952350999694,603.7952350999694,603.7952350999694,old_stationery_5.png,122,4.0,2.304229600005783,,069,00,2025-04-08_16h31.33.076,Surprise recog test,2023.1.3,59.936120085223756,
122,0,122,0,,,,,,,,,,,,,,,,,,,,,,,,,,,,,,,,,,608.5588390000048,609.5748769000056,607.116958300001,607.116958300001,607.116958300001,607.116958300001,old_fruit_17.png,123,4.0,1.444832699955441,,069,00,2025-04-08_16h31.33.076,Surprise recog test,2023.1.3,59.936120085223756,
123,0,123,0,,,,,,,,,,,,,,,,,,,,,,,,,,,,,,,,,,611.2088906999561,612.2399432999664,609.5748769000056,609.5748769000056,609.5748769000056,609.5748769000056,new_sceneOut_9.png,124,5.0,1.6292501999996603,,069,00,2025-04-08_16h31.33.076,Surprise recog test,2023.1.3,59.936120085223756,
124,0,124,0,,,,,,,,,,,,,,,,,,,,,,,,,,,,,,,,,,613.9315317999572,614.9602110999986,612.2399432999664,612.2399432999664,612.2399432999664,612.2399432999664,old_sceneIn_23.png,125,4.0,1.6933912999811582,,069,00,2025-04-08_16h31.33.076,Surprise recog test,2023.1.3,59.936120085223756,
125,0,125,0,,,,,,,,,,,,,,,,,,,,,,,,,,,,,,,,,,616.6196645000018,617.6476508000051,614.9602110999986,614.9602110999986,614.9602110999986,614.9602110999986,old_sceneOut_48.png,126,4.0,1.6612903000204824,,069,00,2025-04-08_16h31.33.076,Surprise recog test,2023.1.3,59.936120085223756,
126,0,126,0,,,,,,,,,,,,,,,,,,,,,,,,,,,,,,,,,,620.0755065999692,621.0947234999621,617.6476508000051,617.6476508000051,617.6476508000051,617.6476508000051,old_stationery_26.png,127,3.0,2.424702199990861,,069,00,2025-04-08_16h31.33.076,Surprise recog test,2023.1.3,59.936120085223756,
127,0,127,0,,,,,,,,,,,,,,,,,,,,,,,,,,,,,,,,,,622.7130459999898,,621.0947234999621,621.0947234999621,621.0947234999621,621.0947234999621,old_stationery_10.png,128,3.0,1.6190192999783903,,069,00,2025-04-08_16h31.33.076,Surprise recog test,2023.1.3,59.936120085223756,
128,0,128,0,,,,,,,,,,,,,,,,,,,,,,,,,,,,,,,,,,625.7151525999652,626.7302417999599,623.7453505999874,623.7453505999874,623.7453505999874,623.7453505999874,new_sceneIn_12.png,129,4.0,1.9707878000335768,,069,00,2025-04-08_16h31.33.076,Surprise recog test,2023.1.3,59.936120085223756,
129,0,129,0,,,,,,,,,,,,,,,,,,,,,,,,,,,,,,,,,,627.8907280999701,628.9065110000083,626.7302417999599,626.7302417999599,626.7302417999599,626.7302417999599,old_stationery_32.png,130,4.0,1.1622602000134066,,069,00,2025-04-08_16h31.33.076,Surprise recog test,2023.1.3,59.936120085223756,
130,0,130,0,,,,,,,,,,,,,,,,,,,,,,,,,,,,,,,,,,629.9354649999877,,628.9065110000083,628.9065110000083,628.9065110000083,628.9065110000083,old_sceneIn_36.png,131,4.0,1.0248250999720767,,069,00,2025-04-08_16h31.33.076,Surprise recog test,2023.1.3,59.936120085223756,
131,0,131,0,,,,,,,,,,,,,,,,,,,,,,,,,,,,,,,,,,632.2583632000023,633.2885398999788,630.9565627999837,630.9565627999837,630.9565627999837,630.9565627999837,new_sceneOut_16.png,132,4.0,1.2964443999808282,,069,00,2025-04-08_16h31.33.076,Surprise recog test,2023.1.3,59.936120085223756,
132,0,132,0,,,,,,,,,,,,,,,,,,,,,,,,,,,,,,,,,,634.9879134999937,635.9962352999719,633.2885398999788,633.2885398999788,633.2885398999788,633.2885398999788,old_stationery_38.png,133,2.0,1.6948970000375994,,069,00,2025-04-08_16h31.33.076,Surprise recog test,2023.1.3,59.936120085223756,
133,0,133,0,,,,,,,,,,,,,,,,,,,,,,,,,,,,,,,,,,637.7484652999556,638.776053199952,635.9962352999719,635.9962352999719,635.9962352999719,635.9962352999719,new_fruit_1.png,134,1.0,1.7457288000150584,,069,00,2025-04-08_16h31.33.076,Surprise recog test,2023.1.3,59.936120085223756,
134,0,134,0,,,,,,,,,,,,,,,,,,,,,,,,,,,,,,,,,,640.9317732999916,641.9647870999761,638.776053199952,638.776053199952,638.776053199952,638.776053199952,new_fruit_34.png,135,3.0,2.1577607999788597,,069,00,2025-04-08_16h31.33.076,Surprise recog test,2023.1.3,59.936120085223756,
135,0,135,0,,,,,,,,,,,,,,,,,,,,,,,,,,,,,,,,,,644.1973071999964,645.2170554999611,641.9647870999761,641.9647870999761,641.9647870999761,641.9647870999761,old_sceneOut_16.png,136,4.0,2.2353748999885283,,069,00,2025-04-08_16h31.33.076,Surprise recog test,2023.1.3,59.936120085223756,
136,0,136,0,,,,,,,,,,,,,,,,,,,,,,,,,,,,,,,,,,647.1559986000066,648.1798895999673,645.2170554999611,645.2170554999611,645.2170554999611,645.2170554999611,new_sceneOut_10.png,137,2.0,1.941773300000932,,069,00,2025-04-08_16h31.33.076,Surprise recog test,2023.1.3,59.936120085223756,
137,0,137,0,,,,,,,,,,,,,,,,,,,,,,,,,,,,,,,,,,650.5162189999828,651.5245437999838,648.1798895999673,648.1798895999673,648.1798895999673,648.1798895999673,new_stationery_39.png,138,2.0,2.337910300004296,,069,00,2025-04-08_16h31.33.076,Surprise recog test,2023.1.3,59.936120085223756,
138,0,138,0,,,,,,,,,,,,,,,,,,,,,,,,,,,,,,,,,,653.9759325999767,655.0053580999956,651.5245437999838,651.5245437999838,651.5245437999838,651.5245437999838,new_sceneOut_8.png,139,5.0,2.4475806999835186,,069,00,2025-04-08_16h31.33.076,Surprise recog test,2023.1.3,59.936120085223756,
139,0,139,0,,,,,,,,,,,,,,,,,,,,,,,,,,,,,,,,,,657.156935099978,658.1643288999912,655.0053580999956,655.0053580999956,655.0053580999956,655.0053580999956,old_sceneIn_12.png,140,2.0,2.1526167999836616,,069,00,2025-04-08_16h31.33.076,Surprise recog test,2023.1.3,59.936120085223756,
140,0,140,0,,,,,,,,,,,,,,,,,,,,,,,,,,,,,,,,,,660.1787935000029,,658.1643288999912,658.1643288999912,658.1643288999912,658.1643288999912,new_fruit_28.png,141,2.0,2.010205300000962,,069,00,2025-04-08_16h31.33.076,Surprise recog test,2023.1.3,59.936120085223756,
141,0,141,0,,,,,,,,,,,,,,,,,,,,,,,,,,,,,,,,,,663.0704228999675,664.0966331999516,661.2086684999522,661.2086684999522,661.2086684999522,661.2086684999522,new_fruit_23.png,142,4.0,1.8643414999824017,,069,00,2025-04-08_16h31.33.076,Surprise recog test,2023.1.3,59.936120085223756,
142,0,142,0,,,,,,,,,,,,,,,,,,,,,,,,,,,,,,,,,,665.9656849000021,,664.0966331999516,664.0966331999516,664.0966331999516,664.0966331999516,new_sceneOut_18.png,143,5.0,1.8717878999887034,,069,00,2025-04-08_16h31.33.076,Surprise recog test,2023.1.3,59.936120085223756,
143,0,143,0,,,,,,,,,,,,,,,,,,,,,,,,,,,,,,,,,,668.7659388000029,669.7842983999872,666.9940056999912,666.9940056999912,666.9940056999912,666.9940056999912,old_fruit_40.png,144,1.0,1.767503899987787,,069,00,2025-04-08_16h31.33.076,Surprise recog test,2023.1.3,59.936120085223756,
144,0,144,0,,,,,,,,,,,,,,,,,,,,,,,,,,,,,,,,,,671.6479801999521,672.6667956999736,669.7842983999872,669.7842983999872,669.7842983999872,669.7842983999872,old_sceneOut_45.png,145,4.0,1.865689600002952,,069,00,2025-04-08_16h31.33.076,Surprise recog test,2023.1.3,59.936120085223756,
145,0,145,0,,,,,,,,,,,,,,,,,,,,,,,,,,,,,,,,,,674.7231248999597,,672.6667956999736,672.6667956999736,672.6667956999736,672.6667956999736,new_fruit_27.png,146,3.0,2.056313399982173,,069,00,2025-04-08_16h31.33.076,Surprise recog test,2023.1.3,59.936120085223756,
146,0,146,0,,,,,,,,,,,,,,,,,,,,,,,,,,,,,,,,,,677.6948029999621,678.7219918000046,675.757676499954,675.757676499954,675.757676499954,675.757676499954,new_sceneIn_49.png,147,4.0,1.9362249000114389,,069,00,2025-04-08_16h31.33.076,Surprise recog test,2023.1.3,59.936120085223756,
147,0,147,0,,,,,,,,,,,,,,,,,,,,,,,,,,,,,,,,,,680.7147607999505,681.746536599996,678.7219918000046,678.7219918000046,678.7219918000046,678.7219918000046,new_sceneIn_6.png,148,5.0,1.993659000028856,,069,00,2025-04-08_16h31.33.076,Surprise recog test,2023.1.3,59.936120085223756,
148,0,148,0,,,,,,,,,,,,,,,,,,,,,,,,,,,,,,,,,,684.0452824999811,685.0633974999655,681.746536599996,681.746536599996,681.746536599996,681.746536599996,new_stationery_42.png,149,4.0,2.295191499986686,,069,00,2025-04-08_16h31.33.076,Surprise recog test,2023.1.3,59.936120085223756,
149,0,149,0,,,,,,,,,,,,,,,,,,,,,,,,,,,,,,,,,,687.0147046999773,688.0311255999841,685.0633974999655,685.0633974999655,685.0633974999655,685.0633974999655,old_fruit_32.png,150,1.0,1.9505133000202477,,069,00,2025-04-08_16h31.33.076,Surprise recog test,2023.1.3,59.936120085223756,
150,0,150,0,,,,,,,,,,,,,,,,,,,,,,,,,,,,,,,,,,690.2775180999888,691.3031571999891,688.0311255999841,688.0311255999841,688.0311255999841,688.0311255999841,new_sceneOut_26.png,151,4.0,2.2443742000032216,,069,00,2025-04-08_16h31.33.076,Surprise recog test,2023.1.3,59.936120085223756,
151,0,151,0,,,,,,,,,,,,,,,,,,,,,,,,,,,,,,,,,,693.4895392999751,,691.3031571999891,691.3031571999891,691.3031571999891,691.3031571999891,old_sceneIn_8.png,152,4.0,2.187269699992612,,069,00,2025-04-08_16h31.33.076,Surprise recog test,2023.1.3,59.936120085223756,
152,0,152,0,,,,,,,,,,,,,,,,,,,,,,,,,,,,,,,,,,696.9307052000077,697.9475230999524,694.5229192999541,694.5229192999541,694.5229192999541,694.5229192999541,new_sceneIn_22.png,153,5.0,2.4069761999999173,,069,00,2025-04-08_16h31.33.076,Surprise recog test,2023.1.3,59.936120085223756,
153,0,153,0,,,,,,,,,,,,,,,,,,,,,,,,,,,,,,,,,,700.4526801999891,701.4789447999792,697.9475230999524,697.9475230999524,697.9475230999524,697.9475230999524,old_sceneOut_40.png,154,3.0,2.500929099973291,,069,00,2025-04-08_16h31.33.076,Surprise recog test,2023.1.3,59.936120085223756,
154,0,154,0,,,,,,,,,,,,,,,,,,,,,,,,,,,,,,,,,,703.4353601000039,704.4492209999589,701.4789447999792,701.4789447999792,701.4789447999792,701.4789447999792,old_stationery_17.png,155,4.0,1.9597251999657601,,069,00,2025-04-08_16h31.33.076,Surprise recog test,2023.1.3,59.936120085223756,
155,0,155,0,,,,,,,,,,,,,,,,,,,,,,,,,,,,,,,,,,706.5549709000043,707.573049300001,704.4492209999589,704.4492209999589,704.4492209999589,704.4492209999589,old_sceneOut_4.png,156,4.0,2.0992181000183336,,069,00,2025-04-08_16h31.33.076,Surprise recog test,2023.1.3,59.936120085223756,
156,0,156,0,,,,,,,,,,,,,,,,,,,,,,,,,,,,,,,,,,709.3662795999553,710.3864007999655,707.573049300001,707.573049300001,707.573049300001,707.573049300001,new_sceneIn_10.png,157,4.0,1.7852025000029244,,069,00,2025-04-08_16h31.33.076,Surprise recog test,2023.1.3,59.936120085223756,
157,0,157,0,,,,,,,,,,,,,,,,,,,,,,,,,,,,,,,,,,711.985106099979,713.0071014999994,710.3864007999655,710.3864007999655,710.3864007999655,710.3864007999655,new_stationery_4.png,158,5.0,1.5976365000242367,,069,00,2025-04-08_16h31.33.076,Surprise recog test,2023.1.3,59.936120085223756,
158,0,158,0,,,,,,,,,,,,,,,,,,,,,,,,,,,,,,,,,,714.7590084999683,715.7849336999934,713.0071014999994,713.0071014999994,713.0071014999994,713.0071014999994,old_sceneIn_11.png,159,4.0,1.7554722999921069,,069,00,2025-04-08_16h31.33.076,Surprise recog test,2023.1.3,59.936120085223756,
159,0,159,0,,,,,,,,,,,,,,,,,,,,,,,,,,,,,,,,,,717.1155552999699,718.1424500999856,715.7849336999934,715.7849336999934,715.7849336999934,715.7849336999934,old_fruit_11.png,160,2.0,1.3302218000171706,,069,00,2025-04-08_16h31.33.076,Surprise recog test,2023.1.3,59.936120085223756,
160,0,160,0,,,,,,,,,,,,,,,,,,,,,,,,,,,,,,,,,,720.5170140999835,721.5335858999752,718.1424500999856,718.1424500999856,718.1424500999856,718.1424500999856,old_sceneIn_50.png,161,4.0,2.3755363000091165,,069,00,2025-04-08_16h31.33.076,Surprise recog test,2023.1.3,59.936120085223756,
161,0,161,0,,,,,,,,,,,,,,,,,,,,,,,,,,,,,,,,,,723.077670699975,724.0936971000046,721.5335858999752,721.5335858999752,721.5335858999752,721.5335858999752,old_fruit_7.png,162,3.0,1.536592299991753,,069,00,2025-04-08_16h31.33.076,Surprise recog test,2023.1.3,59.936120085223756,
162,0,162,0,,,,,,,,,,,,,,,,,,,,,,,,,,,,,,,,,,726.510776399984,727.5316161999945,724.0936971000046,724.0936971000046,724.0936971000046,724.0936971000046,new_sceneIn_23.png,163,4.0,2.4159092999761924,,069,00,2025-04-08_16h31.33.076,Surprise recog test,2023.1.3,59.936120085223756,
163,0,163,0,,,,,,,,,,,,,,,,,,,,,,,,,,,,,,,,,,728.764704399975,729.7852213999722,727.5316161999945,727.5316161999945,727.5316161999945,727.5316161999945,old_sceneOut_12.png,164,4.0,1.233563400048297,,069,00,2025-04-08_16h31.33.076,Surprise recog test,2023.1.3,59.936120085223756,
164,0,164,0,,,,,,,,,,,,,,,,,,,,,,,,,,,,,,,,,,731.7884530999581,,729.7852213999722,729.7852213999722,729.7852213999722,729.7852213999722,new_fruit_12.png,165,3.0,2.00520079996204,,069,00,2025-04-08_16h31.33.076,Surprise recog test,2023.1.3,59.936120085223756,
165,0,165,0,,,,,,,,,,,,,,,,,,,,,,,,,,,,,,,,,,734.7441596999997,735.7679220999707,732.8092451999546,732.8092451999546,732.8092451999546,732.8092451999546,old_stationery_11.png,166,5.0,1.9296789999934845,,069,00,2025-04-08_16h31.33.076,Surprise recog test,2023.1.3,59.936120085223756,
166,0,166,0,,,,,,,,,,,,,,,,,,,,,,,,,,,,,,,,,,738.0436424000072,,735.7679220999707,735.7679220999707,735.7679220999707,735.7679220999707,new_fruit_16.png,167,5.0,2.2731303999898955,,069,00,2025-04-08_16h31.33.076,Surprise recog test,2023.1.3,59.936120085223756,
167,0,167,0,,,,,,,,,,,,,,,,,,,,,,,,,,,,,,,,,,740.8590949999634,741.8733059999649,739.0719053999637,739.0719053999637,739.0719053999637,739.0719053999637,new_stationery_16.png,168,4.0,1.7883179999771528,,069,00,2025-04-08_16h31.33.076,Surprise recog test,2023.1.3,59.936120085223756,
168,0,168,0,,,,,,,,,,,,,,,,,,,,,,,,,,,,,,,,,,744.3697692999849,745.3983846000046,741.8733059999649,741.8733059999649,741.8733059999649,741.8733059999649,new_sceneOut_44.png,169,4.0,2.49457480001729,,069,00,2025-04-08_16h31.33.076,Surprise recog test,2023.1.3,59.936120085223756,
169,0,169,0,,,,,,,,,,,,,,,,,,,,,,,,,,,,,,,,,,747.101198099961,,745.3983846000046,745.3983846000046,745.3983846000046,745.3983846000046,new_stationery_8.png,170,4.0,1.702670400030911,,069,00,2025-04-08_16h31.33.076,Surprise recog test,2023.1.3,59.936120085223756,
170,0,170,0,,,,,,,,,,,,,,,,,,,,,,,,,,,,,,,,,,749.40794309997,750.4242621999583,748.1339354999945,748.1339354999945,748.1339354999945,748.1339354999945,new_sceneIn_35.png,171,4.0,1.2743647000170313,,069,00,2025-04-08_16h31.33.076,Surprise recog test,2023.1.3,59.936120085223756,
171,0,171,0,,,,,,,,,,,,,,,,,,,,,,,,,,,,,,,,,,752.5791210999596,753.5922182999784,750.4242621999583,750.4242621999583,750.4242621999583,750.4242621999583,new_fruit_48.png,172,3.0,2.1505819000303745,,069,00,2025-04-08_16h31.33.076,Surprise recog test,2023.1.3,59.936120085223756,
172,0,172,0,,,,,,,,,,,,,,,,,,,,,,,,,,,,,,,,,,755.19004029996,,753.5922182999784,753.5922182999784,753.5922182999784,753.5922182999784,new_sceneIn_16.png,173,4.0,1.5929229999892414,,069,00,2025-04-08_16h31.33.076,Surprise recog test,2023.1.3,59.936120085223756,
173,0,173,0,,,,,,,,,,,,,,,,,,,,,,,,,,,,,,,,,,757.9125373999705,758.937610599969,756.2170688000042,756.2170688000042,756.2170688000042,756.2170688000042,new_stationery_35.png,174,2.0,1.695971000008285,,069,00,2025-04-08_16h31.33.076,Surprise recog test,2023.1.3,59.936120085223756,
174,0,174,0,,,,,,,,,,,,,,,,,,,,,,,,,,,,,,,,,,761.4261090999935,762.448644499993,758.937610599969,758.937610599969,758.937610599969,758.937610599969,old_sceneIn_15.png,175,4.0,2.4895328000420704,,069,00,2025-04-08_16h31.33.076,Surprise recog test,2023.1.3,59.936120085223756,
175,0,175,0,,,,,,,,,,,,,,,,,,,,,,,,,,,,,,,,,,764.5476395000005,,762.448644499993,762.448644499993,762.448644499993,762.448644499993,new_sceneIn_5.png,176,4.0,2.1002836999832653,,069,00,2025-04-08_16h31.33.076,Surprise recog test,2023.1.3,59.936120085223756,
176,0,176,0,,,,,,,,,,,,,,,,,,,,,,,,,,,,,,,,,,767.5646320999949,768.5695075999829,765.5803960000048,765.5803960000048,765.5803960000048,765.5803960000048,new_sceneOut_23.png,177,5.0,1.9837616000440903,,069,00,2025-04-08_16h31.33.076,Surprise recog test,2023.1.3,59.936120085223756,
177,0,177,0,,,,,,,,,,,,,,,,,,,,,,,,,,,,,,,,,,770.4364356999868,,768.5695075999829,768.5695075999829,768.5695075999829,768.5695075999829,new_fruit_29.png,178,3.0,1.8635215999674983,,069,00,2025-04-08_16h31.33.076,Surprise recog test,2023.1.3,59.936120085223756,
178,0,178,0,,,,,,,,,,,,,,,,,,,,,,,,,,,,,,,,,,773.1334280999727,774.1498571999837,771.4650571999955,771.4650571999955,771.4650571999955,771.4650571999955,old_stationery_24.png,179,1.0,1.6695172999752685,,069,00,2025-04-08_16h31.33.076,Surprise recog test,2023.1.3,59.936120085223756,
179,0,179,0,,,,,,,,,,,,,,,,,,,,,,,,,,,,,,,,,,776.6030301999999,777.6233810999547,774.1498571999837,774.1498571999837,774.1498571999837,774.1498571999837,new_sceneIn_29.png,180,5.0,2.453104300017003,,069,00,2025-04-08_16h31.33.076,Surprise recog test,2023.1.3,59.936120085223756,
180,0,180,0,,,,,,,,,,,,,,,,,,,,,,,,,,,,,,,,,,779.3590595999849,780.3636149999802,777.6233810999547,777.6233810999547,777.6233810999547,777.6233810999547,old_sceneIn_9.png,181,4.0,1.7367949000326917,,069,00,2025-04-08_16h31.33.076,Surprise recog test,2023.1.3,59.936120085223756,
181,0,181,0,,,,,,,,,,,,,,,,,,,,,,,,,,,,,,,,,,782.2767446999787,783.2945301999571,780.3636149999802,780.3636149999802,780.3636149999802,780.3636149999802,old_fruit_38.png,182,3.0,1.9031809999723919,,069,00,2025-04-08_16h31.33.076,Surprise recog test,2023.1.3,59.936120085223756,
182,0,182,0,,,,,,,,,,,,,,,,,,,,,,,,,,,,,,,,,,785.0771744999802,786.0907475999556,783.2945301999571,783.2945301999571,783.2945301999571,783.2945301999571,old_fruit_21.png,183,1.0,1.784754200023599,,069,00,2025-04-08_16h31.33.076,Surprise recog test,2023.1.3,59.936120085223756,
183,0,183,0,,,,,,,,,,,,,,,,,,,,,,,,,,,,,,,,,,787.9535770000075,788.9691147999838,786.0907475999556,786.0907475999556,786.0907475999556,786.0907475999556,new_sceneIn_11.png,184,4.0,1.8659204000141472,,069,00,2025-04-08_16h31.33.076,Surprise recog test,2023.1.3,59.936120085223756,
184,0,184,0,,,,,,,,,,,,,,,,,,,,,,,,,,,,,,,,,,791.1204227999551,,788.9691147999838,788.9691147999838,788.9691147999838,788.9691147999838,old_sceneIn_39.png,185,1.0,2.145168700022623,,069,00,2025-04-08_16h31.33.076,Surprise recog test,2023.1.3,59.936120085223756,
185,0,185,0,,,,,,,,,,,,,,,,,,,,,,,,,,,,,,,,,,794.2190494999522,795.2443816000014,792.1427289999556,792.1427289999556,792.1427289999556,792.1427289999556,new_sceneOut_20.png,186,4.0,2.071807600033935,,069,00,2025-04-08_16h31.33.076,Surprise recog test,2023.1.3,59.936120085223756,
186,0,186,0,,,,,,,,,,,,,,,,,,,,,,,,,,,,,,,,,,797.1558375000022,798.168010799971,795.2443816000014,795.2443816000014,795.2443816000014,795.2443816000014,old_stationery_44.png,187,1.0,1.913247800024692,,069,00,2025-04-08_16h31.33.076,Surprise recog test,2023.1.3,59.936120085223756,
187,0,187,0,,,,,,,,,,,,,,,,,,,,,,,,,,,,,,,,,,800.0049049999798,801.0267649999587,798.168010799971,798.168010799971,798.168010799971,798.168010799971,old_sceneIn_35.png,188,5.0,1.8360518999979831,,069,00,2025-04-08_16h31.33.076,Surprise recog test,2023.1.3,59.936120085223756,
188,0,188,0,,,,,,,,,,,,,,,,,,,,,,,,,,,,,,,,,,803.1797365999664,,801.0267649999587,801.0267649999587,801.0267649999587,801.0267649999587,old_sceneIn_31.png,189,2.0,2.1554656000225805,,069,00,2025-04-08_16h31.33.076,Surprise recog test,2023.1.3,59.936120085223756,
189,0,189,0,,,,,,,,,,,,,,,,,,,,,,,,,,,,,,,,,,806.1256565999938,807.1485552999657,804.2102557999897,804.2102557999897,804.2102557999897,804.2102557999897,new_stationery_48.png,190,4.0,1.916227900015656,,069,00,2025-04-08_16h31.33.076,Surprise recog test,2023.1.3,59.936120085223756,
190,0,190,0,,,,,,,,,,,,,,,,,,,,,,,,,,,,,,,,,,809.0495175999822,810.0537915999885,807.1485552999657,807.1485552999657,807.1485552999657,807.1485552999657,new_sceneOut_24.png,191,3.0,1.9022808000445366,,069,00,2025-04-08_16h31.33.076,Surprise recog test,2023.1.3,59.936120085223756,
191,0,191,0,,,,,,,,,,,,,,,,,,,,,,,,,,,,,,,,,,811.9454592999537,812.9693774000043,810.0537915999885,810.0537915999885,810.0537915999885,810.0537915999885,new_sceneOut_2.png,192,5.0,1.887897000007797,,069,00,2025-04-08_16h31.33.076,Surprise recog test,2023.1.3,59.936120085223756,
192,0,192,0,,,,,,,,,,,,,,,,,,,,,,,,,,,,,,,,,,815.3361958999885,816.3596433000057,812.9693774000043,812.9693774000043,812.9693774000043,812.9693774000043,new_sceneOut_47.png,193,5.0,2.3673915000399575,,069,00,2025-04-08_16h31.33.076,Surprise recog test,2023.1.3,59.936120085223756,
193,0,193,0,,,,,,,,,,,,,,,,,,,,,,,,,,,,,,,,,,817.7833974999958,818.810096799978,816.3596433000057,816.3596433000057,816.3596433000057,816.3596433000057,old_fruit_12.png,194,2.0,1.423713200027123,,069,00,2025-04-08_16h31.33.076,Surprise recog test,2023.1.3,59.936120085223756,
194,0,194,0,,,,,,,,,,,,,,,,,,,,,,,,,,,,,,,,,,820.9994957000017,822.0169064999791,818.810096799978,818.810096799978,818.810096799978,818.810096799978,old_fruit_25.png,195,3.0,2.1905945999897085,,069,00,2025-04-08_16h31.33.076,Surprise recog test,2023.1.3,59.936120085223756,
195,0,195,0,,,,,,,,,,,,,,,,,,,,,,,,,,,,,,,,,,823.538697299955,824.5590748999966,822.0169064999791,822.0169064999791,822.0169064999791,822.0169064999791,new_sceneIn_46.png,196,5.0,1.5156129999668337,,069,00,2025-04-08_16h31.33.076,Surprise recog test,2023.1.3,59.936120085223756,
196,0,196,0,,,,,,,,,,,,,,,,,,,,,,,,,,,,,,,,,,826.6303029999835,827.6473846999579,824.5590748999966,824.5590748999966,824.5590748999966,824.5590748999966,new_fruit_42.png,197,4.0,2.0658364000264555,,069,00,2025-04-08_16h31.33.076,Surprise recog test,2023.1.3,59.936120085223756,
197,0,197,0,,,,,,,,,,,,,,,,,,,,,,,,,,,,,,,,,,830.3976390999742,831.4147444999544,827.6473846999579,827.6473846999579,827.6473846999579,827.6473846999579,new_sceneOut_14.png,198,4.0,2.752246100048069,,069,00,2025-04-08_16h31.33.076,Surprise recog test,2023.1.3,59.936120085223756,
198,0,198,0,,,,,,,,,,,,,,,,,,,,,,,,,,,,,,,,,,833.8524764999747,834.8651619000011,831.4147444999544,831.4147444999544,831.4147444999544,831.4147444999544,old_fruit_33.png,199,5.0,2.4368461000267416,,069,00,2025-04-08_16h31.33.076,Surprise recog test,2023.1.3,59.936120085223756,
199,0,199,0,,,,,,,,,,,,,,,,,,,,,,,,,,,,,,,,,,836.9100783999893,837.9428853999707,834.8651619000011,834.8651619000011,834.8651619000011,834.8651619000011,new_fruit_8.png,200,4.0,2.0436264000018127,,069,00,2025-04-08_16h31.33.076,Surprise recog test,2023.1.3,59.936120085223756,
200,0,200,0,,,,,,,,,,,,,,,,,,,,,,,,,,,,,,,,,,839.2532232999802,840.2692210999667,837.9428853999707,837.9428853999707,837.9428853999707,837.9428853999707,new_sceneIn_8.png,201,4.0,1.3123834000434726,,069,00,2025-04-08_16h31.33.076,Surprise recog test,2023.1.3,59.936120085223756,
201,0,201,0,,,,,,,,,,,,,,,,,,,,,,,,,,,,,,,,,,841.8402887999546,842.8600145999808,840.2692210999667,840.2692210999667,840.2692210999667,840.2692210999667,new_sceneIn_34.png,202,4.0,1.5706786999944597,,069,00,2025-04-08_16h31.33.076,Surprise recog test,2023.1.3,59.936120085223756,
202,0,202,0,,,,,,,,,,,,,,,,,,,,,,,,,,,,,,,,,,844.2551548999618,845.2740272000083,842.8600145999808,842.8600145999808,842.8600145999808,842.8600145999808,new_sceneIn_18.png,203,5.0,1.395393899991177,,069,00,2025-04-08_16h31.33.076,Surprise recog test,2023.1.3,59.936120085223756,
203,0,203,0,,,,,,,,,,,,,,,,,,,,,,,,,,,,,,,,,,847.2758402999607,848.300316000008,845.2740272000083,845.2740272000083,845.2740272000083,845.2740272000083,old_fruit_39.png,204,3.0,2.0010482000070624,,069,00,2025-04-08_16h31.33.076,Surprise recog test,2023.1.3,59.936120085223756,
204,0,204,0,,,,,,,,,,,,,,,,,,,,,,,,,,,,,,,,,,850.0398460999713,851.0602257999708,848.300316000008,848.300316000008,848.300316000008,848.300316000008,old_stationery_29.png,205,1.0,1.7390447999932803,,069,00,2025-04-08_16h31.33.076,Surprise recog test,2023.1.3,59.936120085223756,
205,0,205,0,,,,,,,,,,,,,,,,,,,,,,,,,,,,,,,,,,853.3050312999985,,851.0602257999708,851.0602257999708,851.0602257999708,851.0602257999708,old_fruit_14.png,206,2.0,2.243667800037656,,069,00,2025-04-08_16h31.33.076,Surprise recog test,2023.1.3,59.936120085223756,
206,0,206,0,,,,,,,,,,,,,,,,,,,,,,,,,,,,,,,,,,856.1998738999828,857.2220040999819,854.3261641999707,854.3261641999707,854.3261641999707,854.3261641999707,old_sceneIn_7.png,207,5.0,1.8694882999989204,,069,00,2025-04-08_16h31.33.076,Surprise recog test,2023.1.3,59.936120085223756,
207,0,207,0,,,,,,,,,,,,,,,,,,,,,,,,,,,,,,,,,,858.908449199982,859.9245634999825,857.2220040999819,857.2220040999819,857.2220040999819,857.2220040999819,new_fruit_18.png,208,1.0,1.6892759000184014,,069,00,2025-04-08_16h31.33.076,Surprise recog test,2023.1.3,59.936120085223756,
208,0,208,0,,,,,,,,,,,,,,,,,,,,,,,,,,,,,,,,,,861.4506291999714,862.4743226999999,859.9245634999825,859.9245634999825,859.9245634999825,859.9245634999825,old_sceneOut_49.png,209,4.0,1.5277805000077933,,069,00,2025-04-08_16h31.33.076,Surprise recog test,2023.1.3,59.936120085223756,
209,0,209,0,,,,,,,,,,,,,,,,,,,,,,,,,,,,,,,,,,864.8487304999726,,862.4743226999999,862.4743226999999,862.4743226999999,862.4743226999999,new_fruit_3.png,210,2.0,2.375799899979029,,069,00,2025-04-08_16h31.33.076,Surprise recog test,2023.1.3,59.936120085223756,
210,0,210,0,,,,,,,,,,,,,,,,,,,,,,,,,,,,,,,,,,868.1173404000001,,865.8836252999608,865.8836252999608,865.8836252999608,865.8836252999608,old_sceneIn_17.png,211,3.0,2.235843600006774,,069,00,2025-04-08_16h31.33.076,Surprise recog test,2023.1.3,59.936120085223756,
211,0,211,0,,,,,,,,,,,,,,,,,,,,,,,,,,,,,,,,,,871.1012615999789,872.1216703999671,869.1383079999941,869.1383079999941,869.1383079999941,869.1383079999941,new_sceneIn_37.png,212,5.0,1.959163100051228,,069,00,2025-04-08_16h31.33.076,Surprise recog test,2023.1.3,59.936120085223756,
212,0,212,0,,,,,,,,,,,,,,,,,,,,,,,,,,,,,,,,,,874.1092716999701,875.1278532999568,872.1216703999671,872.1216703999671,872.1216703999671,872.1216703999671,new_stationery_33.png,213,3.0,1.9897217000252567,,069,00,2025-04-08_16h31.33.076,Surprise recog test,2023.1.3,59.936120085223756,
213,0,213,0,,,,,,,,,,,,,,,,,,,,,,,,,,,,,,,,,,877.7629062999622,878.7929659999791,875.1278532999568,875.1278532999568,875.1278532999568,875.1278532999568,new_sceneIn_26.png,214,2.0,2.631175099988468,,069,00,2025-04-08_16h31.33.076,Surprise recog test,2023.1.3,59.936120085223756,
214,0,214,0,,,,,,,,,,,,,,,,,,,,,,,,,,,,,,,,,,881.1444269999629,,878.7929659999791,878.7929659999791,878.7929659999791,878.7929659999791,old_stationery_39.png,215,1.0,2.351927399984561,,069,00,2025-04-08_16h31.33.076,Surprise recog test,2023.1.3,59.936120085223756,
215,0,215,0,,,,,,,,,,,,,,,,,,,,,,,,,,,,,,,,,,883.5942329999525,884.608160600008,882.1738480000058,882.1738480000058,882.1738480000058,882.1738480000058,new_sceneOut_50.png,216,4.0,1.4205664999899454,,069,00,2025-04-08_16h31.33.076,Surprise recog test,2023.1.3,59.936120085223756,
216,0,216,0,,,,,,,,,,,,,,,,,,,,,,,,,,,,,,,,,,887.0261263999855,888.0426095000003,884.608160600008,884.608160600008,884.608160600008,884.608160600008,new_sceneOut_34.png,217,3.0,2.418390000006184,,069,00,2025-04-08_16h31.33.076,Surprise recog test,2023.1.3,59.936120085223756,
217,0,217,0,,,,,,,,,,,,,,,,,,,,,,,,,,,,,,,,,,889.8578184999642,890.8832118999562,888.0426095000003,888.0426095000003,888.0426095000003,888.0426095000003,new_stationery_3.png,218,4.0,1.8157260000007227,,069,00,2025-04-08_16h31.33.076,Surprise recog test,2023.1.3,59.936120085223756,
218,0,218,0,,,,,,,,,,,,,,,,,,,,,,,,,,,,,,,,,,893.2868640999659,894.290226299956,890.8832118999562,890.8832118999562,890.8832118999562,890.8832118999562,new_stationery_31.png,219,4.0,2.4063204000121914,,069,00,2025-04-08_16h31.33.076,Surprise recog test,2023.1.3,59.936120085223756,
219,0,219,0,,,,,,,,,,,,,,,,,,,,,,,,,,,,,,,,,,896.0987288999604,897.1230040999944,894.290226299956,894.290226299956,894.290226299956,894.290226299956,old_fruit_49.png,220,2.0,1.8045402999850921,,069,00,2025-04-08_16h31.33.076,Surprise recog test,2023.1.3,59.936120085223756,
220,0,220,0,,,,,,,,,,,,,,,,,,,,,,,,,,,,,,,,,,899.2727156999754,900.2941157000023,897.1230040999944,897.1230040999944,897.1230040999944,897.1230040999944,old_fruit_24.png,221,4.0,2.1519998000003397,,069,00,2025-04-08_16h31.33.076,Surprise recog test,2023.1.3,59.936120085223756,
221,0,221,0,,,,,,,,,,,,,,,,,,,,,,,,,,,,,,,,,,901.4172455999651,902.4428004999645,900.2941157000023,900.2941157000023,900.2941157000023,900.2941157000023,old_sceneIn_40.png,222,4.0,1.124601200048346,,069,00,2025-04-08_16h31.33.076,Surprise recog test,2023.1.3,59.936120085223756,
222,0,222,0,,,,,,,,,,,,,,,,,,,,,,,,,,,,,,,,,,903.6954491999932,904.7010631999583,902.4428004999645,902.4428004999645,902.4428004999645,902.4428004999645,new_sceneOut_38.png,223,4.0,1.2551172000239603,,069,00,2025-04-08_16h31.33.076,Surprise recog test,2023.1.3,59.936120085223756,
223,0,223,0,,,,,,,,,,,,,,,,,,,,,,,,,,,,,,,,,,905.8493809999782,,904.7010631999583,904.7010631999583,904.7010631999583,904.7010631999583,old_sceneIn_44.png,224,4.0,1.1434244000120088,,069,00,2025-04-08_16h31.33.076,Surprise recog test,2023.1.3,59.936120085223756,
224,0,224,0,,,,,,,,,,,,,,,,,,,,,,,,,,,,,,,,,,909.3914820000064,910.4174123999546,906.8755165999755,906.8755165999755,906.8755165999755,906.8755165999755,new_sceneIn_32.png,225,5.0,2.517069299996365,,069,00,2025-04-08_16h31.33.076,Surprise recog test,2023.1.3,59.936120085223756,
225,0,225,0,,,,,,,,,,,,,,,,,,,,,,,,,,,,,,,,,,912.3031555999769,913.317271799955,910.4174123999546,910.4174123999546,910.4174123999546,910.4174123999546,old_stationery_4.png,226,2.0,1.8881139000295661,,069,00,2025-04-08_16h31.33.076,Surprise recog test,2023.1.3,59.936120085223756,
226,0,226,0,,,,,,,,,,,,,,,,,,,,,,,,,,,,,,,,,,915.0914745999617,916.1165388000081,913.317271799955,913.317271799955,913.317271799955,913.317271799955,new_stationery_38.png,227,3.0,1.7748264000401832,,069,00,2025-04-08_16h31.33.076,Surprise recog test,2023.1.3,59.936120085223756,
227,0,227,0,,,,,,,,,,,,,,,,,,,,,,,,,,,,,,,,,,917.4106599999941,918.4382545999833,916.1165388000081,916.1165388000081,916.1165388000081,916.1165388000081,old_sceneIn_19.png,228,4.0,1.294559300004039,,069,00,2025-04-08_16h31.33.076,Surprise recog test,2023.1.3,59.936120085223756,
228,0,228,0,,,,,,,,,,,,,,,,,,,,,,,,,,,,,,,,,,920.775215599977,921.7945015999721,918.4382545999833,918.4382545999833,918.4382545999833,918.4382545999833,new_sceneIn_50.png,229,4.0,2.3357717000180855,,069,00,2025-04-08_16h31.33.076,Surprise recog test,2023.1.3,59.936120085223756,
229,0,229,0,,,,,,,,,,,,,,,,,,,,,,,,,,,,,,,,,,923.2506602999638,924.2739395999815,921.7945015999721,921.7945015999721,921.7945015999721,921.7945015999721,old_fruit_27.png,230,1.0,1.4567736000171863,,069,00,2025-04-08_16h31.33.076,Surprise recog test,2023.1.3,59.936120085223756,
230,0,230,0,,,,,,,,,,,,,,,,,,,,,,,,,,,,,,,,,,926.045733499981,927.062441499962,924.2739395999815,924.2739395999815,924.2739395999815,924.2739395999815,old_sceneOut_13.png,231,3.0,1.7703090999857523,,069,00,2025-04-08_16h31.33.076,Surprise recog test,2023.1.3,59.936120085223756,
231,0,231,0,,,,,,,,,,,,,,,,,,,,,,,,,,,,,,,,,,928.7567446999601,929.7736511999974,927.062441499962,927.062441499962,927.062441499962,927.062441499962,new_stationery_10.png,232,4.0,1.6957368000294082,,069,00,2025-04-08_16h31.33.076,Surprise recog test,2023.1.3,59.936120085223756,
232,0,232,0,,,,,,,,,,,,,,,,,,,,,,,,,,,,,,,,,,931.2234555999748,932.2528627999709,929.7736511999974,929.7736511999974,929.7736511999974,929.7736511999974,new_sceneIn_1.png,233,5.0,1.4457907000323758,,069,00,2025-04-08_16h31.33.076,Surprise recog test,2023.1.3,59.936120085223756,
233,0,233,0,,,,,,,,,,,,,,,,,,,,,,,,,,,,,,,,,,934.3196819999721,935.3273447999964,932.2528627999709,932.2528627999709,932.2528627999709,932.2528627999709,old_sceneOut_38.png,234,4.0,2.0613976000458933,,069,00,2025-04-08_16h31.33.076,Surprise recog test,2023.1.3,59.936120085223756,
234,0,234,0,,,,,,,,,,,,,,,,,,,,,,,,,,,,,,,,,,937.0019923999789,938.0208236000035,935.3273447999964,935.3273447999964,935.3273447999964,935.3273447999964,new_sceneOut_41.png,235,1.0,1.6685491999960504,,069,00,2025-04-08_16h31.33.076,Surprise recog test,2023.1.3,59.936120085223756,
235,0,235,0,,,,,,,,,,,,,,,,,,,,,,,,,,,,,,,,,,939.9958521999652,941.031741099956,938.0208236000035,938.0208236000035,938.0208236000035,938.0208236000035,old_fruit_16.png,236,3.0,1.976786999963224,,069,00,2025-04-08_16h31.33.076,Surprise recog test,2023.1.3,59.936120085223756,
236,0,236,0,,,,,,,,,,,,,,,,,,,,,,,,,,,,,,,,,,942.4152788000065,943.446262399957,941.031741099956,941.031741099956,941.031741099956,941.031741099956,new_sceneOut_33.png,237,2.0,1.3863105999771506,,069,00,2025-04-08_16h31.33.076,Surprise recog test,2023.1.3,59.936120085223756,
237,0,237,0,,,,,,,,,,,,,,,,,,,,,,,,,,,,,,,,,,945.4222793999943,946.4371630999958,943.446262399957,943.446262399957,943.446262399957,943.446262399957,old_sceneIn_24.png,238,3.0,1.9797201000037603,,069,00,2025-04-08_16h31.33.076,Surprise recog test,2023.1.3,59.936120085223756,
238,0,238,0,,,,,,,,,,,,,,,,,,,,,,,,,,,,,,,,,,948.052166999958,949.0807143999846,946.4371630999958,946.4371630999958,946.4371630999958,946.4371630999958,old_sceneOut_11.png,239,4.0,1.6107604000135325,,069,00,2025-04-08_16h31.33.076,Surprise recog test,2023.1.3,59.936120085223756,
239,0,239,0,,,,,,,,,,,,,,,,,,,,,,,,,,,,,,,,,,950.5131716000033,951.5251128999516,949.0807143999846,949.0807143999846,949.0807143999846,949.0807143999846,old_sceneOut_14.png,240,5.0,1.4325446000439115,,069,00,2025-04-08_16h31.33.076,Surprise recog test,2023.1.3,59.936120085223756,
240,0,240,0,,,,,,,,,,,,,,,,,,,,,,,,,,,,,,,,,,952.824024099973,953.8566661999794,951.5251128999516,951.5251128999516,951.5251128999516,951.5251128999516,new_sceneIn_17.png,241,5.0,1.294064499961678,,069,00,2025-04-08_16h31.33.076,Surprise recog test,2023.1.3,59.936120085223756,
241,0,241,0,,,,,,,,,,,,,,,,,,,,,,,,,,,,,,,,,,955.5318096999545,956.553715099988,953.8566661999794,953.8566661999794,953.8566661999794,953.8566661999794,old_fruit_29.png,242,3.0,1.6766097000217997,,069,00,2025-04-08_16h31.33.076,Surprise recog test,2023.1.3,59.936120085223756,
242,0,242,0,,,,,,,,,,,,,,,,,,,,,,,,,,,,,,,,,,958.4570951999631,959.4708568999777,956.553715099988,956.553715099988,956.553715099988,956.553715099988,old_sceneOut_37.png,243,4.0,1.9024231999646872,,069,00,2025-04-08_16h31.33.076,Surprise recog test,2023.1.3,59.936120085223756,
243,0,243,0,,,,,,,,,,,,,,,,,,,,,,,,,,,,,,,,,,962.4991645999835,963.5250307999668,959.4708568999777,959.4708568999777,959.4708568999777,959.4708568999777,old_sceneOut_3.png,244,4.0,3.029065799957607,,069,00,2025-04-08_16h31.33.076,Surprise recog test,2023.1.3,59.936120085223756,
244,0,244,0,,,,,,,,,,,,,,,,,,,,,,,,,,,,,,,,,,965.1346836999874,966.1617506999755,963.5250307999668,963.5250307999668,963.5250307999668,963.5250307999668,new_fruit_19.png,245,5.0,1.6105730999843217,,069,00,2025-04-08_16h31.33.076,Surprise recog test,2023.1.3,59.936120085223756,
245,0,245,0,,,,,,,,,,,,,,,,,,,,,,,,,,,,,,,,,,967.7033221999882,968.7217790999566,966.1617506999755,966.1617506999755,966.1617506999755,966.1617506999755,new_fruit_37.png,246,3.0,1.5422259999904782,,069,00,2025-04-08_16h31.33.076,Surprise recog test,2023.1.3,59.936120085223756,
246,0,246,0,,,,,,,,,,,,,,,,,,,,,,,,,,,,,,,,,,971.7036266999785,,968.7217790999566,968.7217790999566,968.7217790999566,968.7217790999566,new_stationery_41.png,247,4.0,2.976768299995456,,069,00,2025-04-08_16h31.33.076,Surprise recog test,2023.1.3,59.936120085223756,
247,0,247,0,,,,,,,,,,,,,,,,,,,,,,,,,,,,,,,,,,974.1272335999529,975.1538321999833,972.7386844999855,972.7386844999855,972.7386844999855,972.7386844999855,old_sceneIn_5.png,248,5.0,1.3895042999647558,,069,00,2025-04-08_16h31.33.076,Surprise recog test,2023.1.3,59.936120085223756,
248,0,248,0,,,,,,,,,,,,,,,,,,,,,,,,,,,,,,,,,,977.282587499998,978.3049223999842,975.1538321999833,975.1538321999833,975.1538321999833,975.1538321999833,new_sceneOut_30.png,249,3.0,2.1314704000251368,,069,00,2025-04-08_16h31.33.076,Surprise recog test,2023.1.3,59.936120085223756,
249,0,249,0,,,,,,,,,,,,,,,,,,,,,,,,,,,,,,,,,,979.7490936999675,980.7730514999712,978.3049223999842,978.3049223999842,978.3049223999842,978.3049223999842,old_sceneIn_10.png,250,5.0,1.4451522000017576,,069,00,2025-04-08_16h31.33.076,Surprise recog test,2023.1.3,59.936120085223756,
250,0,250,0,,,,,,,,,,,,,,,,,,,,,,,,,,,,,,,,,,982.6754020999651,983.6942317999783,980.7730514999712,980.7730514999712,980.7730514999712,980.7730514999712,new_sceneOut_40.png,251,2.0,1.904510600026697,,069,00,2025-04-08_16h31.33.076,Surprise recog test,2023.1.3,59.936120085223756,
251,0,251,0,,,,,,,,,,,,,,,,,,,,,,,,,,,,,,,,,,985.2346984999604,986.2518937999848,983.6942317999783,983.6942317999783,983.6942317999783,983.6942317999783,old_fruit_8.png,252,2.0,1.5438323999987915,,069,00,2025-04-08_16h31.33.076,Surprise recog test,2023.1.3,59.936120085223756,
252,0,252,0,,,,,,,,,,,,,,,,,,,,,,,,,,,,,,,,,,987.8841810000013,,986.2518937999848,986.2518937999848,986.2518937999848,986.2518937999848,new_fruit_46.png,253,3.0,1.628084400028456,,069,00,2025-04-08_16h31.33.076,Surprise recog test,2023.1.3,59.936120085223756,
253,0,253,0,,,,,,,,,,,,,,,,,,,,,,,,,,,,,,,,,,991.8779805999948,992.8988835999626,988.9036411999841,988.9036411999841,988.9036411999841,988.9036411999841,new_stationery_44.png,254,4.0,2.968263200018555,,069,00,2025-04-08_16h31.33.076,Surprise recog test,2023.1.3,59.936120085223756,
254,0,254,0,,,,,,,,,,,,,,,,,,,,,,,,,,,,,,,,,,994.2859150999575,995.3054928999627,992.8988835999626,992.8988835999626,992.8988835999626,992.8988835999626,new_sceneIn_21.png,255,4.0,1.3872896000393666,,069,00,2025-04-08_16h31.33.076,Surprise recog test,2023.1.3,59.936120085223756,
255,0,255,0,,,,,,,,,,,,,,,,,,,,,,,,,,,,,,,,,,997.447884299967,998.4602568999981,995.3054928999627,995.3054928999627,995.3054928999627,995.3054928999627,old_fruit_44.png,256,3.0,2.1440279000089504,,069,00,2025-04-08_16h31.33.076,Surprise recog test,2023.1.3,59.936120085223756,
256,0,256,0,,,,,,,,,,,,,,,,,,,,,,,,,,,,,,,,,,999.8424702999764,1000.8482453000033,998.4602568999981,998.4602568999981,998.4602568999981,998.4602568999981,new_fruit_49.png,257,3.0,1.3761156999971718,,069,00,2025-04-08_16h31.33.076,Surprise recog test,2023.1.3,59.936120085223756,
257,0,257,0,,,,,,,,,,,,,,,,,,,,,,,,,,,,,,,,,,1002.8377879000036,1003.8617103999713,1000.8482453000033,1000.8482453000033,1000.8482453000033,1000.8482453000033,new_stationery_12.png,258,4.0,1.9850165999960154,,069,00,2025-04-08_16h31.33.076,Surprise recog test,2023.1.3,59.936120085223756,
258,0,258,0,,,,,,,,,,,,,,,,,,,,,,,,,,,,,,,,,,1005.5313924999791,,1003.8617103999713,1003.8617103999713,1003.8617103999713,1003.8617103999713,new_stationery_7.png,259,5.0,1.6704181999666616,,069,00,2025-04-08_16h31.33.076,Surprise recog test,2023.1.3,59.936120085223756,
259,0,259,0,,,,,,,,,,,,,,,,,,,,,,,,,,,,,,,,,,1008.2695603999891,1009.3005547999637,1006.5644333999953,1006.5644333999953,1006.5644333999953,1006.5644333999953,old_fruit_15.png,260,4.0,1.706360699958168,,069,00,2025-04-08_16h31.33.076,Surprise recog test,2023.1.3,59.936120085223756,
260,0,260,0,,,,,,,,,,,,,,,,,,,,,,,,,,,,,,,,,,1011.9551953999908,,1009.3005547999637,1009.3005547999637,1009.3005547999637,1009.3005547999637,old_stationery_47.png,261,3.0,2.6558597999974154,,069,00,2025-04-08_16h31.33.076,Surprise recog test,2023.1.3,59.936120085223756,
261,0,261,0,,,,,,,,,,,,,,,,,,,,,,,,,,,,,,,,,,1014.4386726999655,,1012.9837906999746,1012.9837906999746,1012.9837906999746,1012.9837906999746,new_sceneIn_15.png,262,4.0,1.456010999972932,,069,00,2025-04-08_16h31.33.076,Surprise recog test,2023.1.3,59.936120085223756,
262,0,262,0,,,,,,,,,,,,,,,,,,,,,,,,,,,,,,,,,,1017.5728172999807,1018.5907303999993,1015.4710391999688,1015.4710391999688,1015.4710391999688,1015.4710391999688,new_fruit_15.png,263,3.0,2.103183100000024,,069,00,2025-04-08_16h31.33.076,Surprise recog test,2023.1.3,59.936120085223756,
263,0,263,0,,,,,,,,,,,,,,,,,,,,,,,,,,,,,,,,,,1019.7405055999989,1020.7653260999941,1018.5907303999993,1018.5907303999993,1018.5907303999993,1018.5907303999993,old_sceneOut_15.png,264,4.0,1.149103500007186,,069,00,2025-04-08_16h31.33.076,Surprise recog test,2023.1.3,59.936120085223756,
264,0,264,0,,,,,,,,,,,,,,,,,,,,,,,,,,,,,,,,,,1022.0496051000082,1023.0714403999737,1020.7653260999941,1020.7653260999941,1020.7653260999941,1020.7653260999941,old_sceneIn_48.png,265,5.0,1.2854124000295997,,069,00,2025-04-08_16h31.33.076,Surprise recog test,2023.1.3,59.936120085223756,
265,0,265,0,,,,,,,,,,,,,,,,,,,,,,,,,,,,,,,,,,1024.7944382999558,1025.8027838999988,1023.0714403999737,1023.0714403999737,1023.0714403999737,1023.0714403999737,new_sceneOut_29.png,266,5.0,1.7206260000239126,,069,00,2025-04-08_16h31.33.076,Surprise recog test,2023.1.3,59.936120085223756,
266,0,266,0,,,,,,,,,,,,,,,,,,,,,,,,,,,,,,,,,,1027.506304199982,1028.528868799971,1025.8027838999988,1025.8027838999988,1025.8027838999988,1025.8027838999988,old_sceneIn_43.png,267,5.0,1.6996869999566115,,069,00,2025-04-08_16h31.33.076,Surprise recog test,2023.1.3,59.936120085223756,
267,0,267,0,,,,,,,,,,,,,,,,,,,,,,,,,,,,,,,,,,1030.233750299958,1031.2403141999966,1028.528868799971,1028.528868799971,1028.528868799971,1028.528868799971,new_fruit_4.png,268,3.0,1.7073393000173382,,069,00,2025-04-08_16h31.33.076,Surprise recog test,2023.1.3,59.936120085223756,
268,0,268,0,,,,,,,,,,,,,,,,,,,,,,,,,,,,,,,,,,1033.903231400007,1034.9185958000016,1031.2403141999966,1031.2403141999966,1031.2403141999966,1031.2403141999966,new_stationery_29.png,269,3.0,2.6557166000129655,,069,00,2025-04-08_16h31.33.076,Surprise recog test,2023.1.3,59.936120085223756,
269,0,269,0,,,,,,,,,,,,,,,,,,,,,,,,,,,,,,,,,,1036.874287899991,,1034.9185958000016,1034.9185958000016,1034.9185958000016,1034.9185958000016,new_fruit_26.png,270,3.0,1.9575060000061058,,069,00,2025-04-08_16h31.33.076,Surprise recog test,2023.1.3,59.936120085223756,
270,0,270,0,,,,,,,,,,,,,,,,,,,,,,,,,,,,,,,,,,1039.159982699959,,1037.9097461999627,1037.9097461999627,1037.9097461999627,1037.9097461999627,new_sceneOut_46.png,271,4.0,1.2522143999813125,,069,00,2025-04-08_16h31.33.076,Surprise recog test,2023.1.3,59.936120085223756,
271,0,271,0,,,,,,,,,,,,,,,,,,,,,,,,,,,,,,,,,,1041.6828016999643,1042.7127280999557,1040.1874144999892,1040.1874144999892,1040.1874144999892,1040.1874144999892,old_sceneOut_2.png,272,4.0,1.496341600024607,,069,00,2025-04-08_16h31.33.076,Surprise recog test,2023.1.3,59.936120085223756,
272,0,272,0,,,,,,,,,,,,,,,,,,,,,,,,,,,,,,,,,,1045.1543457999942,1046.1665812999709,1042.7127280999557,1042.7127280999557,1042.7127280999557,1042.7127280999557,new_stationery_47.png,273,3.0,2.444296600006055,,069,00,2025-04-08_16h31.33.076,Surprise recog test,2023.1.3,59.936120085223756,
273,0,273,0,,,,,,,,,,,,,,,,,,,,,,,,,,,,,,,,,,1049.02002549998,1050.0402420999599,1046.1665812999709,1046.1665812999709,1046.1665812999709,1046.1665812999709,old_fruit_45.png,274,4.0,2.8495553000248037,,069,00,2025-04-08_16h31.33.076,Surprise recog test,2023.1.3,59.936120085223756,
274,0,274,0,,,,,,,,,,,,,,,,,,,,,,,,,,,,,,,,,,1050.868453699979,,1050.0402420999599,1050.0402420999599,1050.0402420999599,1050.0402420999599,old_sceneOut_10.png,275,4.0,0.8235062999883667,,069,00,2025-04-08_16h31.33.076,Surprise recog test,2023.1.3,59.936120085223756,
275,0,275,0,,,,,,,,,,,,,,,,,,,,,,,,,,,,,,,,,,1053.7554936999804,,1051.902719100006,1051.902719100006,1051.902719100006,1051.902719100006,old_stationery_40.png,276,4.0,1.854824699985329,,069,00,2025-04-08_16h31.33.076,Surprise recog test,2023.1.3,59.936120085223756,
276,0,276,0,,,,,,,,,,,,,,,,,,,,,,,,,,,,,,,,,,1055.646681299957,1056.6614142999751,1054.7862751999637,1054.7862751999637,1054.7862751999637,1054.7862751999637,old_sceneIn_20.png,277,4.0,0.8627566000213847,,069,00,2025-04-08_16h31.33.076,Surprise recog test,2023.1.3,59.936120085223756,
277,0,277,0,,,,,,,,,,,,,,,,,,,,,,,,,,,,,,,,,,1058.347772399953,1059.3792647999944,1056.6614142999751,1056.6614142999751,1056.6614142999751,1056.6614142999751,old_fruit_2.png,278,3.0,1.68164969998179,,069,00,2025-04-08_16h31.33.076,Surprise recog test,2023.1.3,59.936120085223756,
278,0,278,0,,,,,,,,,,,,,,,,,,,,,,,,,,,,,,,,,,1060.6587549999822,1061.672518599953,1059.3792647999944,1059.3792647999944,1059.3792647999944,1059.3792647999944,new_sceneIn_36.png,279,5.0,1.2794657000340521,,069,00,2025-04-08_16h31.33.076,Surprise recog test,2023.1.3,59.936120085223756,
279,0,279,0,,,,,,,,,,,,,,,,,,,,,,,,,,,,,,,,,,1062.8488114000065,1063.87867559999,1061.672518599953,1061.672518599953,1061.672518599953,1061.672518599953,old_sceneOut_26.png,280,5.0,1.176357900025323,,069,00,2025-04-08_16h31.33.076,Surprise recog test,2023.1.3,59.936120085223756,
280,0,280,0,,,,,,,,,,,,,,,,,,,,,,,,,,,,,,,,,,1065.985087399953,1067.0161205999902,1063.87867559999,1063.87867559999,1063.87867559999,1063.87867559999,old_stationery_42.png,281,2.0,2.107977600011509,,069,00,2025-04-08_16h31.33.076,Surprise recog test,2023.1.3,59.936120085223756,
281,0,281,0,,,,,,,,,,,,,,,,,,,,,,,,,,,,,,,,,,1068.848924299993,1069.8638978999807,1067.0161205999902,1067.0161205999902,1067.0161205999902,1067.0161205999902,old_sceneOut_24.png,282,4.0,1.835867500049062,,069,00,2025-04-08_16h31.33.076,Surprise recog test,2023.1.3,59.936120085223756,
282,0,282,0,,,,,,,,,,,,,,,,,,,,,,,,,,,,,,,,,,1071.166584199993,1072.1717686000047,1069.8638978999807,1069.8638978999807,1069.8638978999807,1069.8638978999807,old_fruit_3.png,283,3.0,1.299362400022801,,069,00,2025-04-08_16h31.33.076,Surprise recog test,2023.1.3,59.936120085223756,
283,0,283,0,,,,,,,,,,,,,,,,,,,,,,,,,,,,,,,,,,1073.3654668999952,1074.3800983999972,1072.1717686000047,1072.1717686000047,1072.1717686000047,1072.1717686000047,old_sceneOut_42.png,284,5.0,1.1894386000349186,,069,00,2025-04-08_16h31.33.076,Surprise recog test,2023.1.3,59.936120085223756,
284,0,284,0,,,,,,,,,,,,,,,,,,,,,,,,,,,,,,,,,,1076.2581408999977,,1074.3800983999972,1074.3800983999972,1074.3800983999972,1074.3800983999972,old_fruit_22.png,285,3.0,1.8754703999729827,,069,00,2025-04-08_16h31.33.076,Surprise recog test,2023.1.3,59.936120085223756,
285,0,285,0,,,,,,,,,,,,,,,,,,,,,,,,,,,,,,,,,,1078.4875696999952,1079.4981155999703,1077.289346799953,1077.289346799953,1077.289346799953,1077.289346799953,new_sceneIn_47.png,286,4.0,1.199606800044421,,069,00,2025-04-08_16h31.33.076,Surprise recog test,2023.1.3,59.936120085223756,
286,0,286,0,,,,,,,,,,,,,,,,,,,,,,,,,,,,,,,,,,1081.6962987000006,,1079.4981155999703,1079.4981155999703,1079.4981155999703,1079.4981155999703,old_sceneOut_34.png,287,4.0,2.193438199989032,,069,00,2025-04-08_16h31.33.076,Surprise recog test,2023.1.3,59.936120085223756,
287,0,287,0,,,,,,,,,,,,,,,,,,,,,,,,,,,,,,,,,,1085.1264076999505,1086.151807999995,1082.712936099968,1082.712936099968,1082.712936099968,1082.712936099968,new_sceneOut_6.png,288,5.0,2.4072298000101,,069,00,2025-04-08_16h31.33.076,Surprise recog test,2023.1.3,59.936120085223756,
288,0,288,0,,,,,,,,,,,,,,,,,,,,,,,,,,,,,,,,,,1088.0010922999936,,1086.151807999995,1086.151807999995,1086.151807999995,1086.151807999995,old_stationery_14.png,289,1.0,1.8514586000237614,,069,00,2025-04-08_16h31.33.076,Surprise recog test,2023.1.3,59.936120085223756,
289,0,289,0,,,,,,,,,,,,,,,,,,,,,,,,,,,,,,,,,,1090.2734086999553,1091.3018317999667,1089.0311643999885,1089.0311643999885,1089.0311643999885,1089.0311643999885,old_stationery_13.png,290,1.0,1.2416299000033177,,069,00,2025-04-08_16h31.33.076,Surprise recog test,2023.1.3,59.936120085223756,
290,0,290,0,,,,,,,,,,,,,,,,,,,,,,,,,,,,,,,,,,1092.7662102999748,1093.789949900005,1091.3018317999667,1091.3018317999667,1091.3018317999667,1091.3018317999667,new_sceneIn_3.png,291,4.0,1.4667464999947697,,069,00,2025-04-08_16h31.33.076,Surprise recog test,2023.1.3,59.936120085223756,
291,0,291,0,,,,,,,,,,,,,,,,,,,,,,,,,,,,,,,,,,1095.0690626999713,1096.0868726999615,1093.789949900005,1093.789949900005,1093.789949900005,1093.789949900005,new_sceneIn_43.png,292,5.0,1.2805800000205636,,069,00,2025-04-08_16h31.33.076,Surprise recog test,2023.1.3,59.936120085223756,
292,0,292,0,,,,,,,,,,,,,,,,,,,,,,,,,,,,,,,,,,1098.2875236999826,1099.3081541999709,1096.0868726999615,1096.0868726999615,1096.0868726999615,1096.0868726999615,old_stationery_25.png,293,4.0,2.201952000032179,,069,00,2025-04-08_16h31.33.076,Surprise recog test,2023.1.3,59.936120085223756,
293,0,293,0,,,,,,,,,,,,,,,,,,,,,,,,,,,,,,,,,,1100.9104798999615,,1099.3081541999709,1099.3081541999709,1099.3081541999709,1099.3081541999709,new_sceneIn_40.png,294,5.0,1.603922100039199,,069,00,2025-04-08_16h31.33.076,Surprise recog test,2023.1.3,59.936120085223756,
294,0,294,0,,,,,,,,,,,,,,,,,,,,,,,,,,,,,,,,,,1103.4203657999751,1104.4436634999583,1101.9412851999514,1101.9412851999514,1101.9412851999514,1101.9412851999514,new_fruit_21.png,295,3.0,1.478826999955345,,069,00,2025-04-08_16h31.33.076,Surprise recog test,2023.1.3,59.936120085223756,
295,0,295,0,,,,,,,,,,,,,,,,,,,,,,,,,,,,,,,,,,1105.4520738999709,1106.4827446999843,1104.4436634999583,1104.4436634999583,1104.4436634999583,1104.4436634999583,new_sceneIn_14.png,296,4.0,1.0079891000059433,,069,00,2025-04-08_16h31.33.076,Surprise recog test,2023.1.3,59.936120085223756,
296,0,296,0,,,,,,,,,,,,,,,,,,,,,,,,,,,,,,,,,,1107.6253777999664,1108.6489023999893,1106.4827446999843,1106.4827446999843,1106.4827446999843,1106.4827446999843,old_sceneOut_50.png,297,5.0,1.1426744000054896,,069,00,2025-04-08_16h31.33.076,Surprise recog test,2023.1.3,59.936120085223756,
297,0,297,0,,,,,,,,,,,,,,,,,,,,,,,,,,,,,,,,,,1111.3392603999819,1112.3699599999818,1108.6489023999893,1108.6489023999893,1108.6489023999893,1108.6489023999893,old_stationery_1.png,298,4.0,2.6894960000063293,,069,00,2025-04-08_16h31.33.076,Surprise recog test,2023.1.3,59.936120085223756,
298,0,298,0,,,,,,,,,,,,,,,,,,,,,,,,,,,,,,,,,,1114.3275090999668,1115.3560989999678,1112.3699599999818,1112.3699599999818,1112.3699599999818,1112.3699599999818,old_stationery_45.png,299,2.0,1.960006900015287,,069,00,2025-04-08_16h31.33.076,Surprise recog test,2023.1.3,59.936120085223756,
299,0,299,0,,,,,,,,,,,,,,,,,,,,,,,,,,,,,,,,,,1117.906499099976,1118.9237360999687,1115.3560989999678,1115.3560989999678,1115.3560989999678,1115.3560989999678,new_stationery_45.png,300,2.0,2.5525789000093937,,069,00,2025-04-08_16h31.33.076,Surprise recog test,2023.1.3,59.936120085223756,
300,0,300,0,,,,,,,,,,,,,,,,,,,,,,,,,,,,,,,,,,1120.7705921999877,1121.8022529999726,1118.9237360999687,1118.9237360999687,1118.9237360999687,1118.9237360999687,new_stationery_30.png,301,2.0,1.847889100026805,,069,00,2025-04-08_16h31.33.076,Surprise recog test,2023.1.3,59.936120085223756,
301,0,301,0,,,,,,,,,,,,,,,,,,,,,,,,,,,,,,,,,,1123.3881947000045,1124.4122162999702,1121.8022529999726,1121.8022529999726,1121.8022529999726,1121.8022529999726,new_fruit_2.png,302,3.0,1.5904937000013888,,069,00,2025-04-08_16h31.33.076,Surprise recog test,2023.1.3,59.936120085223756,
302,0,302,0,,,,,,,,,,,,,,,,,,,,,,,,,,,,,,,,,,1126.034523099952,1127.0583387999795,1124.4122162999702,1124.4122162999702,1124.4122162999702,1124.4122162999702,new_stationery_6.png,303,4.0,1.6213954000268131,,069,00,2025-04-08_16h31.33.076,Surprise recog test,2023.1.3,59.936120085223756,
303,0,303,0,,,,,,,,,,,,,,,,,,,,,,,,,,,,,,,,,,1130.013375199982,1131.0272136999993,1127.0583387999795,1127.0583387999795,1127.0583387999795,1127.0583387999795,old_stationery_27.png,304,1.0,2.953998999961186,,069,00,2025-04-08_16h31.33.076,Surprise recog test,2023.1.3,59.936120085223756,
304,0,304,0,,,,,,,,,,,,,,,,,,,,,,,,,,,,,,,,,,1131.887633699982,,1131.0272136999993,1131.0272136999993,1131.0272136999993,1131.0272136999993,new_stationery_28.png,305,1.0,0.8599414000054821,,069,00,2025-04-08_16h31.33.076,Surprise recog test,2023.1.3,59.936120085223756,
305,0,305,0,,,,,,,,,,,,,,,,,,,,,,,,,,,,,,,,,,1135.0213810999994,1136.0390250000055,1132.9081006000051,1132.9081006000051,1132.9081006000051,1132.9081006000051,new_sceneIn_2.png,306,5.0,2.1093417000374757,,069,00,2025-04-08_16h31.33.076,Surprise recog test,2023.1.3,59.936120085223756,
306,0,306,0,,,,,,,,,,,,,,,,,,,,,,,,,,,,,,,,,,1137.3023137999699,1138.3253455999657,1136.0390250000055,1136.0390250000055,1136.0390250000055,1136.0390250000055,old_fruit_36.png,307,3.0,1.2641535999719054,,069,00,2025-04-08_16h31.33.076,Surprise recog test,2023.1.3,59.936120085223756,
307,0,307,0,,,,,,,,,,,,,,,,,,,,,,,,,,,,,,,,,,1140.111574999988,1141.1361931999563,1138.3253455999657,1138.3253455999657,1138.3253455999657,1138.3253455999657,old_sceneOut_31.png,308,4.0,1.78851870005019,,069,00,2025-04-08_16h31.33.076,Surprise recog test,2023.1.3,59.936120085223756,
308,0,308,0,,,,,,,,,,,,,,,,,,,,,,,,,,,,,,,,,,1143.4015699999873,1144.4277057999861,1141.1361931999563,1141.1361931999563,1141.1361931999563,1141.1361931999563,new_sceneOut_35.png,309,4.0,2.26194520003628,,069,00,2025-04-08_16h31.33.076,Surprise recog test,2023.1.3,59.936120085223756,
309,0,309,0,,,,,,,,,,,,,,,,,,,,,,,,,,,,,,,,,,1146.1773810999584,1147.1984217999852,1144.4277057999861,1144.4277057999861,1144.4277057999861,1144.4277057999861,new_sceneIn_31.png,310,5.0,1.7483859999920242,,069,00,2025-04-08_16h31.33.076,Surprise recog test,2023.1.3,59.936120085223756,
310,0,310,0,,,,,,,,,,,,,,,,,,,,,,,,,,,,,,,,,,1148.910532699956,1149.9291884999839,1147.1984217999852,1147.1984217999852,1147.1984217999852,1147.1984217999852,new_sceneOut_11.png,311,5.0,1.713045000040438,,069,00,2025-04-08_16h31.33.076,Surprise recog test,2023.1.3,59.936120085223756,
311,0,311,0,,,,,,,,,,,,,,,,,,,,,,,,,,,,,,,,,,1152.0583689999767,1153.0920383000048,1149.9291884999839,1149.9291884999839,1149.9291884999839,1149.9291884999839,new_stationery_27.png,312,4.0,2.13029010000173,,069,00,2025-04-08_16h31.33.076,Surprise recog test,2023.1.3,59.936120085223756,
312,0,312,0,,,,,,,,,,,,,,,,,,,,,,,,,,,,,,,,,,1154.419764899998,1155.4242764999508,1153.0920383000048,1153.0920383000048,1153.0920383000048,1153.0920383000048,old_fruit_50.png,313,3.0,1.330895600025542,,069,00,2025-04-08_16h31.33.076,Surprise recog test,2023.1.3,59.936120085223756,
313,0,313,0,,,,,,,,,,,,,,,,,,,,,,,,,,,,,,,,,,1157.2222264999873,1158.2411754999775,1155.4242764999508,1155.4242764999508,1155.4242764999508,1155.4242764999508,old_sceneOut_33.png,314,4.0,1.7898475000401959,,069,00,2025-04-08_16h31.33.076,Surprise recog test,2023.1.3,59.936120085223756,
314,0,314,0,,,,,,,,,,,,,,,,,,,,,,,,,,,,,,,,,,1159.451796499954,1160.478182699997,1158.2411754999775,1158.2411754999775,1158.2411754999775,1158.2411754999775,old_sceneIn_49.png,315,5.0,1.2125691000255756,,069,00,2025-04-08_16h31.33.076,Surprise recog test,2023.1.3,59.936120085223756,
315,0,315,0,,,,,,,,,,,,,,,,,,,,,,,,,,,,,,,,,,1161.690142699983,1162.7112025999813,1160.478182699997,1160.478182699997,1160.478182699997,1160.478182699997,new_sceneOut_22.png,316,5.0,1.2132757999934256,,069,00,2025-04-08_16h31.33.076,Surprise recog test,2023.1.3,59.936120085223756,
316,0,316,0,,,,,,,,,,,,,,,,,,,,,,,,,,,,,,,,,,1164.7738668999518,1165.8018292000052,1162.7112025999813,1162.7112025999813,1162.7112025999813,1162.7112025999813,new_stationery_13.png,317,4.0,2.0643206000095233,,069,00,2025-04-08_16h31.33.076,Surprise recog test,2023.1.3,59.936120085223756,
317,0,317,0,,,,,,,,,,,,,,,,,,,,,,,,,,,,,,,,,,1167.5965417999541,1168.6142579999869,1165.8018292000052,1165.8018292000052,1165.8018292000052,1165.8018292000052,old_fruit_19.png,318,4.0,1.7935716999927536,,069,00,2025-04-08_16h31.33.076,Surprise recog test,2023.1.3,59.936120085223756,
318,0,318,0,,,,,,,,,,,,,,,,,,,,,,,,,,,,,,,,,,1170.4152025000076,1171.4360071999836,1168.6142579999869,1168.6142579999869,1168.6142579999869,1168.6142579999869,old_sceneIn_4.png,319,3.0,1.8036760000395589,,069,00,2025-04-08_16h31.33.076,Surprise recog test,2023.1.3,59.936120085223756,
319,0,319,0,,,,,,,,,,,,,,,,,,,,,,,,,,,,,,,,,,1173.2345207000035,1174.2423307999852,1171.4360071999836,1171.4360071999836,1171.4360071999836,1171.4360071999836,new_sceneOut_21.png,320,3.0,1.794998899975326,,069,00,2025-04-08_16h31.33.076,Surprise recog test,2023.1.3,59.936120085223756,
320,0,320,0,,,,,,,,,,,,,,,,,,,,,,,,,,,,,,,,,,1175.3577913999907,1176.3896971999784,1174.2423307999852,1174.2423307999852,1174.2423307999852,1174.2423307999852,new_fruit_50.png,321,3.0,1.111391199985519,,069,00,2025-04-08_16h31.33.076,Surprise recog test,2023.1.3,59.936120085223756,
321,0,321,0,,,,,,,,,,,,,,,,,,,,,,,,,,,,,,,,,,1178.848066299979,1179.8764411999728,1176.3896971999784,1176.3896971999784,1176.3896971999784,1176.3896971999784,old_stationery_22.png,322,1.0,2.4577399999834597,,069,00,2025-04-08_16h31.33.076,Surprise recog test,2023.1.3,59.936120085223756,
322,0,322,0,,,,,,,,,,,,,,,,,,,,,,,,,,,,,,,,,,1181.84166549996,1182.8601743999752,1179.8764411999728,1179.8764411999728,1179.8764411999728,1179.8764411999728,new_stationery_49.png,323,4.0,1.9655483000096865,,069,00,2025-04-08_16h31.33.076,Surprise recog test,2023.1.3,59.936120085223756,
323,0,323,0,,,,,,,,,,,,,,,,,,,,,,,,,,,,,,,,,,1184.891385899973,1185.9077302999794,1182.8601743999752,1182.8601743999752,1182.8601743999752,1182.8601743999752,old_sceneOut_35.png,324,4.0,2.0302262000041083,,069,00,2025-04-08_16h31.33.076,Surprise recog test,2023.1.3,59.936120085223756,
324,0,324,0,,,,,,,,,,,,,,,,,,,,,,,,,,,,,,,,,,1187.221726299962,1188.242887899978,1185.9077302999794,1185.9077302999794,1185.9077302999794,1185.9077302999794,old_sceneOut_21.png,325,5.0,1.3150685000000522,,069,00,2025-04-08_16h31.33.076,Surprise recog test,2023.1.3,59.936120085223756,
325,0,325,0,,,,,,,,,,,,,,,,,,,,,,,,,,,,,,,,,,1190.1041030999622,1191.134027299995,1188.242887899978,1188.242887899978,1188.242887899978,1188.242887899978,old_sceneOut_20.png,326,4.0,1.8625743999728002,,069,00,2025-04-08_16h31.33.076,Surprise recog test,2023.1.3,59.936120085223756,
326,0,326,0,,,,,,,,,,,,,,,,,,,,,,,,,,,,,,,,,,1192.8756917999708,1193.8922314999509,1191.134027299995,1191.134027299995,1191.134027299995,1191.134027299995,old_sceneIn_27.png,327,5.0,1.7412486999528483,,069,00,2025-04-08_16h31.33.076,Surprise recog test,2023.1.3,59.936120085223756,
327,0,327,0,,,,,,,,,,,,,,,,,,,,,,,,,,,,,,,,,,1196.2369992999593,1197.2530180999893,1193.8922314999509,1193.8922314999509,1193.8922314999509,1193.8922314999509,old_fruit_37.png,328,3.0,2.3343942000065,,069,00,2025-04-08_16h31.33.076,Surprise recog test,2023.1.3,59.936120085223756,
328,0,328,0,,,,,,,,,,,,,,,,,,,,,,,,,,,,,,,,,,1199.8681922999676,1200.8948431999888,1197.2530180999893,1197.2530180999893,1197.2530180999893,1197.2530180999893,new_fruit_20.png,329,3.0,2.616139399993699,,069,00,2025-04-08_16h31.33.076,Surprise recog test,2023.1.3,59.936120085223756,
329,0,329,0,,,,,,,,,,,,,,,,,,,,,,,,,,,,,,,,,,1202.4900873999577,1203.508031299978,1200.8948431999888,1200.8948431999888,1200.8948431999888,1200.8948431999888,old_stationery_34.png,330,2.0,1.5978491999558173,,069,00,2025-04-08_16h31.33.076,Surprise recog test,2023.1.3,59.936120085223756,
330,0,330,0,,,,,,,,,,,,,,,,,,,,,,,,,,,,,,,,,,1205.0657986999722,1206.0979293999844,1203.508031299978,1203.508031299978,1203.508031299978,1203.508031299978,old_stationery_28.png,331,1.0,1.5591918000136502,,069,00,2025-04-08_16h31.33.076,Surprise recog test,2023.1.3,59.936120085223756,
331,0,331,0,,,,,,,,,,,,,,,,,,,,,,,,,,,,,,,,,,1208.4916740999906,1209.5088281999924,1206.0979293999844,1206.0979293999844,1206.0979293999844,1206.0979293999844,new_stationery_11.png,332,4.0,2.395691700046882,,069,00,2025-04-08_16h31.33.076,Surprise recog test,2023.1.3,59.936120085223756,
332,0,332,0,,,,,,,,,,,,,,,,,,,,,,,,,,,,,,,,,,1211.559495900001,1212.5842192999553,1209.5088281999924,1209.5088281999924,1209.5088281999924,1209.5088281999924,old_fruit_46.png,333,4.0,2.0488006999948993,,069,00,2025-04-08_16h31.33.076,Surprise recog test,2023.1.3,59.936120085223756,
333,0,333,0,,,,,,,,,,,,,,,,,,,,,,,,,,,,,,,,,,1215.3299604000058,1216.355683999951,1212.5842192999553,1212.5842192999553,1212.5842192999553,1212.5842192999553,old_sceneOut_8.png,334,2.0,2.7481292000156827,,069,00,2025-04-08_16h31.33.076,Surprise recog test,2023.1.3,59.936120085223756,
334,0,334,0,,,,,,,,,,,,,,,,,,,,,,,,,,,,,,,,,,1217.7380670999992,1218.7543041000026,1216.355683999951,1216.355683999951,1216.355683999951,1216.355683999951,old_sceneIn_21.png,335,5.0,1.3843524999683723,,069,00,2025-04-08_16h31.33.076,Surprise recog test,2023.1.3,59.936120085223756,
335,0,335,0,,,,,,,,,,,,,,,,,,,,,,,,,,,,,,,,,,1220.9994871999952,1222.030372099951,1218.7543041000026,1218.7543041000026,1218.7543041000026,1218.7543041000026,new_stationery_46.png,336,4.0,2.2461754000396468,,069,00,2025-04-08_16h31.33.076,Surprise recog test,2023.1.3,59.936120085223756,
336,0,336,0,,,,,,,,,,,,,,,,,,,,,,,,,,,,,,,,,,1223.5554744999972,1224.5671057999716,1222.030372099951,1222.030372099951,1222.030372099951,1222.030372099951,old_sceneOut_27.png,337,4.0,1.527754599985201,,069,00,2025-04-08_16h31.33.076,Surprise recog test,2023.1.3,59.936120085223756,
337,0,337,0,,,,,,,,,,,,,,,,,,,,,,,,,,,,,,,,,,1226.0174633999704,1227.047489599965,1224.5671057999716,1224.5671057999716,1224.5671057999716,1224.5671057999716,new_sceneIn_25.png,338,5.0,1.445672800007742,,069,00,2025-04-08_16h31.33.076,Surprise recog test,2023.1.3,59.936120085223756,
338,0,338,0,,,,,,,,,,,,,,,,,,,,,,,,,,,,,,,,,,1229.1647249999805,1230.172053999966,1227.047489599965,1227.047489599965,1227.047489599965,1227.047489599965,new_fruit_17.png,339,2.0,2.1190251000225544,,069,00,2025-04-08_16h31.33.076,Surprise recog test,2023.1.3,59.936120085223756,
339,0,339,0,,,,,,,,,,,,,,,,,,,,,,,,,,,,,,,,,,1232.134445099975,1233.156374299957,1230.172053999966,1230.172053999966,1230.172053999966,1230.172053999966,old_sceneIn_22.png,340,5.0,1.9580004999879748,,069,00,2025-04-08_16h31.33.076,Surprise recog test,2023.1.3,59.936120085223756,
340,0,340,0,,,,,,,,,,,,,,,,,,,,,,,,,,,,,,,,,,1235.5907369999913,,1233.156374299957,1233.156374299957,1233.156374299957,1233.156374299957,new_fruit_5.png,341,3.0,2.437636799993925,,069,00,2025-04-08_16h31.33.076,Surprise recog test,2023.1.3,59.936120085223756,
341,0,341,0,,,,,,,,,,,,,,,,,,,,,,,,,,,,,,,,,,1239.0604669000022,1240.0906511999783,1236.6242566999863,1236.6242566999863,1236.6242566999863,1236.6242566999863,new_sceneOut_32.png,342,4.0,2.4385607999865897,,069,00,2025-04-08_16h31.33.076,Surprise recog test,2023.1.3,59.936120085223756,
342,0,342,0,,,,,,,,,,,,,,,,,,,,,,,,,,,,,,,,,,1242.0268907999853,1243.0334398999694,1240.0906511999783,1240.0906511999783,1240.0906511999783,1240.0906511999783,old_sceneOut_44.png,343,4.0,1.933776999998372,,069,00,2025-04-08_16h31.33.076,Surprise recog test,2023.1.3,59.936120085223756,
343,0,343,0,,,,,,,,,,,,,,,,,,,,,,,,,,,,,,,,,,1244.3171302999835,1245.344902599987,1243.0334398999694,1243.0334398999694,1243.0334398999694,1243.0334398999694,old_sceneIn_46.png,344,5.0,1.2770224999985658,,069,00,2025-04-08_16h31.33.076,Surprise recog test,2023.1.3,59.936120085223756,
344,0,344,0,,,,,,,,,,,,,,,,,,,,,,,,,,,,,,,,,,1247.9962454999913,1249.0188378999592,1245.344902599987,1245.344902599987,1245.344902599987,1245.344902599987,old_stationery_33.png,345,3.0,2.6520580999786034,,069,00,2025-04-08_16h31.33.076,Surprise recog test,2023.1.3,59.936120085223756,
345,0,345,0,,,,,,,,,,,,,,,,,,,,,,,,,,,,,,,,,,1251.3508288000012,1252.3539364999742,1249.0188378999592,1249.0188378999592,1249.0188378999592,1249.0188378999592,old_sceneIn_2.png,346,4.0,2.3319910999853164,,069,00,2025-04-08_16h31.33.076,Surprise recog test,2023.1.3,59.936120085223756,
346,0,346,0,,,,,,,,,,,,,,,,,,,,,,,,,,,,,,,,,,1253.4845078999642,1254.497227099957,1252.3539364999742,1252.3539364999742,1252.3539364999742,1252.3539364999742,old_sceneIn_16.png,347,4.0,1.1202267000335269,,069,00,2025-04-08_16h31.33.076,Surprise recog test,2023.1.3,59.936120085223756,
347,0,347,0,,,,,,,,,,,,,,,,,,,,,,,,,,,,,,,,,,1256.4472742999787,1257.4727636000025,1254.497227099957,1254.497227099957,1254.497227099957,1254.497227099957,new_sceneIn_24.png,348,4.0,1.9503134000115097,,069,00,2025-04-08_16h31.33.076,Surprise recog test,2023.1.3,59.936120085223756,
348,0,348,0,,,,,,,,,,,,,,,,,,,,,,,,,,,,,,,,,,1259.1242156999651,1260.1437417999841,1257.4727636000025,1257.4727636000025,1257.4727636000025,1257.4727636000025,old_sceneOut_6.png,349,3.0,1.6526033999980427,,069,00,2025-04-08_16h31.33.076,Surprise recog test,2023.1.3,59.936120085223756,
349,0,349,0,,,,,,,,,,,,,,,,,,,,,,,,,,,,,,,,,,1261.7905741999857,1262.8075110999634,1260.1437417999841,1260.1437417999841,1260.1437417999841,1260.1437417999841,old_sceneIn_42.png,350,4.0,1.650951499992516,,069,00,2025-04-08_16h31.33.076,Surprise recog test,2023.1.3,59.936120085223756,
350,0,350,0,,,,,,,,,,,,,,,,,,,,,,,,,,,,,,,,,,1265.5946140000015,1266.6087100000004,1262.8075110999634,1262.8075110999634,1262.8075110999634,1262.8075110999634,old_sceneIn_28.png,351,4.0,2.78169740003068,,069,00,2025-04-08_16h31.33.076,Surprise recog test,2023.1.3,59.936120085223756,
351,0,351,0,,,,,,,,,,,,,,,,,,,,,,,,,,,,,,,,,,1269.385497399955,,1266.6087100000004,1266.6087100000004,1266.6087100000004,1266.6087100000004,old_stationery_30.png,352,2.0,2.7769788000150584,,069,00,2025-04-08_16h31.33.076,Surprise recog test,2023.1.3,59.936120085223756,
352,0,352,0,,,,,,,,,,,,,,,,,,,,,,,,,,,,,,,,,,1272.833583300002,1273.851731600007,1270.4178044999717,1270.4178044999717,1270.4178044999717,1270.4178044999717,new_stationery_37.png,353,4.0,2.4178317000041716,,069,00,2025-04-08_16h31.33.076,Surprise recog test,2023.1.3,59.936120085223756,
