trial_loop.thisRepN,trial_loop.thisTrialN,trial_loop.thisN,trial_loop.thisIndex,VAS_slider.started,VAS_text.started,VAS_notstressed_text.started,VAS_stressed_text.started,continue_input.started,continue_text.started,label0.started,label10.started,label20.started,label30.started,label40.started,label50.started,label60.started,label70.started,label80.started,label90.started,label100.started,VAS_slider.response,VAS_slider.rt,VAS_slider.history,Answer_VAS,continue_input.keys,instruction_text.started,continue_text_2.started,continue_input_2.started,continue_input_2.keys,continue_input_2.rt,continue_input_2.duration,example_text.started,example_slider_2.started,example_image.started,example_slider_2.response,example_slider_2.rt,fixcross.started,fixcross.stopped,front_square.started,stim_images.started,trial_inst_images.started,slider_images.started,thisImg,trial_count,slider_images.response,slider_images.rt,slider_images.stopped,outro.started,participant,condition,date,expName,psychopyVersion,frameRate,
,,,,1051.7457779999822,1051.7457779999822,1051.7457779999822,1051.7457779999822,1051.7457779999822,1051.7457779999822,1051.7457779999822,1051.7457779999822,1051.7457779999822,1051.7457779999822,1051.7457779999822,1051.7457779999822,1051.7457779999822,1051.7457779999822,1051.7457779999822,1051.7457779999822,1051.7457779999822,1.9666666666666666,5.3471127999946475,"[(1.9666666666666666, 5.3471127999946475)]",1.9666666666666666,None,,,,,,,,,,,,,,,,,,,,,,,,070,00,2025-04-17_14h12.38.903,Surprise recog test,2023.1.3,59.973971293756016,
,,,,,,,,,,,,,,,,,,,,,,,,,,1057.123451200081,1057.123451200081,1057.123451200081,space,19.129155199974775,None,,,,,,,,,,,,,,,,,,070,00,2025-04-17_14h12.38.903,Surprise recog test,2023.1.3,59.973971293756016,
0,0,0,0,,,,,,,,,,,,,,,,,,,,,,,,,,,,,1076.3646490999963,1076.3646490999963,1076.3646490999963,2.0,18.67532870010473,1098.4964785000775,1099.5266658000182,1096.0201644001063,1096.0201644001063,1096.0201644001063,1096.0201644001063,old_stationery_4.png,1,4.0,2.479737800080329,,,070,00,2025-04-17_14h12.38.903,Surprise recog test,2023.1.3,59.973971293756016,
1,0,1,0,,,,,,,,,,,,,,,,,,,,,,,,,,,,,,,,,,1102.0393077000044,1103.0601086001843,1099.5266658000182,1099.5266658000182,1099.5266658000182,1099.5266658000182,old_stationery_48.png,2,3.0,2.5149832000024617,,,070,00,2025-04-17_14h12.38.903,Surprise recog test,2023.1.3,59.973971293756016,
2,0,2,0,,,,,,,,,,,,,,,,,,,,,,,,,,,,,,,,,,1104.9256890001707,1105.9507515002042,1103.0601086001843,1103.0601086001843,1103.0601086001843,1103.0601086001843,old_sceneIn_14.png,3,1.0,1.8651493000797927,,,070,00,2025-04-17_14h12.38.903,Surprise recog test,2023.1.3,59.973971293756016,
3,0,3,0,,,,,,,,,,,,,,,,,,,,,,,,,,,,,,,,,,1108.0858190001454,1109.1072291000746,1105.9507515002042,1105.9507515002042,1105.9507515002042,1105.9507515002042,old_sceneIn_13.png,4,1.0,2.13846329995431,,,070,00,2025-04-17_14h12.38.903,Surprise recog test,2023.1.3,59.973971293756016,
4,0,4,0,,,,,,,,,,,,,,,,,,,,,,,,,,,,,,,,,,1111.2909833001904,1112.3198747001588,1109.1072291000746,1109.1072291000746,1109.1072291000746,1109.1072291000746,old_fruit_35.png,5,3.0,2.1828640999738127,,,070,00,2025-04-17_14h12.38.903,Surprise recog test,2023.1.3,59.973971293756016,
5,0,5,0,,,,,,,,,,,,,,,,,,,,,,,,,,,,,,,,,,1114.3596931002103,1115.3889298001304,1112.3198747001588,1112.3198747001588,1112.3198747001588,1112.3198747001588,new_sceneOut_48.png,6,5.0,2.0399565999396145,,,070,00,2025-04-17_14h12.38.903,Surprise recog test,2023.1.3,59.973971293756016,
6,0,6,0,,,,,,,,,,,,,,,,,,,,,,,,,,,,,,,,,,1117.4834513000678,1118.5068982001394,1115.3889298001304,1115.3889298001304,1115.3889298001304,1115.3889298001304,old_stationery_17.png,7,3.0,2.0951453000307083,,,070,00,2025-04-17_14h12.38.903,Surprise recog test,2023.1.3,59.973971293756016,
7,0,7,0,,,,,,,,,,,,,,,,,,,,,,,,,,,,,,,,,,1120.40479890001,1121.4266067000572,1118.5068982001394,1118.5068982001394,1118.5068982001394,1118.5068982001394,old_fruit_15.png,8,2.0,1.8989772000350058,,,070,00,2025-04-17_14h12.38.903,Surprise recog test,2023.1.3,59.973971293756016,
8,0,8,0,,,,,,,,,,,,,,,,,,,,,,,,,,,,,,,,,,1122.8009148000274,1123.8304690001532,1121.4266067000572,1121.4266067000572,1121.4266067000572,1121.4266067000572,old_stationery_21.png,9,3.0,1.3749126999173313,,,070,00,2025-04-17_14h12.38.903,Surprise recog test,2023.1.3,59.973971293756016,
9,0,9,0,,,,,,,,,,,,,,,,,,,,,,,,,,,,,,,,,,1125.5473437001929,,1123.8304690001532,1123.8304690001532,1123.8304690001532,1123.8304690001532,old_fruit_49.png,10,1.0,1.7196107001509517,,,070,00,2025-04-17_14h12.38.903,Surprise recog test,2023.1.3,59.973971293756016,
10,0,10,0,,,,,,,,,,,,,,,,,,,,,,,,,,,,,,,,,,1128.2247854000889,1129.249648099998,1126.5696867001243,1126.5696867001243,1126.5696867001243,1126.5696867001243,new_fruit_2.png,11,1.0,1.6514026999939233,,,070,00,2025-04-17_14h12.38.903,Surprise recog test,2023.1.3,59.973971293756016,
11,0,11,0,,,,,,,,,,,,,,,,,,,,,,,,,,,,,,,,,,1131.2333192001097,1132.2505040001124,1129.249648099998,1129.249648099998,1129.249648099998,1129.249648099998,new_fruit_40.png,12,4.0,1.9860488001722842,,,070,00,2025-04-17_14h12.38.903,Surprise recog test,2023.1.3,59.973971293756016,
12,0,12,0,,,,,,,,,,,,,,,,,,,,,,,,,,,,,,,,,,1134.1132648000494,1135.1331593000796,1132.2505040001124,1132.2505040001124,1132.2505040001124,1132.2505040001124,old_fruit_13.png,13,1.0,1.8607823001220822,,,070,00,2025-04-17_14h12.38.903,Surprise recog test,2023.1.3,59.973971293756016,
13,0,13,0,,,,,,,,,,,,,,,,,,,,,,,,,,,,,,,,,,1136.8369938000105,1137.854779300047,1135.1331593000796,1135.1331593000796,1135.1331593000796,1135.1331593000796,old_sceneIn_46.png,14,3.0,1.7046343002002686,,,070,00,2025-04-17_14h12.38.903,Surprise recog test,2023.1.3,59.973971293756016,
14,0,14,0,,,,,,,,,,,,,,,,,,,,,,,,,,,,,,,,,,1140.4053784999996,1141.428011200158,1137.854779300047,1137.854779300047,1137.854779300047,1137.854779300047,new_stationery_23.png,15,3.0,2.552160100080073,,,070,00,2025-04-17_14h12.38.903,Surprise recog test,2023.1.3,59.973971293756016,
15,0,15,0,,,,,,,,,,,,,,,,,,,,,,,,,,,,,,,,,,1143.0825907001272,1144.0993471001275,1141.428011200158,1141.428011200158,1141.428011200158,1141.428011200158,old_fruit_30.png,16,2.0,1.6579557000659406,,,070,00,2025-04-17_14h12.38.903,Surprise recog test,2023.1.3,59.973971293756016,
16,0,16,0,,,,,,,,,,,,,,,,,,,,,,,,,,,,,,,,,,1146.046267000027,1147.0499641001225,1144.0993471001275,1144.0993471001275,1144.0993471001275,1144.0993471001275,new_fruit_7.png,17,3.0,1.9442000000271946,,,070,00,2025-04-17_14h12.38.903,Surprise recog test,2023.1.3,59.973971293756016,
17,0,17,0,,,,,,,,,,,,,,,,,,,,,,,,,,,,,,,,,,1150.4279610000085,1151.450677700108,1147.0499641001225,1147.0499641001225,1147.0499641001225,1147.0499641001225,new_sceneIn_40.png,18,3.0,3.3745732998941094,,,070,00,2025-04-17_14h12.38.903,Surprise recog test,2023.1.3,59.973971293756016,
18,0,18,0,,,,,,,,,,,,,,,,,,,,,,,,,,,,,,,,,,1154.0011394000612,1155.0204755000304,1151.450677700108,1151.450677700108,1151.450677700108,1151.450677700108,old_sceneOut_1.png,19,2.0,2.5522224998567253,,,070,00,2025-04-17_14h12.38.903,Surprise recog test,2023.1.3,59.973971293756016,
19,0,19,0,,,,,,,,,,,,,,,,,,,,,,,,,,,,,,,,,,1156.5324754000176,1157.5576644001994,1155.0204755000304,1155.0204755000304,1155.0204755000304,1155.0204755000304,new_stationery_26.png,20,3.0,1.5132013999391347,,,070,00,2025-04-17_14h12.38.903,Surprise recog test,2023.1.3,59.973971293756016,
20,0,20,0,,,,,,,,,,,,,,,,,,,,,,,,,,,,,,,,,,1159.1988272001036,1160.2241849000566,1157.5576644001994,1157.5576644001994,1157.5576644001994,1157.5576644001994,old_stationery_42.png,21,2.0,1.6450383998453617,,,070,00,2025-04-17_14h12.38.903,Surprise recog test,2023.1.3,59.973971293756016,
21,0,21,0,,,,,,,,,,,,,,,,,,,,,,,,,,,,,,,,,,1161.834445200162,1162.8621831000783,1160.2241849000566,1160.2241849000566,1160.2241849000566,1160.2241849000566,new_sceneIn_42.png,22,3.0,1.6123637000564486,,,070,00,2025-04-17_14h12.38.903,Surprise recog test,2023.1.3,59.973971293756016,
22,0,22,0,,,,,,,,,,,,,,,,,,,,,,,,,,,,,,,,,,1164.9263420000207,1165.9475097001996,1162.8621831000783,1162.8621831000783,1162.8621831000783,1162.8621831000783,old_sceneIn_42.png,23,2.0,2.0658372999168932,,,070,00,2025-04-17_14h12.38.903,Surprise recog test,2023.1.3,59.973971293756016,
23,0,23,0,,,,,,,,,,,,,,,,,,,,,,,,,,,,,,,,,,1167.9235302000307,1168.9489097001497,1165.9475097001996,1165.9475097001996,1165.9475097001996,1165.9475097001996,old_stationery_12.png,24,1.0,1.9779074999969453,,,070,00,2025-04-17_14h12.38.903,Surprise recog test,2023.1.3,59.973971293756016,
24,0,24,0,,,,,,,,,,,,,,,,,,,,,,,,,,,,,,,,,,1170.4993032000493,1171.518607400125,1168.9489097001497,1168.9489097001497,1168.9489097001497,1168.9489097001497,old_stationery_32.png,25,3.0,1.5526408001314849,,,070,00,2025-04-17_14h12.38.903,Surprise recog test,2023.1.3,59.973971293756016,
25,0,25,0,,,,,,,,,,,,,,,,,,,,,,,,,,,,,,,,,,1174.202281899983,1175.2212592000142,1171.518607400125,1171.518607400125,1171.518607400125,1171.518607400125,old_fruit_34.png,26,3.0,2.685338400071487,,,070,00,2025-04-17_14h12.38.903,Surprise recog test,2023.1.3,59.973971293756016,
26,0,26,0,,,,,,,,,,,,,,,,,,,,,,,,,,,,,,,,,,1177.1120008002035,1178.1374045000412,1175.2212592000142,1175.2212592000142,1175.2212592000142,1175.2212592000142,new_sceneOut_44.png,27,4.0,1.8901082000229508,,,070,00,2025-04-17_14h12.38.903,Surprise recog test,2023.1.3,59.973971293756016,
27,0,27,0,,,,,,,,,,,,,,,,,,,,,,,,,,,,,,,,,,1180.8293591002002,1181.859565900173,1178.1374045000412,1178.1374045000412,1178.1374045000412,1178.1374045000412,new_sceneOut_16.png,28,3.0,2.69251439999789,,,070,00,2025-04-17_14h12.38.903,Surprise recog test,2023.1.3,59.973971293756016,
28,0,28,0,,,,,,,,,,,,,,,,,,,,,,,,,,,,,,,,,,1183.7940883000847,1184.8136909999885,1181.859565900173,1181.859565900173,1181.859565900173,1181.859565900173,old_sceneIn_7.png,29,4.0,1.9364599999971688,,,070,00,2025-04-17_14h12.38.903,Surprise recog test,2023.1.3,59.973971293756016,
29,0,29,0,,,,,,,,,,,,,,,,,,,,,,,,,,,,,,,,,,1186.62873090012,1187.6475651001092,1184.8136909999885,1184.8136909999885,1184.8136909999885,1184.8136909999885,new_stationery_47.png,30,5.0,1.8157237998675555,,,070,00,2025-04-17_14h12.38.903,Surprise recog test,2023.1.3,59.973971293756016,
30,0,30,0,,,,,,,,,,,,,,,,,,,,,,,,,,,,,,,,,,1190.2392169001978,1191.2621364002116,1187.6475651001092,1187.6475651001092,1187.6475651001092,1187.6475651001092,new_sceneIn_26.png,31,2.0,2.5932990999426693,,,070,00,2025-04-17_14h12.38.903,Surprise recog test,2023.1.3,59.973971293756016,
31,0,31,0,,,,,,,,,,,,,,,,,,,,,,,,,,,,,,,,,,1193.0044344000053,,1191.2621364002116,1191.2621364002116,1191.2621364002116,1191.2621364002116,new_stationery_45.png,32,3.0,1.7422341001220047,,,070,00,2025-04-17_14h12.38.903,Surprise recog test,2023.1.3,59.973971293756016,
32,0,32,0,,,,,,,,,,,,,,,,,,,,,,,,,,,,,,,,,,1196.3779071001336,1197.3954281001352,1194.0419966999907,1194.0419966999907,1194.0419966999907,1194.0419966999907,new_sceneOut_30.png,33,4.0,2.338527499930933,,,070,00,2025-04-17_14h12.38.903,Surprise recog test,2023.1.3,59.973971293756016,
33,0,33,0,,,,,,,,,,,,,,,,,,,,,,,,,,,,,,,,,,1199.676710500149,,1197.3954281001352,1197.3954281001352,1197.3954281001352,1197.3954281001352,old_sceneIn_33.png,34,5.0,2.274825899861753,,,070,00,2025-04-17_14h12.38.903,Surprise recog test,2023.1.3,59.973971293756016,
34,0,34,0,,,,,,,,,,,,,,,,,,,,,,,,,,,,,,,,,,1202.1706128001679,1203.195735000074,1200.7087913001888,1200.7087913001888,1200.7087913001888,1200.7087913001888,new_fruit_18.png,35,2.0,1.4636825998313725,,,070,00,2025-04-17_14h12.38.903,Surprise recog test,2023.1.3,59.973971293756016,
35,0,35,0,,,,,,,,,,,,,,,,,,,,,,,,,,,,,,,,,,1206.178188699996,1207.190917500062,1203.195735000074,1203.195735000074,1203.195735000074,1203.195735000074,new_fruit_10.png,36,4.0,2.977819100022316,,,070,00,2025-04-17_14h12.38.903,Surprise recog test,2023.1.3,59.973971293756016,
36,0,36,0,,,,,,,,,,,,,,,,,,,,,,,,,,,,,,,,,,1210.38348650001,1211.4011798000429,1207.190917500062,1207.190917500062,1207.190917500062,1207.190917500062,old_sceneOut_32.png,37,2.0,3.190441800048575,,,070,00,2025-04-17_14h12.38.903,Surprise recog test,2023.1.3,59.973971293756016,
37,0,37,0,,,,,,,,,,,,,,,,,,,,,,,,,,,,,,,,,,1212.7059687001165,1213.7304856001865,1211.4011798000429,1211.4011798000429,1211.4011798000429,1211.4011798000429,old_sceneOut_44.png,38,2.0,1.30736259999685,,,070,00,2025-04-17_14h12.38.903,Surprise recog test,2023.1.3,59.973971293756016,
38,0,38,0,,,,,,,,,,,,,,,,,,,,,,,,,,,,,,,,,,1215.9043744001538,1216.9174558001105,1213.7304856001865,1213.7304856001865,1213.7304856001865,1213.7304856001865,new_sceneOut_6.png,39,2.0,2.1739161000587046,,,070,00,2025-04-17_14h12.38.903,Surprise recog test,2023.1.3,59.973971293756016,
39,0,39,0,,,,,,,,,,,,,,,,,,,,,,,,,,,,,,,,,,1219.009011000162,,1216.9174558001105,1216.9174558001105,1216.9174558001105,1216.9174558001105,old_stationery_50.png,40,1.0,2.0905129997991025,,,070,00,2025-04-17_14h12.38.903,Surprise recog test,2023.1.3,59.973971293756016,
40,0,40,0,,,,,,,,,,,,,,,,,,,,,,,,,,,,,,,,,,1221.8911890001036,1222.899380700197,1220.0494226000737,1220.0494226000737,1220.0494226000737,1220.0494226000737,old_stationery_29.png,41,3.0,1.8428908998612314,,,070,00,2025-04-17_14h12.38.903,Surprise recog test,2023.1.3,59.973971293756016,
41,0,41,0,,,,,,,,,,,,,,,,,,,,,,,,,,,,,,,,,,1225.4129453999922,1226.4310674001463,1222.899380700197,1222.899380700197,1222.899380700197,1222.899380700197,new_sceneOut_8.png,42,3.0,2.511167199816555,,,070,00,2025-04-17_14h12.38.903,Surprise recog test,2023.1.3,59.973971293756016,
42,0,42,0,,,,,,,,,,,,,,,,,,,,,,,,,,,,,,,,,,1228.1877524000593,1229.219414500054,1226.4310674001463,1226.4310674001463,1226.4310674001463,1226.4310674001463,old_stationery_3.png,43,4.0,1.7565570999868214,,,070,00,2025-04-17_14h12.38.903,Surprise recog test,2023.1.3,59.973971293756016,
43,0,43,0,,,,,,,,,,,,,,,,,,,,,,,,,,,,,,,,,,1231.0564332001377,1232.0744114001282,1229.219414500054,1229.219414500054,1229.219414500054,1229.219414500054,old_sceneIn_31.png,44,3.0,1.8400451000779867,,,070,00,2025-04-17_14h12.38.903,Surprise recog test,2023.1.3,59.973971293756016,
44,0,44,0,,,,,,,,,,,,,,,,,,,,,,,,,,,,,,,,,,1234.0769280001987,1235.0966048000846,1232.0744114001282,1232.0744114001282,1232.0744114001282,1232.0744114001282,old_sceneIn_48.png,45,4.0,1.998308700043708,,,070,00,2025-04-17_14h12.38.903,Surprise recog test,2023.1.3,59.973971293756016,
45,0,45,0,,,,,,,,,,,,,,,,,,,,,,,,,,,,,,,,,,1237.1405911000911,,1235.0966048000846,1235.0966048000846,1235.0966048000846,1235.0966048000846,old_sceneOut_49.png,46,3.0,2.0440879999659956,,,070,00,2025-04-17_14h12.38.903,Surprise recog test,2023.1.3,59.973971293756016,
46,0,46,0,,,,,,,,,,,,,,,,,,,,,,,,,,,,,,,,,,1240.1730745001696,1241.18610310019,1238.1742645001505,1238.1742645001505,1238.1742645001505,1238.1742645001505,old_fruit_4.png,47,1.0,1.9979832998942584,,,070,00,2025-04-17_14h12.38.903,Surprise recog test,2023.1.3,59.973971293756016,
47,0,47,0,,,,,,,,,,,,,,,,,,,,,,,,,,,,,,,,,,1243.569073199993,1244.5938213001937,1241.18610310019,1241.18610310019,1241.18610310019,1241.18610310019,old_stationery_19.png,48,4.0,2.377129300031811,,,070,00,2025-04-17_14h12.38.903,Surprise recog test,2023.1.3,59.973971293756016,
48,0,48,0,,,,,,,,,,,,,,,,,,,,,,,,,,,,,,,,,,1246.8239188001025,1247.849414900178,1244.5938213001937,1244.5938213001937,1244.5938213001937,1244.5938213001937,new_fruit_20.png,49,4.0,2.2311059997882694,,,070,00,2025-04-17_14h12.38.903,Surprise recog test,2023.1.3,59.973971293756016,
49,0,49,0,,,,,,,,,,,,,,,,,,,,,,,,,,,,,,,,,,1249.943670600187,1250.9569595002104,1247.849414900178,1247.849414900178,1247.849414900178,1247.849414900178,old_stationery_44.png,50,2.0,2.097010599914938,,,070,00,2025-04-17_14h12.38.903,Surprise recog test,2023.1.3,59.973971293756016,
50,0,50,0,,,,,,,,,,,,,,,,,,,,,,,,,,,,,,,,,,1253.21697519999,1254.2387588000856,1250.9569595002104,1250.9569595002104,1250.9569595002104,1250.9569595002104,new_sceneIn_10.png,51,1.0,2.256299499887973,,,070,00,2025-04-17_14h12.38.903,Surprise recog test,2023.1.3,59.973971293756016,
51,0,51,0,,,,,,,,,,,,,,,,,,,,,,,,,,,,,,,,,,1256.0662583000958,1257.0824961999897,1254.2387588000856,1254.2387588000856,1254.2387588000856,1254.2387588000856,new_sceneIn_29.png,52,4.0,1.8267645000014454,,,070,00,2025-04-17_14h12.38.903,Surprise recog test,2023.1.3,59.973971293756016,
52,0,52,0,,,,,,,,,,,,,,,,,,,,,,,,,,,,,,,,,,1259.3915234000888,,1257.0824961999897,1257.0824961999897,1257.0824961999897,1257.0824961999897,new_sceneIn_48.png,53,4.0,2.3073378999251872,,,070,00,2025-04-17_14h12.38.903,Surprise recog test,2023.1.3,59.973971293756016,
53,0,53,0,,,,,,,,,,,,,,,,,,,,,,,,,,,,,,,,,,1261.9912870000117,1263.010728200199,1260.424854699988,1260.424854699988,1260.424854699988,1260.424854699988,new_sceneOut_17.png,54,2.0,1.565882100025192,,,070,00,2025-04-17_14h12.38.903,Surprise recog test,2023.1.3,59.973971293756016,
54,0,54,0,,,,,,,,,,,,,,,,,,,,,,,,,,,,,,,,,,1264.6791144001763,,1263.010728200199,1263.010728200199,1263.010728200199,1263.010728200199,old_sceneOut_12.png,55,3.0,1.6694260998629034,,,070,00,2025-04-17_14h12.38.903,Surprise recog test,2023.1.3,59.973971293756016,
55,0,55,0,,,,,,,,,,,,,,,,,,,,,,,,,,,,,,,,,,1269.0639689001255,1270.0838931000326,1265.714011900127,1265.714011900127,1265.714011900127,1265.714011900127,new_fruit_28.png,56,5.0,3.3479514999780804,,,070,00,2025-04-17_14h12.38.903,Surprise recog test,2023.1.3,59.973971293756016,
56,0,56,0,,,,,,,,,,,,,,,,,,,,,,,,,,,,,,,,,,1271.6315696001984,1272.6495152001735,1270.0838931000326,1270.0838931000326,1270.0838931000326,1270.0838931000326,old_sceneOut_2.png,57,3.0,1.549430999904871,,,070,00,2025-04-17_14h12.38.903,Surprise recog test,2023.1.3,59.973971293756016,
57,0,57,0,,,,,,,,,,,,,,,,,,,,,,,,,,,,,,,,,,1274.679186400026,1275.701551000122,1272.6495152001735,1272.6495152001735,1272.6495152001735,1272.6495152001735,new_sceneOut_9.png,58,3.0,2.031025900039822,,,070,00,2025-04-17_14h12.38.903,Surprise recog test,2023.1.3,59.973971293756016,
58,0,58,0,,,,,,,,,,,,,,,,,,,,,,,,,,,,,,,,,,1279.313737000106,1280.3413311000913,1275.701551000122,1275.701551000122,1275.701551000122,1275.701551000122,new_fruit_35.png,59,2.0,3.6141576999798417,,,070,00,2025-04-17_14h12.38.903,Surprise recog test,2023.1.3,59.973971293756016,
59,0,59,0,,,,,,,,,,,,,,,,,,,,,,,,,,,,,,,,,,1282.241299299989,1283.264831500128,1280.3413311000913,1280.3413311000913,1280.3413311000913,1280.3413311000913,old_sceneIn_30.png,60,4.0,1.8970043999142945,,,070,00,2025-04-17_14h12.38.903,Surprise recog test,2023.1.3,59.973971293756016,
60,0,60,0,,,,,,,,,,,,,,,,,,,,,,,,,,,,,,,,,,1285.377184299985,1286.3924481000286,1283.264831500128,1283.264831500128,1283.264831500128,1283.264831500128,new_sceneIn_9.png,61,5.0,2.1159278999548405,,,070,00,2025-04-17_14h12.38.903,Surprise recog test,2023.1.3,59.973971293756016,
61,0,61,0,,,,,,,,,,,,,,,,,,,,,,,,,,,,,,,,,,1288.6783824001905,1289.696604100056,1286.3924481000286,1286.3924481000286,1286.3924481000286,1286.3924481000286,new_sceneOut_46.png,62,3.0,2.285286600003019,,,070,00,2025-04-17_14h12.38.903,Surprise recog test,2023.1.3,59.973971293756016,
62,0,62,0,,,,,,,,,,,,,,,,,,,,,,,,,,,,,,,,,,1291.6837228001095,1292.6975920000114,1289.696604100056,1289.696604100056,1289.696604100056,1289.696604100056,old_sceneOut_8.png,63,3.0,1.98620539996773,,,070,00,2025-04-17_14h12.38.903,Surprise recog test,2023.1.3,59.973971293756016,
63,0,63,0,,,,,,,,,,,,,,,,,,,,,,,,,,,,,,,,,,1294.8984092001338,1295.9103239001706,1292.6975920000114,1292.6975920000114,1292.6975920000114,1292.6975920000114,new_sceneOut_13.png,64,4.0,2.1992939999327064,,,070,00,2025-04-17_14h12.38.903,Surprise recog test,2023.1.3,59.973971293756016,
64,0,64,0,,,,,,,,,,,,,,,,,,,,,,,,,,,,,,,,,,1299.3771230001003,1300.4038468000945,1295.9103239001706,1295.9103239001706,1295.9103239001706,1295.9103239001706,new_sceneOut_27.png,65,2.0,3.4628636999987066,,,070,00,2025-04-17_14h12.38.903,Surprise recog test,2023.1.3,59.973971293756016,
65,0,65,0,,,,,,,,,,,,,,,,,,,,,,,,,,,,,,,,,,1302.2968757001217,1303.3268228000961,1300.4038468000945,1300.4038468000945,1300.4038468000945,1300.4038468000945,old_fruit_9.png,66,1.0,1.8946348000317812,,,070,00,2025-04-17_14h12.38.903,Surprise recog test,2023.1.3,59.973971293756016,
66,0,66,0,,,,,,,,,,,,,,,,,,,,,,,,,,,,,,,,,,1305.4213508001994,1306.4432733000722,1303.3268228000961,1303.3268228000961,1303.3268228000961,1303.3268228000961,old_sceneIn_29.png,67,4.0,2.0966902000363916,,,070,00,2025-04-17_14h12.38.903,Surprise recog test,2023.1.3,59.973971293756016,
67,0,67,0,,,,,,,,,,,,,,,,,,,,,,,,,,,,,,,,,,1309.1361211000476,1310.1666678001639,1306.4432733000722,1306.4432733000722,1306.4432733000722,1306.4432733000722,new_sceneIn_34.png,68,5.0,2.693498299922794,,,070,00,2025-04-17_14h12.38.903,Surprise recog test,2023.1.3,59.973971293756016,
68,0,68,0,,,,,,,,,,,,,,,,,,,,,,,,,,,,,,,,,,1312.4246663001832,1313.450524700107,1310.1666678001639,1310.1666678001639,1310.1666678001639,1310.1666678001639,old_fruit_43.png,69,1.0,2.261769900098443,,,070,00,2025-04-17_14h12.38.903,Surprise recog test,2023.1.3,59.973971293756016,
69,0,69,0,,,,,,,,,,,,,,,,,,,,,,,,,,,,,,,,,,1315.7192301000468,1316.7268025001977,1313.450524700107,1313.450524700107,1313.450524700107,1313.450524700107,new_sceneOut_4.png,70,2.0,2.2636144999414682,,,070,00,2025-04-17_14h12.38.903,Surprise recog test,2023.1.3,59.973971293756016,
70,0,70,0,,,,,,,,,,,,,,,,,,,,,,,,,,,,,,,,,,1318.1966349000577,1319.2219174001366,1316.7268025001977,1316.7268025001977,1316.7268025001977,1316.7268025001977,new_stationery_34.png,71,3.0,1.4647805001586676,,,070,00,2025-04-17_14h12.38.903,Surprise recog test,2023.1.3,59.973971293756016,
71,0,71,0,,,,,,,,,,,,,,,,,,,,,,,,,,,,,,,,,,1321.1538945001084,1322.1665936000645,1319.2219174001366,1319.2219174001366,1319.2219174001366,1319.2219174001366,new_sceneIn_44.png,72,4.0,1.9342655001673847,,,070,00,2025-04-17_14h12.38.903,Surprise recog test,2023.1.3,59.973971293756016,
72,0,72,0,,,,,,,,,,,,,,,,,,,,,,,,,,,,,,,,,,1323.6277375000063,,1322.1665936000645,1322.1665936000645,1322.1665936000645,1322.1665936000645,old_sceneOut_30.png,73,3.0,1.4575161000248045,,,070,00,2025-04-17_14h12.38.903,Surprise recog test,2023.1.3,59.973971293756016,
73,0,73,0,,,,,,,,,,,,,,,,,,,,,,,,,,,,,,,,,,1326.4779248000123,1327.499796600081,1324.6627317999955,1324.6627317999955,1324.6627317999955,1324.6627317999955,new_stationery_18.png,74,3.0,1.810750599950552,,,070,00,2025-04-17_14h12.38.903,Surprise recog test,2023.1.3,59.973971293756016,
74,0,74,0,,,,,,,,,,,,,,,,,,,,,,,,,,,,,,,,,,1329.502780500101,1330.5227697000373,1327.499796600081,1327.499796600081,1327.499796600081,1327.499796600081,old_stationery_14.png,75,1.0,2.006054400000721,,,070,00,2025-04-17_14h12.38.903,Surprise recog test,2023.1.3,59.973971293756016,
75,0,75,0,,,,,,,,,,,,,,,,,,,,,,,,,,,,,,,,,,1331.8842633999884,1332.8910370001104,1330.5227697000373,1330.5227697000373,1330.5227697000373,1330.5227697000373,old_fruit_1.png,76,1.0,1.3584120001178235,,,070,00,2025-04-17_14h12.38.903,Surprise recog test,2023.1.3,59.973971293756016,
76,0,76,0,,,,,,,,,,,,,,,,,,,,,,,,,,,,,,,,,,1335.3384589999914,,1332.8910370001104,1332.8910370001104,1332.8910370001104,1332.8910370001104,old_sceneIn_37.png,77,4.0,2.443047100212425,,,070,00,2025-04-17_14h12.38.903,Surprise recog test,2023.1.3,59.973971293756016,
77,0,77,0,,,,,,,,,,,,,,,,,,,,,,,,,,,,,,,,,,1337.7861505001783,1338.805652800016,1336.3700571001973,1336.3700571001973,1336.3700571001973,1336.3700571001973,new_stationery_14.png,78,3.0,1.4155723000876606,,,070,00,2025-04-17_14h12.38.903,Surprise recog test,2023.1.3,59.973971293756016,
78,0,78,0,,,,,,,,,,,,,,,,,,,,,,,,,,,,,,,,,,1340.3814700001385,1341.4107211001683,1338.805652800016,1338.805652800016,1338.805652800016,1338.805652800016,new_sceneOut_36.png,79,5.0,1.575641999952495,,,070,00,2025-04-17_14h12.38.903,Surprise recog test,2023.1.3,59.973971293756016,
79,0,79,0,,,,,,,,,,,,,,,,,,,,,,,,,,,,,,,,,,1343.4544075001031,1344.4800303000957,1341.4107211001683,1341.4107211001683,1341.4107211001683,1341.4107211001683,new_sceneOut_2.png,80,2.0,2.046876800013706,,,070,00,2025-04-17_14h12.38.903,Surprise recog test,2023.1.3,59.973971293756016,
80,0,80,0,,,,,,,,,,,,,,,,,,,,,,,,,,,,,,,,,,1346.5112056999933,1347.523608500138,1344.4800303000957,1344.4800303000957,1344.4800303000957,1344.4800303000957,new_stationery_46.png,81,4.0,2.0302250999957323,,,070,00,2025-04-17_14h12.38.903,Surprise recog test,2023.1.3,59.973971293756016,
81,0,81,0,,,,,,,,,,,,,,,,,,,,,,,,,,,,,,,,,,1350.8486929000355,1351.8653988000005,1347.523608500138,1347.523608500138,1347.523608500138,1347.523608500138,old_sceneOut_46.png,82,3.0,3.324201500043273,,,070,00,2025-04-17_14h12.38.903,Surprise recog test,2023.1.3,59.973971293756016,
82,0,82,0,,,,,,,,,,,,,,,,,,,,,,,,,,,,,,,,,,1354.776940900134,1355.7985088999849,1351.8653988000005,1351.8653988000005,1351.8653988000005,1351.8653988000005,old_sceneIn_8.png,83,1.0,2.912235999945551,,,070,00,2025-04-17_14h12.38.903,Surprise recog test,2023.1.3,59.973971293756016,
83,0,83,0,,,,,,,,,,,,,,,,,,,,,,,,,,,,,,,,,,1358.2444125001784,1359.2760397000238,1355.7985088999849,1355.7985088999849,1355.7985088999849,1355.7985088999849,old_sceneIn_40.png,84,3.0,2.446506000123918,,,070,00,2025-04-17_14h12.38.903,Surprise recog test,2023.1.3,59.973971293756016,
84,0,84,0,,,,,,,,,,,,,,,,,,,,,,,,,,,,,,,,,,1361.0742279000115,1362.0928418000694,1359.2760397000238,1359.2760397000238,1359.2760397000238,1359.2760397000238,new_sceneIn_50.png,85,4.0,1.7996920000296086,,,070,00,2025-04-17_14h12.38.903,Surprise recog test,2023.1.3,59.973971293756016,
85,0,85,0,,,,,,,,,,,,,,,,,,,,,,,,,,,,,,,,,,1363.6469343001954,1364.6771900001913,1362.0928418000694,1362.0928418000694,1362.0928418000694,1362.0928418000694,old_fruit_2.png,86,2.0,1.5545424001757056,,,070,00,2025-04-17_14h12.38.903,Surprise recog test,2023.1.3,59.973971293756016,
86,0,86,0,,,,,,,,,,,,,,,,,,,,,,,,,,,,,,,,,,1366.5671596000902,1367.586499400204,1364.6771900001913,1364.6771900001913,1364.6771900001913,1364.6771900001913,old_sceneIn_50.png,87,3.0,1.8895292999222875,,,070,00,2025-04-17_14h12.38.903,Surprise recog test,2023.1.3,59.973971293756016,
87,0,87,0,,,,,,,,,,,,,,,,,,,,,,,,,,,,,,,,,,1369.413380100159,1370.4341734000482,1367.586499400204,1367.586499400204,1367.586499400204,1367.586499400204,old_stationery_24.png,88,2.0,1.8227436000015587,,,070,00,2025-04-17_14h12.38.903,Surprise recog test,2023.1.3,59.973971293756016,
88,0,88,0,,,,,,,,,,,,,,,,,,,,,,,,,,,,,,,,,,1372.3960141001735,1373.4186648000032,1370.4341734000482,1370.4341734000482,1370.4341734000482,1370.4341734000482,new_sceneOut_19.png,89,3.0,1.9642641998361796,,,070,00,2025-04-17_14h12.38.903,Surprise recog test,2023.1.3,59.973971293756016,
89,0,89,0,,,,,,,,,,,,,,,,,,,,,,,,,,,,,,,,,,1376.0899740001187,,1373.4186648000032,1373.4186648000032,1373.4186648000032,1373.4186648000032,new_sceneIn_16.png,90,4.0,2.6709306999109685,,,070,00,2025-04-17_14h12.38.903,Surprise recog test,2023.1.3,59.973971293756016,
90,0,90,0,,,,,,,,,,,,,,,,,,,,,,,,,,,,,,,,,,1380.375426700106,,1377.1225713000167,1377.1225713000167,1377.1225713000167,1377.1225713000167,new_stationery_50.png,91,5.0,3.2556007001549006,,,070,00,2025-04-17_14h12.38.903,Surprise recog test,2023.1.3,59.973971293756016,
91,0,91,0,,,,,,,,,,,,,,,,,,,,,,,,,,,,,,,,,,1383.6586809,1384.6776835001074,1381.4010582000483,1381.4010582000483,1381.4010582000483,1381.4010582000483,old_sceneIn_15.png,92,4.0,2.2574217000510544,,,070,00,2025-04-17_14h12.38.903,Surprise recog test,2023.1.3,59.973971293756016,
92,0,92,0,,,,,,,,,,,,,,,,,,,,,,,,,,,,,,,,,,1386.8550935999956,1387.8822751999833,1384.6776835001074,1384.6776835001074,1384.6776835001074,1384.6776835001074,new_stationery_37.png,93,3.0,2.1765733000356704,,,070,00,2025-04-17_14h12.38.903,Surprise recog test,2023.1.3,59.973971293756016,
93,0,93,0,,,,,,,,,,,,,,,,,,,,,,,,,,,,,,,,,,1389.5885523001198,1390.6127618001774,1387.8822751999833,1387.8822751999833,1387.8822751999833,1387.8822751999833,old_fruit_25.png,94,1.0,1.7108900998719037,,,070,00,2025-04-17_14h12.38.903,Surprise recog test,2023.1.3,59.973971293756016,
94,0,94,0,,,,,,,,,,,,,,,,,,,,,,,,,,,,,,,,,,1392.2832516001072,1393.3018522001803,1390.6127618001774,1390.6127618001774,1390.6127618001774,1390.6127618001774,old_fruit_6.png,95,1.0,1.6699972001370043,,,070,00,2025-04-17_14h12.38.903,Surprise recog test,2023.1.3,59.973971293756016,
95,0,95,0,,,,,,,,,,,,,,,,,,,,,,,,,,,,,,,,,,1395.9856505000498,1396.993767300155,1393.3018522001803,1393.3018522001803,1393.3018522001803,1393.3018522001803,new_fruit_8.png,96,3.0,2.678764799842611,,,070,00,2025-04-17_14h12.38.903,Surprise recog test,2023.1.3,59.973971293756016,
96,0,96,0,,,,,,,,,,,,,,,,,,,,,,,,,,,,,,,,,,1399.947105600033,1400.9739548000507,1396.993767300155,1396.993767300155,1396.993767300155,1396.993767300155,new_stationery_25.png,97,3.0,2.948979699984193,,,070,00,2025-04-17_14h12.38.903,Surprise recog test,2023.1.3,59.973971293756016,
97,0,97,0,,,,,,,,,,,,,,,,,,,,,,,,,,,,,,,,,,1403.2417252000887,1404.2497579001356,1400.9739548000507,1400.9739548000507,1400.9739548000507,1400.9739548000507,new_stationery_20.png,98,4.0,2.268833399983123,,,070,00,2025-04-17_14h12.38.903,Surprise recog test,2023.1.3,59.973971293756016,
98,0,98,0,,,,,,,,,,,,,,,,,,,,,,,,,,,,,,,,,,1406.8286417000927,1407.8482093000785,1404.2497579001356,1404.2497579001356,1404.2497579001356,1404.2497579001356,old_sceneOut_19.png,99,3.0,2.5770402001217008,,,070,00,2025-04-17_14h12.38.903,Surprise recog test,2023.1.3,59.973971293756016,
99,0,99,0,,,,,,,,,,,,,,,,,,,,,,,,,,,,,,,,,,1411.4245775002055,1412.4410999000538,1407.8482093000785,1407.8482093000785,1407.8482093000785,1407.8482093000785,new_stationery_13.png,100,5.0,3.5784932000096887,,,070,00,2025-04-17_14h12.38.903,Surprise recog test,2023.1.3,59.973971293756016,
100,0,100,0,,,,,,,,,,,,,,,,,,,,,,,,,,,,,,,,,,1416.4705750001594,1417.4898781999946,1412.4410999000538,1412.4410999000538,1412.4410999000538,1412.4410999000538,new_sceneOut_29.png,101,3.0,4.024302999954671,,,070,00,2025-04-17_14h12.38.903,Surprise recog test,2023.1.3,59.973971293756016,
101,0,101,0,,,,,,,,,,,,,,,,,,,,,,,,,,,,,,,,,,1419.2772772000171,1420.3091647999827,1417.4898781999946,1417.4898781999946,1417.4898781999946,1417.4898781999946,old_fruit_14.png,102,1.0,1.787222299957648,,,070,00,2025-04-17_14h12.38.903,Surprise recog test,2023.1.3,59.973971293756016,
102,0,102,0,,,,,,,,,,,,,,,,,,,,,,,,,,,,,,,,,,1422.0085265000816,1423.0302639000583,1420.3091647999827,1420.3091647999827,1420.3091647999827,1420.3091647999827,old_fruit_17.png,103,2.0,1.7019952000118792,,,070,00,2025-04-17_14h12.38.903,Surprise recog test,2023.1.3,59.973971293756016,
103,0,103,0,,,,,,,,,,,,,,,,,,,,,,,,,,,,,,,,,,1425.4924130002037,1426.5016170002054,1423.0302639000583,1423.0302639000583,1423.0302639000583,1423.0302639000583,new_fruit_48.png,104,3.0,2.464509000070393,,,070,00,2025-04-17_14h12.38.903,Surprise recog test,2023.1.3,59.973971293756016,
104,0,104,0,,,,,,,,,,,,,,,,,,,,,,,,,,,,,,,,,,1428.4268290000036,1429.437881699996,1426.5016170002054,1426.5016170002054,1426.5016170002054,1426.5016170002054,new_fruit_36.png,105,4.0,1.920702800154686,,,070,00,2025-04-17_14h12.38.903,Surprise recog test,2023.1.3,59.973971293756016,
105,0,105,0,,,,,,,,,,,,,,,,,,,,,,,,,,,,,,,,,,1431.8911771001294,1432.9198955001775,1429.437881699996,1429.437881699996,1429.437881699996,1429.437881699996,old_sceneOut_17.png,106,5.0,2.4491798998788,,,070,00,2025-04-17_14h12.38.903,Surprise recog test,2023.1.3,59.973971293756016,
106,0,106,0,,,,,,,,,,,,,,,,,,,,,,,,,,,,,,,,,,1434.7221150000114,,1432.9198955001775,1432.9198955001775,1432.9198955001775,1432.9198955001775,old_stationery_9.png,107,2.0,1.8038051000330597,,,070,00,2025-04-17_14h12.38.903,Surprise recog test,2023.1.3,59.973971293756016,
107,0,107,0,,,,,,,,,,,,,,,,,,,,,,,,,,,,,,,,,,1439.1480118001346,1440.1749487000052,1435.7573386000004,1435.7573386000004,1435.7573386000004,1435.7573386000004,old_sceneOut_26.png,108,3.0,3.3960806999821216,,,070,00,2025-04-17_14h12.38.903,Surprise recog test,2023.1.3,59.973971293756016,
108,0,108,0,,,,,,,,,,,,,,,,,,,,,,,,,,,,,,,,,,1443.635937300045,1444.660950700054,1440.1749487000052,1440.1749487000052,1440.1749487000052,1440.1749487000052,new_stationery_5.png,109,2.0,3.460626999847591,,,070,00,2025-04-17_14h12.38.903,Surprise recog test,2023.1.3,59.973971293756016,
109,0,109,0,,,,,,,,,,,,,,,,,,,,,,,,,,,,,,,,,,1446.2067327999976,1447.2199033000506,1444.660950700054,1444.660950700054,1444.660950700054,1444.660950700054,old_stationery_28.png,110,1.0,1.5448310000356287,,,070,00,2025-04-17_14h12.38.903,Surprise recog test,2023.1.3,59.973971293756016,
110,0,110,0,,,,,,,,,,,,,,,,,,,,,,,,,,,,,,,,,,1448.7513304001186,1449.7854649000801,1447.2199033000506,1447.2199033000506,1447.2199033000506,1447.2199033000506,new_stationery_19.png,111,3.0,1.5274098999798298,,,070,00,2025-04-17_14h12.38.903,Surprise recog test,2023.1.3,59.973971293756016,
111,0,111,0,,,,,,,,,,,,,,,,,,,,,,,,,,,,,,,,,,1451.1780952999834,1452.2018666001968,1449.7854649000801,1449.7854649000801,1449.7854649000801,1449.7854649000801,new_sceneOut_15.png,112,3.0,1.3930377999786288,,,070,00,2025-04-17_14h12.38.903,Surprise recog test,2023.1.3,59.973971293756016,
112,0,112,0,,,,,,,,,,,,,,,,,,,,,,,,,,,,,,,,,,1454.1328956000507,1455.140494500054,1452.2018666001968,1452.2018666001968,1452.2018666001968,1452.2018666001968,old_fruit_23.png,113,1.0,1.9332528999075294,,,070,00,2025-04-17_14h12.38.903,Surprise recog test,2023.1.3,59.973971293756016,
113,0,113,0,,,,,,,,,,,,,,,,,,,,,,,,,,,,,,,,,,1459.2549266000278,1460.2745850000065,1455.140494500054,1455.140494500054,1455.140494500054,1455.140494500054,new_fruit_17.png,114,3.0,4.1066648999694735,,,070,00,2025-04-17_14h12.38.903,Surprise recog test,2023.1.3,59.973971293756016,
114,0,114,0,,,,,,,,,,,,,,,,,,,,,,,,,,,,,,,,,,1462.6784022001084,,1460.2745850000065,1460.2745850000065,1460.2745850000065,1460.2745850000065,old_stationery_45.png,115,2.0,2.405379500007257,,,070,00,2025-04-17_14h12.38.903,Surprise recog test,2023.1.3,59.973971293756016,
115,0,115,0,,,,,,,,,,,,,,,,,,,,,,,,,,,,,,,,,,1465.9702467999887,1466.986384900054,1463.7046271001454,1463.7046271001454,1463.7046271001454,1463.7046271001454,new_stationery_49.png,116,4.0,2.259099300019443,,,070,00,2025-04-17_14h12.38.903,Surprise recog test,2023.1.3,59.973971293756016,
116,0,116,0,,,,,,,,,,,,,,,,,,,,,,,,,,,,,,,,,,1469.189620300196,1470.212971500121,1466.986384900054,1466.986384900054,1466.986384900054,1466.986384900054,old_fruit_46.png,117,1.0,2.1999253001995385,,,070,00,2025-04-17_14h12.38.903,Surprise recog test,2023.1.3,59.973971293756016,
117,0,117,0,,,,,,,,,,,,,,,,,,,,,,,,,,,,,,,,,,1472.3619247002061,1473.3787468001246,1470.212971500121,1470.212971500121,1470.212971500121,1470.212971500121,new_sceneIn_47.png,118,3.0,2.148663599975407,,,070,00,2025-04-17_14h12.38.903,Surprise recog test,2023.1.3,59.973971293756016,
118,0,118,0,,,,,,,,,,,,,,,,,,,,,,,,,,,,,,,,,,1475.390377700096,1476.420513600111,1473.3787468001246,1473.3787468001246,1473.3787468001246,1473.3787468001246,old_stationery_34.png,119,2.0,2.0127374001313,,,070,00,2025-04-17_14h12.38.903,Surprise recog test,2023.1.3,59.973971293756016,
119,0,119,0,,,,,,,,,,,,,,,,,,,,,,,,,,,,,,,,,,1480.1722382002044,1481.1865602000616,1476.420513600111,1476.420513600111,1476.420513600111,1476.420513600111,new_fruit_38.png,120,1.0,3.7527693000156432,,,070,00,2025-04-17_14h12.38.903,Surprise recog test,2023.1.3,59.973971293756016,
120,0,120,0,,,,,,,,,,,,,,,,,,,,,,,,,,,,,,,,,,1484.9228904000483,1485.9454781000968,1481.1865602000616,1481.1865602000616,1481.1865602000616,1481.1865602000616,old_sceneIn_36.png,121,3.0,3.737151100067422,,,070,00,2025-04-17_14h12.38.903,Surprise recog test,2023.1.3,59.973971293756016,
121,0,121,0,,,,,,,,,,,,,,,,,,,,,,,,,,,,,,,,,,1488.6860276001971,1489.7155009000562,1485.9454781000968,1485.9454781000968,1485.9454781000968,1485.9454781000968,new_stationery_44.png,122,4.0,2.741819600109011,,,070,00,2025-04-17_14h12.38.903,Surprise recog test,2023.1.3,59.973971293756016,
122,0,122,0,,,,,,,,,,,,,,,,,,,,,,,,,,,,,,,,,,1491.8954879001249,1492.9061488001607,1489.7155009000562,1489.7155009000562,1489.7155009000562,1489.7155009000562,old_sceneIn_45.png,123,2.0,2.1801676999311894,,,070,00,2025-04-17_14h12.38.903,Surprise recog test,2023.1.3,59.973971293756016,
123,0,123,0,,,,,,,,,,,,,,,,,,,,,,,,,,,,,,,,,,1495.4451890999917,1496.4708778001368,1492.9061488001607,1492.9061488001607,1492.9061488001607,1492.9061488001607,new_stationery_1.png,124,3.0,2.534026399953291,,,070,00,2025-04-17_14h12.38.903,Surprise recog test,2023.1.3,59.973971293756016,
124,0,124,0,,,,,,,,,,,,,,,,,,,,,,,,,,,,,,,,,,1499.9593960000202,,1496.4708778001368,1496.4708778001368,1496.4708778001368,1496.4708778001368,new_stationery_41.png,125,5.0,3.4911964999046177,,,070,00,2025-04-17_14h12.38.903,Surprise recog test,2023.1.3,59.973971293756016,
125,0,125,0,,,,,,,,,,,,,,,,,,,,,,,,,,,,,,,,,,1504.8522501999978,1505.873856900027,1500.9857703000307,1500.9857703000307,1500.9857703000307,1500.9857703000307,new_stationery_16.png,126,4.0,3.8654241000767797,,,070,00,2025-04-17_14h12.38.903,Surprise recog test,2023.1.3,59.973971293756016,
126,0,126,0,,,,,,,,,,,,,,,,,,,,,,,,,,,,,,,,,,1508.1422549001873,1509.1540072001517,1505.873856900027,1505.873856900027,1505.873856900027,1505.873856900027,new_sceneOut_41.png,127,2.0,2.269331300165504,,,070,00,2025-04-17_14h12.38.903,Surprise recog test,2023.1.3,59.973971293756016,
127,0,127,0,,,,,,,,,,,,,,,,,,,,,,,,,,,,,,,,,,1511.2054569001775,1512.236013600137,1509.1540072001517,1509.1540072001517,1509.1540072001517,1509.1540072001517,new_fruit_24.png,128,4.0,2.0466253999620676,,,070,00,2025-04-17_14h12.38.903,Surprise recog test,2023.1.3,59.973971293756016,
128,0,128,0,,,,,,,,,,,,,,,,,,,,,,,,,,,,,,,,,,1514.0344528001733,1515.049150200095,1512.236013600137,1512.236013600137,1512.236013600137,1512.236013600137,old_fruit_45.png,129,1.0,1.7996759999077767,,,070,00,2025-04-17_14h12.38.903,Surprise recog test,2023.1.3,59.973971293756016,
129,0,129,0,,,,,,,,,,,,,,,,,,,,,,,,,,,,,,,,,,1517.248001900036,1518.2763098001014,1515.049150200095,1515.049150200095,1515.049150200095,1515.049150200095,old_sceneIn_43.png,130,1.0,2.1975543000735343,,,070,00,2025-04-17_14h12.38.903,Surprise recog test,2023.1.3,59.973971293756016,
130,0,130,0,,,,,,,,,,,,,,,,,,,,,,,,,,,,,,,,,,1520.330562800169,1521.361671200022,1518.2763098001014,1518.2763098001014,1518.2763098001014,1518.2763098001014,new_stationery_10.png,131,3.0,2.0583128998987377,,,070,00,2025-04-17_14h12.38.903,Surprise recog test,2023.1.3,59.973971293756016,
131,0,131,0,,,,,,,,,,,,,,,,,,,,,,,,,,,,,,,,,,1524.0040043999907,1525.023710400099,1521.361671200022,1521.361671200022,1521.361671200022,1521.361671200022,old_sceneIn_11.png,132,4.0,2.6454308999236673,,,070,00,2025-04-17_14h12.38.903,Surprise recog test,2023.1.3,59.973971293756016,
132,0,132,0,,,,,,,,,,,,,,,,,,,,,,,,,,,,,,,,,,1527.6212997999974,1528.6444457001053,1525.023710400099,1525.023710400099,1525.023710400099,1525.023710400099,new_fruit_50.png,133,2.0,2.59927019989118,,,070,00,2025-04-17_14h12.38.903,Surprise recog test,2023.1.3,59.973971293756016,
133,0,133,0,,,,,,,,,,,,,,,,,,,,,,,,,,,,,,,,,,1531.000569100026,,1528.6444457001053,1528.6444457001053,1528.6444457001053,1528.6444457001053,old_sceneOut_31.png,134,3.0,2.3573508001863956,,,070,00,2025-04-17_14h12.38.903,Surprise recog test,2023.1.3,59.973971293756016,
134,0,134,0,,,,,,,,,,,,,,,,,,,,,,,,,,,,,,,,,,1534.38314190018,1535.4046549000777,1532.0318250001874,1532.0318250001874,1532.0318250001874,1532.0318250001874,new_sceneIn_35.png,135,3.0,2.35063140001148,,,070,00,2025-04-17_14h12.38.903,Surprise recog test,2023.1.3,59.973971293756016,
135,0,135,0,,,,,,,,,,,,,,,,,,,,,,,,,,,,,,,,,,1537.960881400155,1538.9789100000635,1535.4046549000777,1535.4046549000777,1535.4046549000777,1535.4046549000777,old_fruit_22.png,136,2.0,2.556083499919623,,,070,00,2025-04-17_14h12.38.903,Surprise recog test,2023.1.3,59.973971293756016,
136,0,136,0,,,,,,,,,,,,,,,,,,,,,,,,,,,,,,,,,,1541.7332681000698,1542.748718000017,1538.9789100000635,1538.9789100000635,1538.9789100000635,1538.9789100000635,old_fruit_26.png,137,1.0,2.750468799844384,,,070,00,2025-04-17_14h12.38.903,Surprise recog test,2023.1.3,59.973971293756016,
137,0,137,0,,,,,,,,,,,,,,,,,,,,,,,,,,,,,,,,,,1545.0833515000995,1546.107289200183,1542.748718000017,1542.748718000017,1542.748718000017,1542.748718000017,old_stationery_25.png,138,2.0,2.3297135001048446,,,070,00,2025-04-17_14h12.38.903,Surprise recog test,2023.1.3,59.973971293756016,
138,0,138,0,,,,,,,,,,,,,,,,,,,,,,,,,,,,,,,,,,1548.1991061000153,,1546.107289200183,1546.107289200183,1546.107289200183,1546.107289200183,old_sceneOut_28.png,139,2.0,2.0905462000519037,,,070,00,2025-04-17_14h12.38.903,Surprise recog test,2023.1.3,59.973971293756016,
139,0,139,0,,,,,,,,,,,,,,,,,,,,,,,,,,,,,,,,,,1551.142634600168,1552.1543559001293,1549.2317352001555,1549.2317352001555,1549.2317352001555,1549.2317352001555,new_sceneOut_24.png,140,3.0,1.9129973000381142,,,070,00,2025-04-17_14h12.38.903,Surprise recog test,2023.1.3,59.973971293756016,
140,0,140,0,,,,,,,,,,,,,,,,,,,,,,,,,,,,,,,,,,1554.619742800016,,1552.1543559001293,1552.1543559001293,1552.1543559001293,1552.1543559001293,old_stationery_6.png,141,4.0,2.4612396999727935,,,070,00,2025-04-17_14h12.38.903,Surprise recog test,2023.1.3,59.973971293756016,
141,0,141,0,,,,,,,,,,,,,,,,,,,,,,,,,,,,,,,,,,1557.6964386000764,1558.7122099001426,1555.6526921000332,1555.6526921000332,1555.6526921000332,1555.6526921000332,new_sceneIn_19.png,142,3.0,2.0459487000480294,,,070,00,2025-04-17_14h12.38.903,Surprise recog test,2023.1.3,59.973971293756016,
142,0,142,0,,,,,,,,,,,,,,,,,,,,,,,,,,,,,,,,,,1560.7337836001534,1561.7580686002038,1558.7122099001426,1558.7122099001426,1558.7122099001426,1558.7122099001426,new_sceneIn_11.png,143,5.0,2.013218899955973,,,070,00,2025-04-17_14h12.38.903,Surprise recog test,2023.1.3,59.973971293756016,
143,0,143,0,,,,,,,,,,,,,,,,,,,,,,,,,,,,,,,,,,1564.316093500005,1565.3441745000891,1561.7580686002038,1561.7580686002038,1561.7580686002038,1561.7580686002038,old_fruit_18.png,144,1.0,2.559551900019869,,,070,00,2025-04-17_14h12.38.903,Surprise recog test,2023.1.3,59.973971293756016,
144,0,144,0,,,,,,,,,,,,,,,,,,,,,,,,,,,,,,,,,,1568.1454262000043,1569.1530483001843,1565.3441745000891,1565.3441745000891,1565.3441745000891,1565.3441745000891,new_sceneIn_27.png,145,3.0,2.8029241000767797,,,070,00,2025-04-17_14h12.38.903,Surprise recog test,2023.1.3,59.973971293756016,
145,0,145,0,,,,,,,,,,,,,,,,,,,,,,,,,,,,,,,,,,1572.0038711000234,1573.0338826000225,1569.1530483001843,1569.1530483001843,1569.1530483001843,1569.1530483001843,new_fruit_21.png,146,3.0,2.8467164000030607,,,070,00,2025-04-17_14h12.38.903,Surprise recog test,2023.1.3,59.973971293756016,
146,0,146,0,,,,,,,,,,,,,,,,,,,,,,,,,,,,,,,,,,1576.576593000209,1577.6041084001772,1573.0338826000225,1573.0338826000225,1573.0338826000225,1573.0338826000225,new_fruit_12.png,147,4.0,3.5445925001986325,,,070,00,2025-04-17_14h12.38.903,Surprise recog test,2023.1.3,59.973971293756016,
147,0,147,0,,,,,,,,,,,,,,,,,,,,,,,,,,,,,,,,,,1579.42605930008,1580.4528413000517,1577.6041084001772,1577.6041084001772,1577.6041084001772,1577.6041084001772,new_sceneOut_45.png,148,2.0,1.8238377999514341,,,070,00,2025-04-17_14h12.38.903,Surprise recog test,2023.1.3,59.973971293756016,
148,0,148,0,,,,,,,,,,,,,,,,,,,,,,,,,,,,,,,,,,1582.3236355001573,1583.3421617001295,1580.4528413000517,1580.4528413000517,1580.4528413000517,1580.4528413000517,new_sceneIn_4.png,149,3.0,1.8653883000370115,,,070,00,2025-04-17_14h12.38.903,Surprise recog test,2023.1.3,59.973971293756016,
149,0,149,0,,,,,,,,,,,,,,,,,,,,,,,,,,,,,,,,,,1586.2018383000977,1587.2315423002,1583.3421617001295,1583.3421617001295,1583.3421617001295,1583.3421617001295,new_fruit_16.png,150,4.0,2.858982600038871,,,070,00,2025-04-17_14h12.38.903,Surprise recog test,2023.1.3,59.973971293756016,
150,0,150,0,,,,,,,,,,,,,,,,,,,,,,,,,,,,,,,,,,1588.667382700136,1589.684153900016,1587.2315423002,1587.2315423002,1587.2315423002,1587.2315423002,old_sceneOut_7.png,151,3.0,1.4373089999426156,,,070,00,2025-04-17_14h12.38.903,Surprise recog test,2023.1.3,59.973971293756016,
151,0,151,0,,,,,,,,,,,,,,,,,,,,,,,,,,,,,,,,,,1593.2820272999816,1594.3044478001539,1589.684153900016,1589.684153900016,1589.684153900016,1589.684153900016,old_sceneIn_3.png,152,2.0,3.5920357999857515,,,070,00,2025-04-17_14h12.38.903,Surprise recog test,2023.1.3,59.973971293756016,
152,0,152,0,,,,,,,,,,,,,,,,,,,,,,,,,,,,,,,,,,1596.4541009999812,,1594.3044478001539,1594.3044478001539,1594.3044478001539,1594.3044478001539,new_stationery_33.png,153,4.0,2.1520452999975532,,,070,00,2025-04-17_14h12.38.903,Surprise recog test,2023.1.3,59.973971293756016,
153,0,153,0,,,,,,,,,,,,,,,,,,,,,,,,,,,,,,,,,,1600.608375800075,,1597.4872706001624,1597.4872706001624,1597.4872706001624,1597.4872706001624,old_sceneOut_10.png,154,5.0,3.1219987999647856,,,070,00,2025-04-17_14h12.38.903,Surprise recog test,2023.1.3,59.973971293756016,
154,0,154,0,,,,,,,,,,,,,,,,,,,,,,,,,,,,,,,,,,1603.8713136001024,1604.8888984001242,1601.6414864000399,1601.6414864000399,1601.6414864000399,1601.6414864000399,old_fruit_36.png,155,1.0,2.2321923999115825,,,070,00,2025-04-17_14h12.38.903,Surprise recog test,2023.1.3,59.973971293756016,
155,0,155,0,,,,,,,,,,,,,,,,,,,,,,,,,,,,,,,,,,1608.462098899996,1609.4777449001558,1604.8888984001242,1604.8888984001242,1604.8888984001242,1604.8888984001242,old_sceneOut_22.png,156,4.0,3.5675979999359697,,,070,00,2025-04-17_14h12.38.903,Surprise recog test,2023.1.3,59.973971293756016,
156,0,156,0,,,,,,,,,,,,,,,,,,,,,,,,,,,,,,,,,,1612.147689000005,1613.1698032000568,1609.4777449001558,1609.4777449001558,1609.4777449001558,1609.4777449001558,new_fruit_14.png,157,4.0,2.6714553001802415,,,070,00,2025-04-17_14h12.38.903,Surprise recog test,2023.1.3,59.973971293756016,
157,0,157,0,,,,,,,,,,,,,,,,,,,,,,,,,,,,,,,,,,1616.875283600064,1617.901131000137,1613.1698032000568,1613.1698032000568,1613.1698032000568,1613.1698032000568,old_sceneIn_34.png,158,3.0,3.7094844998791814,,,070,00,2025-04-17_14h12.38.903,Surprise recog test,2023.1.3,59.973971293756016,
158,0,158,0,,,,,,,,,,,,,,,,,,,,,,,,,,,,,,,,,,1621.5429856001865,,1617.901131000137,1617.901131000137,1617.901131000137,1617.901131000137,old_fruit_28.png,159,2.0,3.6439125000033528,,,070,00,2025-04-17_14h12.38.903,Surprise recog test,2023.1.3,59.973971293756016,
159,0,159,0,,,,,,,,,,,,,,,,,,,,,,,,,,,,,,,,,,1625.9620942000765,,1622.5755980000831,1622.5755980000831,1622.5755980000831,1622.5755980000831,new_stationery_21.png,160,5.0,3.386147700017318,,,070,00,2025-04-17_14h12.38.903,Surprise recog test,2023.1.3,59.973971293756016,
160,0,160,0,,,,,,,,,,,,,,,,,,,,,,,,,,,,,,,,,,1630.0005334999878,,1626.996069200104,1626.996069200104,1626.996069200104,1626.996069200104,old_stationery_36.png,161,2.0,3.0057568999473006,,,070,00,2025-04-17_14h12.38.903,Surprise recog test,2023.1.3,59.973971293756016,
161,0,161,0,,,,,,,,,,,,,,,,,,,,,,,,,,,,,,,,,,1635.2530310000293,,1631.0266361001413,1631.0266361001413,1631.0266361001413,1631.0266361001413,old_fruit_27.png,162,2.0,4.227185199968517,,,070,00,2025-04-17_14h12.38.903,Surprise recog test,2023.1.3,59.973971293756016,
162,0,162,0,,,,,,,,,,,,,,,,,,,,,,,,,,,,,,,,,,1638.523224900011,,1636.2872596001253,1636.2872596001253,1636.2872596001253,1636.2872596001253,new_sceneIn_22.png,163,3.0,2.235116299940273,,,070,00,2025-04-17_14h12.38.903,Surprise recog test,2023.1.3,59.973971293756016,
163,0,163,0,,,,,,,,,,,,,,,,,,,,,,,,,,,,,,,,,,1641.1788407000713,1642.2045947001316,1639.5521178001072,1639.5521178001072,1639.5521178001072,1639.5521178001072,old_sceneOut_41.png,164,3.0,1.6256733001209795,,,070,00,2025-04-17_14h12.38.903,Surprise recog test,2023.1.3,59.973971293756016,
164,0,164,0,,,,,,,,,,,,,,,,,,,,,,,,,,,,,,,,,,1645.1336649002042,1646.161572800018,1642.2045947001316,1642.2045947001316,1642.2045947001316,1642.2045947001316,old_stationery_35.png,165,3.0,2.930669700028375,,,070,00,2025-04-17_14h12.38.903,Surprise recog test,2023.1.3,59.973971293756016,
165,0,165,0,,,,,,,,,,,,,,,,,,,,,,,,,,,,,,,,,,1648.1556102000177,1649.1768985001836,1646.161572800018,1646.161572800018,1646.161572800018,1646.161572800018,old_sceneIn_49.png,166,4.0,1.9936919999308884,,,070,00,2025-04-17_14h12.38.903,Surprise recog test,2023.1.3,59.973971293756016,
166,0,166,0,,,,,,,,,,,,,,,,,,,,,,,,,,,,,,,,,,1651.191878200043,1652.215131400153,1649.1768985001836,1649.1768985001836,1649.1768985001836,1649.1768985001836,old_sceneIn_27.png,167,5.0,2.0163893999997526,,,070,00,2025-04-17_14h12.38.903,Surprise recog test,2023.1.3,59.973971293756016,
167,0,167,0,,,,,,,,,,,,,,,,,,,,,,,,,,,,,,,,,,1654.8421673001722,1655.8679523000028,1652.215131400153,1652.215131400153,1652.215131400153,1652.215131400153,new_stationery_2.png,168,2.0,2.629695399897173,,,070,00,2025-04-17_14h12.38.903,Surprise recog test,2023.1.3,59.973971293756016,
168,0,168,0,,,,,,,,,,,,,,,,,,,,,,,,,,,,,,,,,,1657.9761928000953,1659.0025802000891,1655.8679523000028,1655.8679523000028,1655.8679523000028,1655.8679523000028,new_sceneIn_2.png,169,5.0,2.1079659999813884,,,070,00,2025-04-17_14h12.38.903,Surprise recog test,2023.1.3,59.973971293756016,
169,0,169,0,,,,,,,,,,,,,,,,,,,,,,,,,,,,,,,,,,1661.6021753000095,1662.6207570000552,1659.0025802000891,1659.0025802000891,1659.0025802000891,1659.0025802000891,new_sceneIn_36.png,170,5.0,2.602069800021127,,,070,00,2025-04-17_14h12.38.903,Surprise recog test,2023.1.3,59.973971293756016,
170,0,170,0,,,,,,,,,,,,,,,,,,,,,,,,,,,,,,,,,,1665.5960239002015,,1662.6207570000552,1662.6207570000552,1662.6207570000552,1662.6207570000552,old_sceneOut_5.png,171,3.0,2.974053400103003,,,070,00,2025-04-17_14h12.38.903,Surprise recog test,2023.1.3,59.973971293756016,
171,0,171,0,,,,,,,,,,,,,,,,,,,,,,,,,,,,,,,,,,1669.6894143000245,1670.711818400072,1666.630517499987,1666.630517499987,1666.630517499987,1666.630517499987,old_sceneOut_42.png,172,2.0,3.0634371999185532,,,070,00,2025-04-17_14h12.38.903,Surprise recog test,2023.1.3,59.973971293756016,
172,0,172,0,,,,,,,,,,,,,,,,,,,,,,,,,,,,,,,,,,1674.4597707001958,1675.4755199002102,1670.711818400072,1670.711818400072,1670.711818400072,1670.711818400072,old_sceneOut_47.png,173,4.0,3.7467318999115378,,,070,00,2025-04-17_14h12.38.903,Surprise recog test,2023.1.3,59.973971293756016,
173,0,173,0,,,,,,,,,,,,,,,,,,,,,,,,,,,,,,,,,,1677.6554831000976,,1675.4755199002102,1675.4755199002102,1675.4755199002102,1675.4755199002102,old_fruit_3.png,174,4.0,2.174863699823618,,,070,00,2025-04-17_14h12.38.903,Surprise recog test,2023.1.3,59.973971293756016,
174,0,174,0,,,,,,,,,,,,,,,,,,,,,,,,,,,,,,,,,,1682.2070170000661,1683.2251850999892,1678.687180200126,1678.687180200126,1678.687180200126,1678.687180200126,old_sceneOut_16.png,175,3.0,3.521974900038913,,,070,00,2025-04-17_14h12.38.903,Surprise recog test,2023.1.3,59.973971293756016,
175,0,175,0,,,,,,,,,,,,,,,,,,,,,,,,,,,,,,,,,,1685.4750340001192,1686.4970891000703,1683.2251850999892,1683.2251850999892,1683.2251850999892,1683.2251850999892,new_sceneIn_7.png,176,5.0,2.250959699973464,,,070,00,2025-04-17_14h12.38.903,Surprise recog test,2023.1.3,59.973971293756016,
176,0,176,0,,,,,,,,,,,,,,,,,,,,,,,,,,,,,,,,,,1689.6863018001895,1690.7138029001653,1686.4970891000703,1686.4970891000703,1686.4970891000703,1686.4970891000703,old_fruit_50.png,177,4.0,3.1933216000907123,,,070,00,2025-04-17_14h12.38.903,Surprise recog test,2023.1.3,59.973971293756016,
177,0,177,0,,,,,,,,,,,,,,,,,,,,,,,,,,,,,,,,,,1692.8016949000303,,1690.7138029001653,1690.7138029001653,1690.7138029001653,1690.7138029001653,old_stationery_40.png,178,1.0,2.090005900012329,,,070,00,2025-04-17_14h12.38.903,Surprise recog test,2023.1.3,59.973971293756016,
178,0,178,0,,,,,,,,,,,,,,,,,,,,,,,,,,,,,,,,,,1695.8648270000704,1696.8811677000485,1693.8244585001376,1693.8244585001376,1693.8244585001376,1693.8244585001376,new_sceneOut_21.png,179,3.0,2.0372074998449534,,,070,00,2025-04-17_14h12.38.903,Surprise recog test,2023.1.3,59.973971293756016,
179,0,179,0,,,,,,,,,,,,,,,,,,,,,,,,,,,,,,,,,,1698.8517025001347,1699.8748319000006,1696.8811677000485,1696.8811677000485,1696.8811677000485,1696.8811677000485,old_fruit_7.png,180,1.0,1.96954150008969,,,070,00,2025-04-17_14h12.38.903,Surprise recog test,2023.1.3,59.973971293756016,
180,0,180,0,,,,,,,,,,,,,,,,,,,,,,,,,,,,,,,,,,1702.2168056000955,1703.2375299001578,1699.8748319000006,1699.8748319000006,1699.8748319000006,1699.8748319000006,new_sceneIn_49.png,181,3.0,2.3446406999137253,,,070,00,2025-04-17_14h12.38.903,Surprise recog test,2023.1.3,59.973971293756016,
181,0,181,0,,,,,,,,,,,,,,,,,,,,,,,,,,,,,,,,,,1705.0801704002079,,1703.2375299001578,1703.2375299001578,1703.2375299001578,1703.2375299001578,old_sceneOut_34.png,182,2.0,1.8417651001363993,,,070,00,2025-04-17_14h12.38.903,Surprise recog test,2023.1.3,59.973971293756016,
182,0,182,0,,,,,,,,,,,,,,,,,,,,,,,,,,,,,,,,,,1708.2791048001964,1709.2946219001897,1706.1114046000876,1706.1114046000876,1706.1114046000876,1706.1114046000876,new_stationery_40.png,183,4.0,2.169743800070137,,,070,00,2025-04-17_14h12.38.903,Surprise recog test,2023.1.3,59.973971293756016,
183,0,183,0,,,,,,,,,,,,,,,,,,,,,,,,,,,,,,,,,,1713.0678272000514,,1709.2946219001897,1709.2946219001897,1709.2946219001897,1709.2946219001897,old_stationery_5.png,184,3.0,3.7741902000270784,,,070,00,2025-04-17_14h12.38.903,Surprise recog test,2023.1.3,59.973971293756016,
184,0,184,0,,,,,,,,,,,,,,,,,,,,,,,,,,,,,,,,,,1716.991573000094,1718.016919700196,1714.0979476000648,1714.0979476000648,1714.0979476000648,1714.0979476000648,old_sceneIn_44.png,185,4.0,2.8951315998565406,,,070,00,2025-04-17_14h12.38.903,Surprise recog test,2023.1.3,59.973971293756016,
185,0,185,0,,,,,,,,,,,,,,,,,,,,,,,,,,,,,,,,,,1723.0185450001154,,1718.016919700196,1718.016919700196,1718.016919700196,1718.016919700196,new_fruit_6.png,186,None,None,1723.0041100000963,,070,00,2025-04-17_14h12.38.903,Surprise recog test,2023.1.3,59.973971293756016,
186,0,186,0,,,,,,,,,,,,,,,,,,,,,,,,,,,,,,,,,,1727.0759352000896,1728.1014455000404,1724.0327961000148,1724.0327961000148,1724.0327961000148,1724.0327961000148,new_fruit_27.png,187,2.0,3.047820599982515,,,070,00,2025-04-17_14h12.38.903,Surprise recog test,2023.1.3,59.973971293756016,
187,0,187,0,,,,,,,,,,,,,,,,,,,,,,,,,,,,,,,,,,1729.7510438000318,1730.7837593001314,1728.1014455000404,1728.1014455000404,1728.1014455000404,1728.1014455000404,old_fruit_42.png,188,1.0,1.653187399962917,,,070,00,2025-04-17_14h12.38.903,Surprise recog test,2023.1.3,59.973971293756016,
188,0,188,0,,,,,,,,,,,,,,,,,,,,,,,,,,,,,,,,,,1733.3990205000155,1734.4092098001856,1730.7837593001314,1730.7837593001314,1730.7837593001314,1730.7837593001314,new_fruit_42.png,189,5.0,2.614698200020939,,,070,00,2025-04-17_14h12.38.903,Surprise recog test,2023.1.3,59.973971293756016,
189,0,189,0,,,,,,,,,,,,,,,,,,,,,,,,,,,,,,,,,,1738.472655300051,,1734.4092098001856,1734.4092098001856,1734.4092098001856,1734.4092098001856,old_sceneIn_1.png,190,4.0,4.057292100042105,,,070,00,2025-04-17_14h12.38.903,Surprise recog test,2023.1.3,59.973971293756016,
190,0,190,0,,,,,,,,,,,,,,,,,,,,,,,,,,,,,,,,,,1742.061334400205,1743.090976800071,1739.4986416001339,1739.4986416001339,1739.4986416001339,1739.4986416001339,old_fruit_40.png,191,2.0,2.562960899900645,,,070,00,2025-04-17_14h12.38.903,Surprise recog test,2023.1.3,59.973971293756016,
191,0,191,0,,,,,,,,,,,,,,,,,,,,,,,,,,,,,,,,,,1745.397978699999,1746.4290935001336,1743.090976800071,1743.090976800071,1743.090976800071,1743.090976800071,new_sceneIn_13.png,192,4.0,2.308151400182396,,,070,00,2025-04-17_14h12.38.903,Surprise recog test,2023.1.3,59.973971293756016,
192,0,192,0,,,,,,,,,,,,,,,,,,,,,,,,,,,,,,,,,,1748.333686800208,1749.3501181001775,1746.4290935001336,1746.4290935001336,1746.4290935001336,1746.4290935001336,new_sceneOut_5.png,193,3.0,1.905506599927321,,,070,00,2025-04-17_14h12.38.903,Surprise recog test,2023.1.3,59.973971293756016,
193,0,193,0,,,,,,,,,,,,,,,,,,,,,,,,,,,,,,,,,,1752.3926671000663,1753.4178044002037,1749.3501181001775,1749.3501181001775,1749.3501181001775,1749.3501181001775,old_fruit_20.png,194,3.0,3.0389261001255363,,,070,00,2025-04-17_14h12.38.903,Surprise recog test,2023.1.3,59.973971293756016,
194,0,194,0,,,,,,,,,,,,,,,,,,,,,,,,,,,,,,,,,,1758.4198998000938,,1753.4178044002037,1753.4178044002037,1753.4178044002037,1753.4178044002037,new_sceneOut_31.png,195,None,None,1758.3877474002074,,070,00,2025-04-17_14h12.38.903,Surprise recog test,2023.1.3,59.973971293756016,
195,0,195,0,,,,,,,,,,,,,,,,,,,,,,,,,,,,,,,,,,1761.1456556001212,1762.1689550001174,1759.434769500047,1759.434769500047,1759.434769500047,1759.434769500047,old_fruit_39.png,196,3.0,1.7117335998918861,,,070,00,2025-04-17_14h12.38.903,Surprise recog test,2023.1.3,59.973971293756016,
196,0,196,0,,,,,,,,,,,,,,,,,,,,,,,,,,,,,,,,,,1764.7965661000926,1765.8275312001351,1762.1689550001174,1762.1689550001174,1762.1689550001174,1762.1689550001174,new_stationery_38.png,197,3.0,2.6234597000293434,,,070,00,2025-04-17_14h12.38.903,Surprise recog test,2023.1.3,59.973971293756016,
197,0,197,0,,,,,,,,,,,,,,,,,,,,,,,,,,,,,,,,,,1767.7278762999922,1768.7460156001616,1765.8275312001351,1765.8275312001351,1765.8275312001351,1765.8275312001351,new_fruit_45.png,198,4.0,1.9003290000837296,,,070,00,2025-04-17_14h12.38.903,Surprise recog test,2023.1.3,59.973971293756016,
198,0,198,0,,,,,,,,,,,,,,,,,,,,,,,,,,,,,,,,,,1770.783946200041,,1768.7460156001616,1768.7460156001616,1768.7460156001616,1768.7460156001616,old_stationery_30.png,199,5.0,2.0395098999142647,,,070,00,2025-04-17_14h12.38.903,Surprise recog test,2023.1.3,59.973971293756016,
199,0,199,0,,,,,,,,,,,,,,,,,,,,,,,,,,,,,,,,,,1774.2540726000443,,1771.8156532000285,1771.8156532000285,1771.8156532000285,1771.8156532000285,old_fruit_16.png,200,2.0,2.4388532999437302,,,070,00,2025-04-17_14h12.38.903,Surprise recog test,2023.1.3,59.973971293756016,
200,0,200,0,,,,,,,,,,,,,,,,,,,,,,,,,,,,,,,,,,1776.9172733000014,1777.9355570001062,1775.2825894001871,1775.2825894001871,1775.2825894001871,1775.2825894001871,new_stationery_17.png,201,2.0,1.6344214000273496,,,070,00,2025-04-17_14h12.38.903,Surprise recog test,2023.1.3,59.973971293756016,
201,0,201,0,,,,,,,,,,,,,,,,,,,,,,,,,,,,,,,,,,1779.7714438000694,1780.7913619000465,1777.9355570001062,1777.9355570001062,1777.9355570001062,1777.9355570001062,old_sceneOut_14.png,202,3.0,1.8376334998756647,,,070,00,2025-04-17_14h12.38.903,Surprise recog test,2023.1.3,59.973971293756016,
202,0,202,0,,,,,,,,,,,,,,,,,,,,,,,,,,,,,,,,,,1782.9826566001866,1783.994434799999,1780.7913619000465,1780.7913619000465,1780.7913619000465,1780.7913619000465,old_sceneIn_38.png,203,4.0,2.1929413001053035,,,070,00,2025-04-17_14h12.38.903,Surprise recog test,2023.1.3,59.973971293756016,
203,0,203,0,,,,,,,,,,,,,,,,,,,,,,,,,,,,,,,,,,1785.5755309001543,1786.5799134001136,1783.994434799999,1783.994434799999,1783.994434799999,1783.994434799999,new_sceneIn_1.png,204,5.0,1.5707976999692619,,,070,00,2025-04-17_14h12.38.903,Surprise recog test,2023.1.3,59.973971293756016,
204,0,204,0,,,,,,,,,,,,,,,,,,,,,,,,,,,,,,,,,,1788.4075853000395,1789.418566700071,1786.5799134001136,1786.5799134001136,1786.5799134001136,1786.5799134001136,old_fruit_31.png,205,3.0,1.8230939998757094,,,070,00,2025-04-17_14h12.38.903,Surprise recog test,2023.1.3,59.973971293756016,
205,0,205,0,,,,,,,,,,,,,,,,,,,,,,,,,,,,,,,,,,1790.9588065000717,1791.9835185999982,1789.418566700071,1789.418566700071,1789.418566700071,1789.418566700071,new_stationery_30.png,206,3.0,1.5347583000548184,,,070,00,2025-04-17_14h12.38.903,Surprise recog test,2023.1.3,59.973971293756016,
206,0,206,0,,,,,,,,,,,,,,,,,,,,,,,,,,,,,,,,,,1793.817672900157,1794.8245080001652,1791.9835185999982,1791.9835185999982,1791.9835185999982,1791.9835185999982,new_sceneOut_11.png,207,4.0,1.836634799838066,,,070,00,2025-04-17_14h12.38.903,Surprise recog test,2023.1.3,59.973971293756016,
207,0,207,0,,,,,,,,,,,,,,,,,,,,,,,,,,,,,,,,,,1796.6577900000848,1797.6772293001413,1794.8245080001652,1794.8245080001652,1794.8245080001652,1794.8245080001652,old_sceneIn_4.png,208,4.0,1.8293477001134306,,,070,00,2025-04-17_14h12.38.903,Surprise recog test,2023.1.3,59.973971293756016,
208,0,208,0,,,,,,,,,,,,,,,,,,,,,,,,,,,,,,,,,,1800.381764400052,1801.4104250001255,1797.6772293001413,1797.6772293001413,1797.6772293001413,1797.6772293001413,old_sceneOut_45.png,209,3.0,2.69842809997499,,,070,00,2025-04-17_14h12.38.903,Surprise recog test,2023.1.3,59.973971293756016,
209,0,209,0,,,,,,,,,,,,,,,,,,,,,,,,,,,,,,,,,,1803.373948100023,1804.3941978001967,1801.4104250001255,1801.4104250001255,1801.4104250001255,1801.4104250001255,old_sceneOut_48.png,210,2.0,1.964507699944079,,,070,00,2025-04-17_14h12.38.903,Surprise recog test,2023.1.3,59.973971293756016,
210,0,210,0,,,,,,,,,,,,,,,,,,,,,,,,,,,,,,,,,,1806.596585900057,,1804.3941978001967,1804.3941978001967,1804.3941978001967,1804.3941978001967,new_fruit_46.png,211,5.0,2.205764199839905,,,070,00,2025-04-17_14h12.38.903,Surprise recog test,2023.1.3,59.973971293756016,
211,0,211,0,,,,,,,,,,,,,,,,,,,,,,,,,,,,,,,,,,1809.191858000122,1810.2039260000456,1807.616038999986,1807.616038999986,1807.616038999986,1807.616038999986,old_stationery_27.png,212,3.0,1.5698882001452148,,,070,00,2025-04-17_14h12.38.903,Surprise recog test,2023.1.3,59.973971293756016,
212,0,212,0,,,,,,,,,,,,,,,,,,,,,,,,,,,,,,,,,,1812.1876159000676,1813.2129466000479,1810.2039260000456,1810.2039260000456,1810.2039260000456,1810.2039260000456,new_fruit_4.png,213,5.0,1.9782104999758303,,,070,00,2025-04-17_14h12.38.903,Surprise recog test,2023.1.3,59.973971293756016,
213,0,213,0,,,,,,,,,,,,,,,,,,,,,,,,,,,,,,,,,,1815.3918810000177,1816.4055014001206,1813.2129466000479,1813.2129466000479,1813.2129466000479,1813.2129466000479,old_stationery_22.png,214,5.0,2.1747246000450104,,,070,00,2025-04-17_14h12.38.903,Surprise recog test,2023.1.3,59.973971293756016,
214,0,214,0,,,,,,,,,,,,,,,,,,,,,,,,,,,,,,,,,,1818.4531265001278,1819.473791600205,1816.4055014001206,1816.4055014001206,1816.4055014001206,1816.4055014001206,new_fruit_1.png,215,4.0,2.0362254998181015,,,070,00,2025-04-17_14h12.38.903,Surprise recog test,2023.1.3,59.973971293756016,
215,0,215,0,,,,,,,,,,,,,,,,,,,,,,,,,,,,,,,,,,1821.7931817001663,,1819.473791600205,1819.473791600205,1819.473791600205,1819.473791600205,old_sceneOut_23.png,216,5.0,2.321156800026074,,,070,00,2025-04-17_14h12.38.903,Surprise recog test,2023.1.3,59.973971293756016,
216,0,216,0,,,,,,,,,,,,,,,,,,,,,,,,,,,,,,,,,,1825.6982800001279,1826.7272291001864,1822.8244898000266,1822.8244898000266,1822.8244898000266,1822.8244898000266,old_stationery_33.png,217,3.0,2.875001899898052,,,070,00,2025-04-17_14h12.38.903,Surprise recog test,2023.1.3,59.973971293756016,
217,0,217,0,,,,,,,,,,,,,,,,,,,,,,,,,,,,,,,,,,1829.271992900176,1830.2968431001063,1826.7272291001864,1826.7272291001864,1826.7272291001864,1826.7272291001864,new_fruit_23.png,218,4.0,2.5460016999859363,,,070,00,2025-04-17_14h12.38.903,Surprise recog test,2023.1.3,59.973971293756016,
218,0,218,0,,,,,,,,,,,,,,,,,,,,,,,,,,,,,,,,,,1832.5842195001896,,1830.2968431001063,1830.2968431001063,1830.2968431001063,1830.2968431001063,old_sceneOut_39.png,219,3.0,2.2880817998666316,,,070,00,2025-04-17_14h12.38.903,Surprise recog test,2023.1.3,59.973971293756016,
219,0,219,0,,,,,,,,,,,,,,,,,,,,,,,,,,,,,,,,,,1835.0754166999832,1836.0992765000556,1833.6165746999905,1833.6165746999905,1833.6165746999905,1833.6165746999905,new_fruit_9.png,220,3.0,1.460999900009483,,,070,00,2025-04-17_14h12.38.903,Surprise recog test,2023.1.3,59.973971293756016,
220,0,220,0,,,,,,,,,,,,,,,,,,,,,,,,,,,,,,,,,,1839.0271403000224,1840.0552908000536,1836.0992765000556,1836.0992765000556,1836.0992765000556,1836.0992765000556,old_sceneOut_4.png,221,3.0,2.9289680998772383,,,070,00,2025-04-17_14h12.38.903,Surprise recog test,2023.1.3,59.973971293756016,
221,0,221,0,,,,,,,,,,,,,,,,,,,,,,,,,,,,,,,,,,1841.7596974000335,,1840.0552908000536,1840.0552908000536,1840.0552908000536,1840.0552908000536,old_sceneOut_25.png,222,2.0,1.704367200145498,,,070,00,2025-04-17_14h12.38.903,Surprise recog test,2023.1.3,59.973971293756016,
222,0,222,0,,,,,,,,,,,,,,,,,,,,,,,,,,,,,,,,,,1844.2763914000243,,1842.7929688000586,1842.7929688000586,1842.7929688000586,1842.7929688000586,new_sceneOut_7.png,223,2.0,1.4848313999827951,,,070,00,2025-04-17_14h12.38.903,Surprise recog test,2023.1.3,59.973971293756016,
223,0,223,0,,,,,,,,,,,,,,,,,,,,,,,,,,,,,,,,,,1847.5176715000998,1848.5473351001274,1845.3100533001125,1845.3100533001125,1845.3100533001125,1845.3100533001125,old_sceneOut_27.png,224,4.0,2.208690900122747,,,070,00,2025-04-17_14h12.38.903,Surprise recog test,2023.1.3,59.973971293756016,
224,0,224,0,,,,,,,,,,,,,,,,,,,,,,,,,,,,,,,,,,1850.7037855000235,1851.7353427000344,1848.5473351001274,1848.5473351001274,1848.5473351001274,1848.5473351001274,old_stationery_26.png,225,1.0,2.16014919988811,,,070,00,2025-04-17_14h12.38.903,Surprise recog test,2023.1.3,59.973971293756016,
225,0,225,0,,,,,,,,,,,,,,,,,,,,,,,,,,,,,,,,,,1854.2944477000274,1855.315709900111,1851.7353427000344,1851.7353427000344,1851.7353427000344,1851.7353427000344,new_sceneOut_34.png,226,3.0,2.5623690001666546,,,070,00,2025-04-17_14h12.38.903,Surprise recog test,2023.1.3,59.973971293756016,
226,0,226,0,,,,,,,,,,,,,,,,,,,,,,,,,,,,,,,,,,1857.5239269000012,1858.539950700011,1855.315709900111,1855.315709900111,1855.315709900111,1855.315709900111,new_stationery_48.png,227,4.0,2.2073951000347733,,,070,00,2025-04-17_14h12.38.903,Surprise recog test,2023.1.3,59.973971293756016,
227,0,227,0,,,,,,,,,,,,,,,,,,,,,,,,,,,,,,,,,,1860.4743280999828,,1858.539950700011,1858.539950700011,1858.539950700011,1858.539950700011,old_fruit_44.png,228,1.0,1.9278607000596821,,,070,00,2025-04-17_14h12.38.903,Surprise recog test,2023.1.3,59.973971293756016,
228,0,228,0,,,,,,,,,,,,,,,,,,,,,,,,,,,,,,,,,,1863.4841554001905,1864.4989423002116,1861.5096078000497,1861.5096078000497,1861.5096078000497,1861.5096078000497,new_stationery_22.png,229,1.0,1.9760563001036644,,,070,00,2025-04-17_14h12.38.903,Surprise recog test,2023.1.3,59.973971293756016,
229,0,229,0,,,,,,,,,,,,,,,,,,,,,,,,,,,,,,,,,,1867.2473934001755,,1864.4989423002116,1864.4989423002116,1864.4989423002116,1864.4989423002116,new_sceneOut_25.png,230,3.0,2.7435484000016004,,,070,00,2025-04-17_14h12.38.903,Surprise recog test,2023.1.3,59.973971293756016,
230,0,230,0,,,,,,,,,,,,,,,,,,,,,,,,,,,,,,,,,,1870.3793456000276,1871.3980002000462,1868.278791300021,1868.278791300021,1868.278791300021,1868.278791300021,new_stationery_29.png,231,4.0,2.100180999841541,,,070,00,2025-04-17_14h12.38.903,Surprise recog test,2023.1.3,59.973971293756016,
231,0,231,0,,,,,,,,,,,,,,,,,,,,,,,,,,,,,,,,,,1874.0173238001298,1875.024705399992,1871.3980002000462,1871.3980002000462,1871.3980002000462,1871.3980002000462,old_fruit_5.png,232,4.0,2.621151100145653,,,070,00,2025-04-17_14h12.38.903,Surprise recog test,2023.1.3,59.973971293756016,
232,0,232,0,,,,,,,,,,,,,,,,,,,,,,,,,,,,,,,,,,1877.3606480001472,1878.384683100041,1875.024705399992,1875.024705399992,1875.024705399992,1875.024705399992,new_sceneOut_23.png,233,4.0,2.332027900032699,,,070,00,2025-04-17_14h12.38.903,Surprise recog test,2023.1.3,59.973971293756016,
233,0,233,0,,,,,,,,,,,,,,,,,,,,,,,,,,,,,,,,,,1880.5318717001937,1881.558549300069,1878.384683100041,1878.384683100041,1878.384683100041,1878.384683100041,new_fruit_37.png,234,4.0,2.1486328998580575,,,070,00,2025-04-17_14h12.38.903,Surprise recog test,2023.1.3,59.973971293756016,
234,0,234,0,,,,,,,,,,,,,,,,,,,,,,,,,,,,,,,,,,1882.7362900001463,1883.7596569000743,1881.558549300069,1881.558549300069,1881.558549300069,1881.558549300069,new_sceneIn_17.png,235,4.0,1.1781663000583649,,,070,00,2025-04-17_14h12.38.903,Surprise recog test,2023.1.3,59.973971293756016,
235,0,235,0,,,,,,,,,,,,,,,,,,,,,,,,,,,,,,,,,,1886.2772002001293,1887.298123500077,1883.7596569000743,1883.7596569000743,1883.7596569000743,1883.7596569000743,old_sceneOut_35.png,236,3.0,2.5201874000485986,,,070,00,2025-04-17_14h12.38.903,Surprise recog test,2023.1.3,59.973971293756016,
236,0,236,0,,,,,,,,,,,,,,,,,,,,,,,,,,,,,,,,,,1889.3601797001902,1890.3797155001666,1887.298123500077,1887.298123500077,1887.298123500077,1887.298123500077,old_sceneIn_9.png,237,3.0,2.0630432998295873,,,070,00,2025-04-17_14h12.38.903,Surprise recog test,2023.1.3,59.973971293756016,
237,0,237,0,,,,,,,,,,,,,,,,,,,,,,,,,,,,,,,,,,1892.2427767000627,1893.2694412001874,1890.3797155001666,1890.3797155001666,1890.3797155001666,1890.3797155001666,old_fruit_19.png,238,5.0,1.8648150998633355,,,070,00,2025-04-17_14h12.38.903,Surprise recog test,2023.1.3,59.973971293756016,
238,0,238,0,,,,,,,,,,,,,,,,,,,,,,,,,,,,,,,,,,1895.6683706000913,1896.6762244000565,1893.2694412001874,1893.2694412001874,1893.2694412001874,1893.2694412001874,new_sceneOut_28.png,239,3.0,2.400888599921018,,,070,00,2025-04-17_14h12.38.903,Surprise recog test,2023.1.3,59.973971293756016,
239,0,239,0,,,,,,,,,,,,,,,,,,,,,,,,,,,,,,,,,,1899.2655003000982,1900.2891067001037,1896.6762244000565,1896.6762244000565,1896.6762244000565,1896.6762244000565,old_sceneOut_21.png,240,5.0,2.5878339000046253,,,070,00,2025-04-17_14h12.38.903,Surprise recog test,2023.1.3,59.973971293756016,
240,0,240,0,,,,,,,,,,,,,,,,,,,,,,,,,,,,,,,,,,1902.531917200191,1903.5575698001776,1900.2891067001037,1900.2891067001037,1900.2891067001037,1900.2891067001037,new_sceneIn_5.png,241,2.0,2.2426545000635087,,,070,00,2025-04-17_14h12.38.903,Surprise recog test,2023.1.3,59.973971293756016,
241,0,241,0,,,,,,,,,,,,,,,,,,,,,,,,,,,,,,,,,,1905.604873600183,1906.6167423999868,1903.5575698001776,1903.5575698001776,1903.5575698001776,1903.5575698001776,new_sceneIn_24.png,242,2.0,2.0464031000155956,,,070,00,2025-04-17_14h12.38.903,Surprise recog test,2023.1.3,59.973971293756016,
242,0,242,0,,,,,,,,,,,,,,,,,,,,,,,,,,,,,,,,,,1908.9013363001868,1909.924796400126,1906.6167423999868,1906.6167423999868,1906.6167423999868,1906.6167423999868,old_fruit_8.png,243,1.0,2.2795415001455694,,,070,00,2025-04-17_14h12.38.903,Surprise recog test,2023.1.3,59.973971293756016,
243,0,243,0,,,,,,,,,,,,,,,,,,,,,,,,,,,,,,,,,,1911.8210591999814,1912.8424480000976,1909.924796400126,1909.924796400126,1909.924796400126,1909.924796400126,old_fruit_33.png,244,1.0,1.8972589001059532,,,070,00,2025-04-17_14h12.38.903,Surprise recog test,2023.1.3,59.973971293756016,
244,0,244,0,,,,,,,,,,,,,,,,,,,,,,,,,,,,,,,,,,1916.490759300068,1917.5201300000772,1912.8424480000976,1912.8424480000976,1912.8424480000976,1912.8424480000976,new_stationery_43.png,245,3.0,3.6475841000210494,,,070,00,2025-04-17_14h12.38.903,Surprise recog test,2023.1.3,59.973971293756016,
245,0,245,0,,,,,,,,,,,,,,,,,,,,,,,,,,,,,,,,,,1920.1254296000116,1921.1504011000507,1917.5201300000772,1917.5201300000772,1917.5201300000772,1917.5201300000772,new_sceneOut_39.png,246,3.0,2.6071920001413673,,,070,00,2025-04-17_14h12.38.903,Surprise recog test,2023.1.3,59.973971293756016,
246,0,246,0,,,,,,,,,,,,,,,,,,,,,,,,,,,,,,,,,,1923.3578883002046,1924.3742490001023,1921.1504011000507,1921.1504011000507,1921.1504011000507,1921.1504011000507,new_fruit_11.png,247,4.0,2.2077601000200957,,,070,00,2025-04-17_14h12.38.903,Surprise recog test,2023.1.3,59.973971293756016,
247,0,247,0,,,,,,,,,,,,,,,,,,,,,,,,,,,,,,,,,,1926.2613561002072,,1924.3742490001023,1924.3742490001023,1924.3742490001023,1924.3742490001023,old_fruit_47.png,248,1.0,1.8874538999516517,,,070,00,2025-04-17_14h12.38.903,Surprise recog test,2023.1.3,59.973971293756016,
248,0,248,0,,,,,,,,,,,,,,,,,,,,,,,,,,,,,,,,,,1930.132435800042,,1927.2962070000358,1927.2962070000358,1927.2962070000358,1927.2962070000358,new_stationery_8.png,249,3.0,2.8366325001697987,,,070,00,2025-04-17_14h12.38.903,Surprise recog test,2023.1.3,59.973971293756016,
249,0,249,0,,,,,,,,,,,,,,,,,,,,,,,,,,,,,,,,,,1933.6913203999866,1934.7181753001641,1931.1534487002064,1931.1534487002064,1931.1534487002064,1931.1534487002064,new_sceneOut_18.png,250,4.0,2.5339520999696106,,,070,00,2025-04-17_14h12.38.903,Surprise recog test,2023.1.3,59.973971293756016,
250,0,250,0,,,,,,,,,,,,,,,,,,,,,,,,,,,,,,,,,,1937.348627800122,1938.3746356000192,1934.7181753001641,1934.7181753001641,1934.7181753001641,1934.7181753001641,new_sceneIn_33.png,251,4.0,2.6303539001382887,,,070,00,2025-04-17_14h12.38.903,Surprise recog test,2023.1.3,59.973971293756016,
251,0,251,0,,,,,,,,,,,,,,,,,,,,,,,,,,,,,,,,,,1941.0002258000895,1942.0241082999855,1938.3746356000192,1938.3746356000192,1938.3746356000192,1938.3746356000192,old_sceneIn_22.png,252,3.0,2.628616200061515,,,070,00,2025-04-17_14h12.38.903,Surprise recog test,2023.1.3,59.973971293756016,
252,0,252,0,,,,,,,,,,,,,,,,,,,,,,,,,,,,,,,,,,1943.3745674001984,1944.390130800195,1942.0241082999855,1942.0241082999855,1942.0241082999855,1942.0241082999855,new_sceneOut_35.png,253,3.0,1.3518986001145095,,,070,00,2025-04-17_14h12.38.903,Surprise recog test,2023.1.3,59.973971293756016,
253,0,253,0,,,,,,,,,,,,,,,,,,,,,,,,,,,,,,,,,,1946.5060980000999,1947.52638210007,1944.390130800195,1944.390130800195,1944.390130800195,1944.390130800195,new_sceneIn_32.png,254,5.0,2.1176160001195967,,,070,00,2025-04-17_14h12.38.903,Surprise recog test,2023.1.3,59.973971293756016,
254,0,254,0,,,,,,,,,,,,,,,,,,,,,,,,,,,,,,,,,,1949.4739471999928,1950.4958385000937,1947.52638210007,1947.52638210007,1947.52638210007,1947.52638210007,old_sceneIn_39.png,255,2.0,1.9491685000248253,,,070,00,2025-04-17_14h12.38.903,Surprise recog test,2023.1.3,59.973971293756016,
255,0,255,0,,,,,,,,,,,,,,,,,,,,,,,,,,,,,,,,,,1952.4311727001332,1953.4553665001877,1950.4958385000937,1950.4958385000937,1950.4958385000937,1950.4958385000937,new_stationery_6.png,256,3.0,1.9369150998536497,,,070,00,2025-04-17_14h12.38.903,Surprise recog test,2023.1.3,59.973971293756016,
256,0,256,0,,,,,,,,,,,,,,,,,,,,,,,,,,,,,,,,,,1955.186153500108,,1953.4553665001877,1953.4553665001877,1953.4553665001877,1953.4553665001877,new_sceneOut_1.png,257,2.0,1.7366130000445992,,,070,00,2025-04-17_14h12.38.903,Surprise recog test,2023.1.3,59.973971293756016,
257,0,257,0,,,,,,,,,,,,,,,,,,,,,,,,,,,,,,,,,,1957.9770899000578,1959.003701100126,1956.2076507001184,1956.2076507001184,1956.2076507001184,1956.2076507001184,new_stationery_4.png,258,4.0,1.765000500017777,,,070,00,2025-04-17_14h12.38.903,Surprise recog test,2023.1.3,59.973971293756016,
258,0,258,0,,,,,,,,,,,,,,,,,,,,,,,,,,,,,,,,,,1960.8195861000568,1961.8406299001072,1959.003701100126,1959.003701100126,1959.003701100126,1959.003701100126,old_fruit_11.png,259,2.0,1.8168373999651521,,,070,00,2025-04-17_14h12.38.903,Surprise recog test,2023.1.3,59.973971293756016,
259,0,259,0,,,,,,,,,,,,,,,,,,,,,,,,,,,,,,,,,,1964.3514825000893,1965.374334000051,1961.8406299001072,1961.8406299001072,1961.8406299001072,1961.8406299001072,old_sceneIn_12.png,260,4.0,2.5111943997908384,,,070,00,2025-04-17_14h12.38.903,Surprise recog test,2023.1.3,59.973971293756016,
260,0,260,0,,,,,,,,,,,,,,,,,,,,,,,,,,,,,,,,,,1967.234294100199,1968.2537016000133,1965.374334000051,1965.374334000051,1965.374334000051,1965.374334000051,old_sceneOut_38.png,261,3.0,1.861480100080371,,,070,00,2025-04-17_14h12.38.903,Surprise recog test,2023.1.3,59.973971293756016,
261,0,261,0,,,,,,,,,,,,,,,,,,,,,,,,,,,,,,,,,,1970.8771918001585,1971.887846000027,1968.2537016000133,1968.2537016000133,1968.2537016000133,1968.2537016000133,old_sceneOut_13.png,262,3.0,2.622567499987781,,,070,00,2025-04-17_14h12.38.903,Surprise recog test,2023.1.3,59.973971293756016,
262,0,262,0,,,,,,,,,,,,,,,,,,,,,,,,,,,,,,,,,,1973.282261800021,1974.2898020001594,1971.887846000027,1971.887846000027,1971.887846000027,1971.887846000027,new_sceneIn_38.png,263,3.0,1.3929226000327617,,,070,00,2025-04-17_14h12.38.903,Surprise recog test,2023.1.3,59.973971293756016,
263,0,263,0,,,,,,,,,,,,,,,,,,,,,,,,,,,,,,,,,,1976.3809075001627,1977.3993770000525,1974.2898020001594,1974.2898020001594,1974.2898020001594,1974.2898020001594,old_stationery_10.png,264,4.0,2.0858876002021134,,,070,00,2025-04-17_14h12.38.903,Surprise recog test,2023.1.3,59.973971293756016,
264,0,264,0,,,,,,,,,,,,,,,,,,,,,,,,,,,,,,,,,,1980.512707100017,1981.5410834001377,1977.3993770000525,1977.3993770000525,1977.3993770000525,1977.3993770000525,new_sceneIn_37.png,265,4.0,3.111825899919495,,,070,00,2025-04-17_14h12.38.903,Surprise recog test,2023.1.3,59.973971293756016,
265,0,265,0,,,,,,,,,,,,,,,,,,,,,,,,,,,,,,,,,,1983.2293153000064,1984.2599722000305,1981.5410834001377,1981.5410834001377,1981.5410834001377,1981.5410834001377,old_sceneOut_36.png,266,2.0,1.6906041000038385,,,070,00,2025-04-17_14h12.38.903,Surprise recog test,2023.1.3,59.973971293756016,
266,0,266,0,,,,,,,,,,,,,,,,,,,,,,,,,,,,,,,,,,1986.1171126000118,1987.1399679000024,1984.2599722000305,1984.2599722000305,1984.2599722000305,1984.2599722000305,old_sceneIn_35.png,267,5.0,1.8584047998301685,,,070,00,2025-04-17_14h12.38.903,Surprise recog test,2023.1.3,59.973971293756016,
267,0,267,0,,,,,,,,,,,,,,,,,,,,,,,,,,,,,,,,,,1989.6355861001648,1990.6631051001605,1987.1399679000024,1987.1399679000024,1987.1399679000024,1987.1399679000024,new_sceneOut_32.png,268,4.0,2.4954287000000477,,,070,00,2025-04-17_14h12.38.903,Surprise recog test,2023.1.3,59.973971293756016,
268,0,268,0,,,,,,,,,,,,,,,,,,,,,,,,,,,,,,,,,,1992.5674116001464,,1990.6631051001605,1990.6631051001605,1990.6631051001605,1990.6631051001605,new_stationery_42.png,269,4.0,1.9046563000883907,,,070,00,2025-04-17_14h12.38.903,Surprise recog test,2023.1.3,59.973971293756016,
269,0,269,0,,,,,,,,,,,,,,,,,,,,,,,,,,,,,,,,,,1995.779850100167,1996.792240299983,1993.6003101000097,1993.6003101000097,1993.6003101000097,1993.6003101000097,new_sceneIn_18.png,270,5.0,2.181336799869314,,,070,00,2025-04-17_14h12.38.903,Surprise recog test,2023.1.3,59.973971293756016,
270,0,270,0,,,,,,,,,,,,,,,,,,,,,,,,,,,,,,,,,,1998.557116100099,1999.5756287002005,1996.792240299983,1996.792240299983,1996.792240299983,1996.792240299983,old_stationery_39.png,271,3.0,1.7610756000503898,,,070,00,2025-04-17_14h12.38.903,Surprise recog test,2023.1.3,59.973971293756016,
271,0,271,0,,,,,,,,,,,,,,,,,,,,,,,,,,,,,,,,,,2001.3413583000656,,1999.5756287002005,1999.5756287002005,1999.5756287002005,1999.5756287002005,old_stationery_46.png,272,2.0,1.7615384999662638,,,070,00,2025-04-17_14h12.38.903,Surprise recog test,2023.1.3,59.973971293756016,
272,0,272,0,,,,,,,,,,,,,,,,,,,,,,,,,,,,,,,,,,2005.0898448000662,2006.108388400171,2002.374406900024,2002.374406900024,2002.374406900024,2002.374406900024,old_sceneOut_11.png,273,1.0,2.7154029000084847,,,070,00,2025-04-17_14h12.38.903,Surprise recog test,2023.1.3,59.973971293756016,
273,0,273,0,,,,,,,,,,,,,,,,,,,,,,,,,,,,,,,,,,2008.8877761000767,2009.9151580000762,2006.108388400171,2006.108388400171,2006.108388400171,2006.108388400171,old_sceneIn_10.png,274,3.0,2.777364599984139,,,070,00,2025-04-17_14h12.38.903,Surprise recog test,2023.1.3,59.973971293756016,
274,0,274,0,,,,,,,,,,,,,,,,,,,,,,,,,,,,,,,,,,2011.9217547001317,2012.9372637001798,2009.9151580000762,2009.9151580000762,2009.9151580000762,2009.9151580000762,old_stationery_47.png,275,4.0,2.0105089999269694,,,070,00,2025-04-17_14h12.38.903,Surprise recog test,2023.1.3,59.973971293756016,
275,0,275,0,,,,,,,,,,,,,,,,,,,,,,,,,,,,,,,,,,2015.575371599989,2016.598411800107,2012.9372637001798,2012.9372637001798,2012.9372637001798,2012.9372637001798,old_stationery_11.png,276,4.0,2.63361610006541,,,070,00,2025-04-17_14h12.38.903,Surprise recog test,2023.1.3,59.973971293756016,
276,0,276,0,,,,,,,,,,,,,,,,,,,,,,,,,,,,,,,,,,2018.5804626999889,2019.6072558001615,2016.598411800107,2016.598411800107,2016.598411800107,2016.598411800107,new_stationery_15.png,277,3.0,1.9851618001703173,,,070,00,2025-04-17_14h12.38.903,Surprise recog test,2023.1.3,59.973971293756016,
277,0,277,0,,,,,,,,,,,,,,,,,,,,,,,,,,,,,,,,,,2021.0246786000207,,2019.6072558001615,2019.6072558001615,2019.6072558001615,2019.6072558001615,new_stationery_12.png,278,2.0,1.4181162999011576,,,070,00,2025-04-17_14h12.38.903,Surprise recog test,2023.1.3,59.973971293756016,
278,0,278,0,,,,,,,,,,,,,,,,,,,,,,,,,,,,,,,,,,2024.0317753001582,2025.0597624999937,2022.0492320000194,2022.0492320000194,2022.0492320000194,2022.0492320000194,new_stationery_28.png,279,1.0,1.9797043001744896,,,070,00,2025-04-17_14h12.38.903,Surprise recog test,2023.1.3,59.973971293756016,
279,0,279,0,,,,,,,,,,,,,,,,,,,,,,,,,,,,,,,,,,2026.4924277001992,2027.5009335000068,2025.0597624999937,2025.0597624999937,2025.0597624999937,2025.0597624999937,old_fruit_21.png,280,1.0,1.4339294999372214,,,070,00,2025-04-17_14h12.38.903,Surprise recog test,2023.1.3,59.973971293756016,
280,0,280,0,,,,,,,,,,,,,,,,,,,,,,,,,,,,,,,,,,2029.4172078000847,2030.4441380000208,2027.5009335000068,2027.5009335000068,2027.5009335000068,2027.5009335000068,old_stationery_7.png,281,3.0,1.9117953998502344,,,070,00,2025-04-17_14h12.38.903,Surprise recog test,2023.1.3,59.973971293756016,
281,0,281,0,,,,,,,,,,,,,,,,,,,,,,,,,,,,,,,,,,2032.4982961001806,2033.518036100082,2030.4441380000208,2030.4441380000208,2030.4441380000208,2030.4441380000208,old_sceneIn_20.png,282,4.0,2.0551654000300914,,,070,00,2025-04-17_14h12.38.903,Surprise recog test,2023.1.3,59.973971293756016,
282,0,282,0,,,,,,,,,,,,,,,,,,,,,,,,,,,,,,,,,,2034.8659155000933,2035.8804346001707,2033.518036100082,2033.518036100082,2033.518036100082,2033.518036100082,old_stationery_15.png,283,3.0,1.349487799918279,,,070,00,2025-04-17_14h12.38.903,Surprise recog test,2023.1.3,59.973971293756016,
283,0,283,0,,,,,,,,,,,,,,,,,,,,,,,,,,,,,,,,,,2038.8722126001958,,2035.8804346001707,2035.8804346001707,2035.8804346001707,2035.8804346001707,old_sceneIn_16.png,284,5.0,2.9928315998986363,,,070,00,2025-04-17_14h12.38.903,Surprise recog test,2023.1.3,59.973971293756016,
284,0,284,0,,,,,,,,,,,,,,,,,,,,,,,,,,,,,,,,,,2041.6056880000979,2042.6148443000857,2039.9010509999935,2039.9010509999935,2039.9010509999935,2039.9010509999935,old_sceneOut_24.png,285,3.0,1.7069070998113602,,,070,00,2025-04-17_14h12.38.903,Surprise recog test,2023.1.3,59.973971293756016,
285,0,285,0,,,,,,,,,,,,,,,,,,,,,,,,,,,,,,,,,,2044.1632248000242,2045.1818878999911,2042.6148443000857,2042.6148443000857,2042.6148443000857,2042.6148443000857,old_sceneIn_41.png,286,5.0,1.5459172998089343,,,070,00,2025-04-17_14h12.38.903,Surprise recog test,2023.1.3,59.973971293756016,
286,0,286,0,,,,,,,,,,,,,,,,,,,,,,,,,,,,,,,,,,2046.9773932001553,2047.9951495002024,2045.1818878999911,2045.1818878999911,2045.1818878999911,2045.1818878999911,new_sceneIn_8.png,287,4.0,1.7913168000523,,,070,00,2025-04-17_14h12.38.903,Surprise recog test,2023.1.3,59.973971293756016,
287,0,287,0,,,,,,,,,,,,,,,,,,,,,,,,,,,,,,,,,,2050.26811010018,2051.2865753001533,2047.9951495002024,2047.9951495002024,2047.9951495002024,2047.9951495002024,old_stationery_20.png,288,3.0,2.275764200137928,,,070,00,2025-04-17_14h12.38.903,Surprise recog test,2023.1.3,59.973971293756016,
288,0,288,0,,,,,,,,,,,,,,,,,,,,,,,,,,,,,,,,,,2053.2702805001754,2054.286992800189,2051.2865753001533,2051.2865753001533,2051.2865753001533,2051.2865753001533,new_sceneOut_50.png,289,4.0,1.9791372001636773,,,070,00,2025-04-17_14h12.38.903,Surprise recog test,2023.1.3,59.973971293756016,
289,0,289,0,,,,,,,,,,,,,,,,,,,,,,,,,,,,,,,,,,2056.5017795001622,2057.5224469001405,2054.286992800189,2054.286992800189,2054.286992800189,2054.286992800189,new_fruit_33.png,290,5.0,2.208711599931121,,,070,00,2025-04-17_14h12.38.903,Surprise recog test,2023.1.3,59.973971293756016,
290,0,290,0,,,,,,,,,,,,,,,,,,,,,,,,,,,,,,,,,,2059.2455324002076,2060.257638100069,2057.5224469001405,2057.5224469001405,2057.5224469001405,2057.5224469001405,new_sceneIn_20.png,291,5.0,1.72602319996804,,,070,00,2025-04-17_14h12.38.903,Surprise recog test,2023.1.3,59.973971293756016,
291,0,291,0,,,,,,,,,,,,,,,,,,,,,,,,,,,,,,,,,,2062.1872639001813,2063.196671700105,2060.257638100069,2060.257638100069,2060.257638100069,2060.257638100069,new_stationery_24.png,292,3.0,1.9262473999988288,,,070,00,2025-04-17_14h12.38.903,Surprise recog test,2023.1.3,59.973971293756016,
292,0,292,0,,,,,,,,,,,,,,,,,,,,,,,,,,,,,,,,,,2065.330382300075,2066.356687200023,2063.196671700105,2063.196671700105,2063.196671700105,2063.196671700105,new_fruit_43.png,293,4.0,2.127125399885699,,,070,00,2025-04-17_14h12.38.903,Surprise recog test,2023.1.3,59.973971293756016,
293,0,293,0,,,,,,,,,,,,,,,,,,,,,,,,,,,,,,,,,,2068.4222661000676,2069.449900600128,2066.356687200023,2066.356687200023,2066.356687200023,2066.356687200023,new_sceneOut_12.png,294,3.0,2.0671695000492036,,,070,00,2025-04-17_14h12.38.903,Surprise recog test,2023.1.3,59.973971293756016,
294,0,294,0,,,,,,,,,,,,,,,,,,,,,,,,,,,,,,,,,,2071.8174100001343,,2069.449900600128,2069.449900600128,2069.449900600128,2069.449900600128,new_fruit_3.png,295,2.0,2.368027300108224,,,070,00,2025-04-17_14h12.38.903,Surprise recog test,2023.1.3,59.973971293756016,
295,0,295,0,,,,,,,,,,,,,,,,,,,,,,,,,,,,,,,,,,2074.7116759000346,2075.7357848000247,2072.8428944000043,2072.8428944000043,2072.8428944000043,2072.8428944000043,new_fruit_22.png,296,4.0,1.8672061001416296,,,070,00,2025-04-17_14h12.38.903,Surprise recog test,2023.1.3,59.973971293756016,
296,0,296,0,,,,,,,,,,,,,,,,,,,,,,,,,,,,,,,,,,2078.71759250015,2079.7368954000995,2075.7357848000247,2075.7357848000247,2075.7357848000247,2075.7357848000247,old_sceneIn_26.png,297,5.0,2.9830306000076234,,,070,00,2025-04-17_14h12.38.903,Surprise recog test,2023.1.3,59.973971293756016,
297,0,297,0,,,,,,,,,,,,,,,,,,,,,,,,,,,,,,,,,,2081.757777900202,,2079.7368954000995,2079.7368954000995,2079.7368954000995,2079.7368954000995,new_sceneOut_20.png,298,3.0,2.0235015000216663,,,070,00,2025-04-17_14h12.38.903,Surprise recog test,2023.1.3,59.973971293756016,
298,0,298,0,,,,,,,,,,,,,,,,,,,,,,,,,,,,,,,,,,2085.0344830001704,2086.048412000062,2082.796511700144,2082.796511700144,2082.796511700144,2082.796511700144,old_sceneIn_47.png,299,4.0,2.2437402999494225,,,070,00,2025-04-17_14h12.38.903,Surprise recog test,2023.1.3,59.973971293756016,
299,0,299,0,,,,,,,,,,,,,,,,,,,,,,,,,,,,,,,,,,2088.660175500205,2089.6774630001746,2086.048412000062,2086.048412000062,2086.048412000062,2086.048412000062,old_sceneOut_3.png,300,4.0,2.6070145999547094,,,070,00,2025-04-17_14h12.38.903,Surprise recog test,2023.1.3,59.973971293756016,
300,0,300,0,,,,,,,,,,,,,,,,,,,,,,,,,,,,,,,,,,2092.3480234001763,2093.367617600132,2089.6774630001746,2089.6774630001746,2089.6774630001746,2089.6774630001746,new_sceneIn_28.png,301,5.0,2.669775600079447,,,070,00,2025-04-17_14h12.38.903,Surprise recog test,2023.1.3,59.973971293756016,
301,0,301,0,,,,,,,,,,,,,,,,,,,,,,,,,,,,,,,,,,2095.220557200024,,2093.367617600132,2093.367617600132,2093.367617600132,2093.367617600132,new_sceneOut_26.png,302,3.0,1.8556361999362707,,,070,00,2025-04-17_14h12.38.903,Surprise recog test,2023.1.3,59.973971293756016,
302,0,302,0,,,,,,,,,,,,,,,,,,,,,,,,,,,,,,,,,,2097.967778700171,2098.9828900999855,2096.257244999986,2096.257244999986,2096.257244999986,2096.257244999986,new_sceneIn_12.png,303,5.0,1.7148737001698464,,,070,00,2025-04-17_14h12.38.903,Surprise recog test,2023.1.3,59.973971293756016,
303,0,303,0,,,,,,,,,,,,,,,,,,,,,,,,,,,,,,,,,,2100.6790786001366,2101.698994100094,2098.9828900999855,2098.9828900999855,2098.9828900999855,2098.9828900999855,new_sceneOut_43.png,304,4.0,1.697330900002271,,,070,00,2025-04-17_14h12.38.903,Surprise recog test,2023.1.3,59.973971293756016,
304,0,304,0,,,,,,,,,,,,,,,,,,,,,,,,,,,,,,,,,,2103.7127824001946,2104.731501800008,2101.698994100094,2101.698994100094,2101.698994100094,2101.698994100094,old_stationery_1.png,305,2.0,2.0102923000231385,,,070,00,2025-04-17_14h12.38.903,Surprise recog test,2023.1.3,59.973971293756016,
305,0,305,0,,,,,,,,,,,,,,,,,,,,,,,,,,,,,,,,,,2107.3934397001285,2108.407063000137,2104.731501800008,2104.731501800008,2104.731501800008,2104.731501800008,old_sceneIn_25.png,306,4.0,2.6558010999578983,,,070,00,2025-04-17_14h12.38.903,Surprise recog test,2023.1.3,59.973971293756016,
306,0,306,0,,,,,,,,,,,,,,,,,,,,,,,,,,,,,,,,,,2110.719876800198,2111.746769100195,2108.407063000137,2108.407063000137,2108.407063000137,2108.407063000137,new_sceneIn_30.png,307,4.0,2.314985599834472,,,070,00,2025-04-17_14h12.38.903,Surprise recog test,2023.1.3,59.973971293756016,
307,0,307,0,,,,,,,,,,,,,,,,,,,,,,,,,,,,,,,,,,2113.685699300142,,2111.746769100195,2111.746769100195,2111.746769100195,2111.746769100195,new_fruit_29.png,308,5.0,1.9369258000515401,,,070,00,2025-04-17_14h12.38.903,Surprise recog test,2023.1.3,59.973971293756016,
308,0,308,0,,,,,,,,,,,,,,,,,,,,,,,,,,,,,,,,,,2116.636650700122,,2114.713712300174,2114.713712300174,2114.713712300174,2114.713712300174,old_fruit_24.png,309,1.0,1.919600100023672,,,070,00,2025-04-17_14h12.38.903,Surprise recog test,2023.1.3,59.973971293756016,
309,0,309,0,,,,,,,,,,,,,,,,,,,,,,,,,,,,,,,,,,2119.573533900082,,2117.671096300008,2117.671096300008,2117.671096300008,2117.671096300008,new_fruit_26.png,310,3.0,1.902492499910295,,,070,00,2025-04-17_14h12.38.903,Surprise recog test,2023.1.3,59.973971293756016,
310,0,310,0,,,,,,,,,,,,,,,,,,,,,,,,,,,,,,,,,,2122.8607939002104,2123.886482300004,2120.593931599986,2120.593931599986,2120.593931599986,2120.593931599986,new_fruit_25.png,311,4.0,2.2630797000601888,,,070,00,2025-04-17_14h12.38.903,Surprise recog test,2023.1.3,59.973971293756016,
311,0,311,0,,,,,,,,,,,,,,,,,,,,,,,,,,,,,,,,,,2125.958272300195,2126.9706796000246,2123.886482300004,2123.886482300004,2123.886482300004,2123.886482300004,old_sceneOut_29.png,312,2.0,2.071809600107372,,,070,00,2025-04-17_14h12.38.903,Surprise recog test,2023.1.3,59.973971293756016,
312,0,312,0,,,,,,,,,,,,,,,,,,,,,,,,,,,,,,,,,,2129.2998106000014,2130.332034200197,2126.9706796000246,2126.9706796000246,2126.9706796000246,2126.9706796000246,old_sceneOut_18.png,313,3.0,2.3269344000145793,,,070,00,2025-04-17_14h12.38.903,Surprise recog test,2023.1.3,59.973971293756016,
313,0,313,0,,,,,,,,,,,,,,,,,,,,,,,,,,,,,,,,,,2132.078354400117,2133.085908600129,2130.332034200197,2130.332034200197,2130.332034200197,2130.332034200197,new_sceneOut_38.png,314,4.0,1.7447081999853253,,,070,00,2025-04-17_14h12.38.903,Surprise recog test,2023.1.3,59.973971293756016,
314,0,314,0,,,,,,,,,,,,,,,,,,,,,,,,,,,,,,,,,,2135.8361214001197,,2133.085908600129,2133.085908600129,2133.085908600129,2133.085908600129,new_fruit_31.png,315,3.0,2.747183799976483,,,070,00,2025-04-17_14h12.38.903,Surprise recog test,2023.1.3,59.973971293756016,
315,0,315,0,,,,,,,,,,,,,,,,,,,,,,,,,,,,,,,,,,2138.724911000114,2139.7545291001443,2136.8688201000914,2136.8688201000914,2136.8688201000914,2136.8688201000914,old_sceneOut_15.png,316,2.0,1.8578661000356078,,,070,00,2025-04-17_14h12.38.903,Surprise recog test,2023.1.3,59.973971293756016,
316,0,316,0,,,,,,,,,,,,,,,,,,,,,,,,,,,,,,,,,,2141.7316145000514,2142.745996600017,2139.7545291001443,2139.7545291001443,2139.7545291001443,2139.7545291001443,new_fruit_41.png,317,5.0,1.97626159992069,,,070,00,2025-04-17_14h12.38.903,Surprise recog test,2023.1.3,59.973971293756016,
317,0,317,0,,,,,,,,,,,,,,,,,,,,,,,,,,,,,,,,,,2144.901161200134,2145.9309354000725,2142.745996600017,2142.745996600017,2142.745996600017,2142.745996600017,new_stationery_27.png,318,5.0,2.1522955000400543,,,070,00,2025-04-17_14h12.38.903,Surprise recog test,2023.1.3,59.973971293756016,
318,0,318,0,,,,,,,,,,,,,,,,,,,,,,,,,,,,,,,,,,2148.259994600201,2149.284221400041,2145.9309354000725,2145.9309354000725,2145.9309354000725,2145.9309354000725,old_fruit_12.png,319,2.0,2.3307262000162154,,,070,00,2025-04-17_14h12.38.903,Surprise recog test,2023.1.3,59.973971293756016,
319,0,319,0,,,,,,,,,,,,,,,,,,,,,,,,,,,,,,,,,,2151.6420110000763,2152.6650909001473,2149.284221400041,2149.284221400041,2149.284221400041,2149.284221400041,old_sceneOut_43.png,320,4.0,2.361678699962795,,,070,00,2025-04-17_14h12.38.903,Surprise recog test,2023.1.3,59.973971293756016,
320,0,320,0,,,,,,,,,,,,,,,,,,,,,,,,,,,,,,,,,,2155.279697800055,2156.2903493000194,2152.6650909001473,2152.6650909001473,2152.6650909001473,2152.6650909001473,new_sceneOut_10.png,321,2.0,2.614312100224197,,,070,00,2025-04-17_14h12.38.903,Surprise recog test,2023.1.3,59.973971293756016,
321,0,321,0,,,,,,,,,,,,,,,,,,,,,,,,,,,,,,,,,,2159.2929837000556,2160.318712100154,2156.2903493000194,2156.2903493000194,2156.2903493000194,2156.2903493000194,old_sceneIn_19.png,322,4.0,2.9955453001894057,,,070,00,2025-04-17_14h12.38.903,Surprise recog test,2023.1.3,59.973971293756016,
322,0,322,0,,,,,,,,,,,,,,,,,,,,,,,,,,,,,,,,,,2162.2058702001814,2163.2260586000048,2160.318712100154,2160.318712100154,2160.318712100154,2160.318712100154,old_sceneIn_28.png,323,5.0,1.8842045001219958,,,070,00,2025-04-17_14h12.38.903,Surprise recog test,2023.1.3,59.973971293756016,
323,0,323,0,,,,,,,,,,,,,,,,,,,,,,,,,,,,,,,,,,2165.3848387000617,2166.4112575000618,2163.2260586000048,2163.2260586000048,2163.2260586000048,2163.2260586000048,old_sceneOut_50.png,324,5.0,2.1613708999939263,,,070,00,2025-04-17_14h12.38.903,Surprise recog test,2023.1.3,59.973971293756016,
324,0,324,0,,,,,,,,,,,,,,,,,,,,,,,,,,,,,,,,,,2168.573973600054,2169.5853740000166,2166.4112575000618,2166.4112575000618,2166.4112575000618,2166.4112575000618,old_stationery_2.png,325,3.0,2.161498700035736,,,070,00,2025-04-17_14h12.38.903,Surprise recog test,2023.1.3,59.973971293756016,
325,0,325,0,,,,,,,,,,,,,,,,,,,,,,,,,,,,,,,,,,2172.653714500135,2173.6836471999995,2169.5853740000166,2169.5853740000166,2169.5853740000166,2169.5853740000166,new_sceneOut_3.png,326,3.0,3.062299300218001,,,070,00,2025-04-17_14h12.38.903,Surprise recog test,2023.1.3,59.973971293756016,
326,0,326,0,,,,,,,,,,,,,,,,,,,,,,,,,,,,,,,,,,2176.351720900042,2177.3686812000815,2173.6836471999995,2173.6836471999995,2173.6836471999995,2173.6836471999995,old_stationery_13.png,327,3.0,2.6678349000867456,,,070,00,2025-04-17_14h12.38.903,Surprise recog test,2023.1.3,59.973971293756016,
327,0,327,0,,,,,,,,,,,,,,,,,,,,,,,,,,,,,,,,,,2179.453700500075,2180.472899600165,2177.3686812000815,2177.3686812000815,2177.3686812000815,2177.3686812000815,new_stationery_11.png,328,4.0,2.0869346000254154,,,070,00,2025-04-17_14h12.38.903,Surprise recog test,2023.1.3,59.973971293756016,
328,0,328,0,,,,,,,,,,,,,,,,,,,,,,,,,,,,,,,,,,2182.3305493001826,2183.347291900078,2180.472899600165,2180.472899600165,2180.472899600165,2180.472899600165,new_sceneOut_42.png,329,2.0,1.8600494000129402,,,070,00,2025-04-17_14h12.38.903,Surprise recog test,2023.1.3,59.973971293756016,
329,0,329,0,,,,,,,,,,,,,,,,,,,,,,,,,,,,,,,,,,2186.1833958001807,2187.201427000109,2183.347291900078,2183.347291900078,2183.347291900078,2183.347291900078,new_fruit_19.png,330,3.0,2.8316319999285042,,,070,00,2025-04-17_14h12.38.903,Surprise recog test,2023.1.3,59.973971293756016,
330,0,330,0,,,,,,,,,,,,,,,,,,,,,,,,,,,,,,,,,,2189.260661000153,2190.266295300098,2187.201427000109,2187.201427000109,2187.201427000109,2187.201427000109,old_stationery_23.png,331,2.0,2.0496485999319702,,,070,00,2025-04-17_14h12.38.903,Surprise recog test,2023.1.3,59.973971293756016,
331,0,331,0,,,,,,,,,,,,,,,,,,,,,,,,,,,,,,,,,,2192.155118399998,2193.1823950000107,2190.266295300098,2190.266295300098,2190.266295300098,2190.266295300098,new_stationery_39.png,332,3.0,1.885552000021562,,,070,00,2025-04-17_14h12.38.903,Surprise recog test,2023.1.3,59.973971293756016,
332,0,332,0,,,,,,,,,,,,,,,,,,,,,,,,,,,,,,,,,,2196.2397290000226,2197.2593460001517,2193.1823950000107,2193.1823950000107,2193.1823950000107,2193.1823950000107,old_sceneIn_32.png,333,4.0,3.058859199983999,,,070,00,2025-04-17_14h12.38.903,Surprise recog test,2023.1.3,59.973971293756016,
333,0,333,0,,,,,,,,,,,,,,,,,,,,,,,,,,,,,,,,,,2199.5534675000235,2200.569666000083,2197.2593460001517,2197.2593460001517,2197.2593460001517,2197.2593460001517,old_sceneOut_20.png,334,3.0,2.289419600041583,,,070,00,2025-04-17_14h12.38.903,Surprise recog test,2023.1.3,59.973971293756016,
334,0,334,0,,,,,,,,,,,,,,,,,,,,,,,,,,,,,,,,,,2202.7217505001463,2203.737684600055,2200.569666000083,2200.569666000083,2200.569666000083,2200.569666000083,new_sceneIn_15.png,335,5.0,2.1554080999922007,,,070,00,2025-04-17_14h12.38.903,Surprise recog test,2023.1.3,59.973971293756016,
335,0,335,0,,,,,,,,,,,,,,,,,,,,,,,,,,,,,,,,,,2205.8579005000647,2206.879581700079,2203.737684600055,2203.737684600055,2203.737684600055,2203.737684600055,new_fruit_47.png,336,5.0,2.1216831000056118,,,070,00,2025-04-17_14h12.38.903,Surprise recog test,2023.1.3,59.973971293756016,
336,0,336,0,,,,,,,,,,,,,,,,,,,,,,,,,,,,,,,,,,2209.138396100141,2210.1484633001965,2206.879581700079,2206.879581700079,2206.879581700079,2206.879581700079,old_sceneIn_21.png,337,5.0,2.259548499947414,,,070,00,2025-04-17_14h12.38.903,Surprise recog test,2023.1.3,59.973971293756016,
337,0,337,0,,,,,,,,,,,,,,,,,,,,,,,,,,,,,,,,,,2212.293166700052,2213.3047985001467,2210.1484633001965,2210.1484633001965,2210.1484633001965,2210.1484633001965,new_sceneIn_6.png,338,5.0,2.1402457000222057,,,070,00,2025-04-17_14h12.38.903,Surprise recog test,2023.1.3,59.973971293756016,
338,0,338,0,,,,,,,,,,,,,,,,,,,,,,,,,,,,,,,,,,2215.4324148001615,2216.4492313000374,2213.3047985001467,2213.3047985001467,2213.3047985001467,2213.3047985001467,new_fruit_30.png,339,5.0,2.1234916001558304,,,070,00,2025-04-17_14h12.38.903,Surprise recog test,2023.1.3,59.973971293756016,
339,0,339,0,,,,,,,,,,,,,,,,,,,,,,,,,,,,,,,,,,2218.8187193002086,2219.839794300031,2216.4492313000374,2216.4492313000374,2216.4492313000374,2216.4492313000374,new_sceneIn_41.png,340,4.0,2.3724052000325173,,,070,00,2025-04-17_14h12.38.903,Surprise recog test,2023.1.3,59.973971293756016,
340,0,340,0,,,,,,,,,,,,,,,,,,,,,,,,,,,,,,,,,,2221.2392808999866,,2219.839794300031,2219.839794300031,2219.839794300031,2219.839794300031,new_sceneIn_31.png,341,4.0,1.4013231999706477,,,070,00,2025-04-17_14h12.38.903,Surprise recog test,2023.1.3,59.973971293756016,
341,0,341,0,,,,,,,,,,,,,,,,,,,,,,,,,,,,,,,,,,2224.7674114000984,2225.789040700067,2222.278900500154,2222.278900500154,2222.278900500154,2222.278900500154,new_fruit_5.png,342,3.0,2.493763400008902,,,070,00,2025-04-17_14h12.38.903,Surprise recog test,2023.1.3,59.973971293756016,
342,0,342,0,,,,,,,,,,,,,,,,,,,,,,,,,,,,,,,,,,2227.3422555001453,2228.3613680000417,2225.789040700067,2225.789040700067,2225.789040700067,2225.789040700067,old_fruit_32.png,343,3.0,1.5501491001341492,,,070,00,2025-04-17_14h12.38.903,Surprise recog test,2023.1.3,59.973971293756016,
343,0,343,0,,,,,,,,,,,,,,,,,,,,,,,,,,,,,,,,,,2231.538511699997,2232.5580025999807,2228.3613680000417,2228.3613680000417,2228.3613680000417,2228.3613680000417,new_fruit_32.png,344,4.0,3.176515000173822,,,070,00,2025-04-17_14h12.38.903,Surprise recog test,2023.1.3,59.973971293756016,
344,0,344,0,,,,,,,,,,,,,,,,,,,,,,,,,,,,,,,,,,2236.143571500201,2237.1696103001013,2232.5580025999807,2232.5580025999807,2232.5580025999807,2232.5580025999807,old_sceneIn_17.png,345,3.0,3.5854380999226123,,,070,00,2025-04-17_14h12.38.903,Surprise recog test,2023.1.3,59.973971293756016,
345,0,345,0,,,,,,,,,,,,,,,,,,,,,,,,,,,,,,,,,,2239.193553700112,2240.22360570007,2237.1696103001013,2237.1696103001013,2237.1696103001013,2237.1696103001013,new_sceneOut_37.png,346,5.0,2.023192699998617,,,070,00,2025-04-17_14h12.38.903,Surprise recog test,2023.1.3,59.973971293756016,
346,0,346,0,,,,,,,,,,,,,,,,,,,,,,,,,,,,,,,,,,2243.124687000178,,2240.22360570007,2240.22360570007,2240.22360570007,2240.22360570007,new_sceneIn_21.png,347,3.0,2.903750300174579,,,070,00,2025-04-17_14h12.38.903,Surprise recog test,2023.1.3,59.973971293756016,
347,0,347,0,,,,,,,,,,,,,,,,,,,,,,,,,,,,,,,,,,2246.391050599981,2247.409166500205,2244.1559014001396,2244.1559014001396,2244.1559014001396,2244.1559014001396,new_fruit_13.png,348,4.0,2.236308799823746,,,070,00,2025-04-17_14h12.38.903,Surprise recog test,2023.1.3,59.973971293756016,
348,0,348,0,,,,,,,,,,,,,,,,,,,,,,,,,,,,,,,,,,2249.2332469001412,2250.276334900176,2247.409166500205,2247.409166500205,2247.409166500205,2247.409166500205,new_sceneOut_47.png,349,3.0,1.8242413001134992,,,070,00,2025-04-17_14h12.38.903,Surprise recog test,2023.1.3,59.973971293756016,
