trial_loop.thisRepN,trial_loop.thisTrialN,trial_loop.thisN,trial_loop.thisIndex,VAS_slider.started,VAS_text.started,VAS_notstressed_text.started,VAS_stressed_text.started,continue_input.started,continue_text.started,label0.started,label10.started,label20.started,label30.started,label40.started,label50.started,label60.started,label70.started,label80.started,label90.started,label100.started,VAS_slider.response,VAS_slider.rt,VAS_slider.history,Answer_VAS,continue_input.keys,instruction_text.started,continue_text_2.started,continue_input_2.started,continue_input_2.keys,continue_input_2.rt,continue_input_2.duration,example_text.started,example_slider_2.started,example_image.started,example_slider_2.response,example_slider_2.rt,fixcross.started,fixcross.stopped,front_square.started,stim_images.started,trial_inst_images.started,slider_images.started,slider_images.stopped,thisImg,trial_count,slider_images.response,slider_images.rt,outro.started,outro.stopped,participant,condition,date,expName,psychopyVersion,frameRate,
,,,,149.55646670004353,149.55646670004353,149.55646670004353,149.55646670004353,149.55646670004353,149.55646670004353,149.55646670004353,149.55646670004353,149.55646670004353,149.55646670004353,149.55646670004353,149.55646670004353,149.55646670004353,149.55646670004353,149.55646670004353,149.55646670004353,149.55646670004353,2.0444444444444443,18.515165300108492,"[(2.0444444444444443, 18.515165300108492)]",2.0444444444444443,None,,,,,,,,,,,,,,,,,,,,,,,,,071,10,2025-05-27_16h33.23.246,Surprise recog test,2023.1.3,59.94873181707445,
,,,,,,,,,,,,,,,,,,,,,,,,,,168.10904060001485,168.10904060001485,168.10904060001485,space,19.05972300004214,None,,,,,,,,,,,,,,,,,,,071,10,2025-05-27_16h33.23.246,Surprise recog test,2023.1.3,59.94873181707445,
0,0,0,0,,,,,,,,,,,,,,,,,,,,,,,,,,,,,187.31213270011358,187.31213270011358,187.31213270011358,1.0,2.2635001000016928,195.5056219000835,190.5363270000089,190.5363270000089,190.5363270000089,190.5363270000089,190.5363270000089,195.4910111001227,new_sceneOut_17.png,1,None,None,,,071,10,2025-05-27_16h33.23.246,Surprise recog test,2023.1.3,59.94873181707445,
1,0,1,0,,,,,,,,,,,,,,,,,,,,,,,,,,,,,,,,,,199.22513340017758,200.23075140011497,196.51358840009198,196.51358840009198,196.51358840009198,196.51358840009198,,old_sceneIn_39.png,2,2.0,2.707640199922025,,,071,10,2025-05-27_16h33.23.246,Surprise recog test,2023.1.3,59.94873181707445,
2,0,2,0,,,,,,,,,,,,,,,,,,,,,,,,,,,,,,,,,,202.06998590007424,203.09164460003376,200.23075140011497,200.23075140011497,200.23075140011497,200.23075140011497,,old_sceneIn_4.png,3,1.0,1.8338043000549078,,,071,10,2025-05-27_16h33.23.246,Surprise recog test,2023.1.3,59.94873181707445,
3,0,3,0,,,,,,,,,,,,,,,,,,,,,,,,,,,,,,,,,,205.03819910017774,206.05720739997923,203.09164460003376,203.09164460003376,203.09164460003376,203.09164460003376,,old_sceneOut_26.png,4,4.0,1.9453367998357862,,,071,10,2025-05-27_16h33.23.246,Surprise recog test,2023.1.3,59.94873181707445,
4,0,4,0,,,,,,,,,,,,,,,,,,,,,,,,,,,,,,,,,,207.78261890006252,208.80316730006598,206.05720739997923,206.05720739997923,206.05720739997923,206.05720739997923,,old_sceneOut_1.png,5,5.0,1.7216073998715729,,,071,10,2025-05-27_16h33.23.246,Surprise recog test,2023.1.3,59.94873181707445,
5,0,5,0,,,,,,,,,,,,,,,,,,,,,,,,,,,,,,,,,,210.73957630014047,,208.80316730006598,208.80316730006598,208.80316730006598,208.80316730006598,,old_stationery_35.png,6,2.0,1.9399346001446247,,,071,10,2025-05-27_16h33.23.246,Surprise recog test,2023.1.3,59.94873181707445,
6,0,6,0,,,,,,,,,,,,,,,,,,,,,,,,,,,,,,,,,,213.44762910017744,214.48162039997987,211.77162140002474,211.77162140002474,211.77162140002474,211.77162140002474,,old_sceneOut_39.png,7,5.0,1.6779285001102835,,,071,10,2025-05-27_16h33.23.246,Surprise recog test,2023.1.3,59.94873181707445,
7,0,7,0,,,,,,,,,,,,,,,,,,,,,,,,,,,,,,,,,,215.5644296000246,216.5954108000733,214.48162039997987,214.48162039997987,214.48162039997987,214.48162039997987,,old_stationery_25.png,8,5.0,1.0858016000129282,,,071,10,2025-05-27_16h33.23.246,Surprise recog test,2023.1.3,59.94873181707445,
8,0,8,0,,,,,,,,,,,,,,,,,,,,,,,,,,,,,,,,,,218.5534004000947,219.5813304001931,216.5954108000733,216.5954108000733,216.5954108000733,216.5954108000733,,old_fruit_18.png,9,1.0,1.9606737999711186,,,071,10,2025-05-27_16h33.23.246,Surprise recog test,2023.1.3,59.94873181707445,
9,0,9,0,,,,,,,,,,,,,,,,,,,,,,,,,,,,,,,,,,221.66349439998157,,219.5813304001931,219.5813304001931,219.5813304001931,219.5813304001931,,new_sceneIn_15.png,10,5.0,2.085216399980709,,,071,10,2025-05-27_16h33.23.246,Surprise recog test,2023.1.3,59.94873181707445,
10,0,10,0,,,,,,,,,,,,,,,,,,,,,,,,,,,,,,,,,,225.47177310008556,226.49960640002973,222.6959790000692,222.6959790000692,222.6959790000692,222.6959790000692,,new_fruit_14.png,11,1.0,2.7774175000377,,,071,10,2025-05-27_16h33.23.246,Surprise recog test,2023.1.3,59.94873181707445,
11,0,11,0,,,,,,,,,,,,,,,,,,,,,,,,,,,,,,,,,,229.49091200018302,230.50684200017713,226.49960640002973,226.49960640002973,226.49960640002973,226.49960640002973,,new_fruit_22.png,12,5.0,2.9914544001221657,,,071,10,2025-05-27_16h33.23.246,Surprise recog test,2023.1.3,59.94873181707445,
12,0,12,0,,,,,,,,,,,,,,,,,,,,,,,,,,,,,,,,,,232.3187202999834,233.33414639998227,230.50684200017713,230.50684200017713,230.50684200017713,230.50684200017713,,old_sceneOut_8.png,13,4.0,1.8080319999717176,,,071,10,2025-05-27_16h33.23.246,Surprise recog test,2023.1.3,59.94873181707445,
13,0,13,0,,,,,,,,,,,,,,,,,,,,,,,,,,,,,,,,,,235.22695720009506,,233.33414639998227,233.33414639998227,233.33414639998227,233.33414639998227,,new_sceneIn_49.png,14,5.0,1.892123900121078,,,071,10,2025-05-27_16h33.23.246,Surprise recog test,2023.1.3,59.94873181707445,
14,0,14,0,,,,,,,,,,,,,,,,,,,,,,,,,,,,,,,,,,237.53985520009883,238.5560368001461,236.24965270003304,236.24965270003304,236.24965270003304,236.24965270003304,,new_sceneIn_32.png,15,5.0,1.2865368002094328,,,071,10,2025-05-27_16h33.23.246,Surprise recog test,2023.1.3,59.94873181707445,
15,0,15,0,,,,,,,,,,,,,,,,,,,,,,,,,,,,,,,,,,240.79719249997288,,238.5560368001461,238.5560368001461,238.5560368001461,238.5560368001461,,old_stationery_19.png,16,1.0,2.2424735000822693,,,071,10,2025-05-27_16h33.23.246,Surprise recog test,2023.1.3,59.94873181707445,
16,0,16,0,,,,,,,,,,,,,,,,,,,,,,,,,,,,,,,,,,243.92932060011663,244.9436241001822,241.82642140006647,241.82642140006647,241.82642140006647,241.82642140006647,,new_sceneOut_50.png,17,5.0,2.1010306000243872,,,071,10,2025-05-27_16h33.23.246,Surprise recog test,2023.1.3,59.94873181707445,
17,0,17,0,,,,,,,,,,,,,,,,,,,,,,,,,,,,,,,,,,245.8857838001568,246.90709650004283,244.9436241001822,244.9436241001822,244.9436241001822,244.9436241001822,,new_stationery_13.png,18,5.0,0.9434938000049442,,,071,10,2025-05-27_16h33.23.246,Surprise recog test,2023.1.3,59.94873181707445,
18,0,18,0,,,,,,,,,,,,,,,,,,,,,,,,,,,,,,,,,,248.5704432001803,,246.90709650004283,246.90709650004283,246.90709650004283,246.90709650004283,,new_fruit_15.png,19,1.0,1.6592780000064522,,,071,10,2025-05-27_16h33.23.246,Surprise recog test,2023.1.3,59.94873181707445,
19,0,19,0,,,,,,,,,,,,,,,,,,,,,,,,,,,,,,,,,,251.4615520001389,252.48500390001573,249.59614190016873,249.59614190016873,249.59614190016873,249.59614190016873,,new_sceneOut_43.png,20,5.0,1.8642990000080317,,,071,10,2025-05-27_16h33.23.246,Surprise recog test,2023.1.3,59.94873181707445,
20,0,20,0,,,,,,,,,,,,,,,,,,,,,,,,,,,,,,,,,,253.45561280008405,,252.48500390001573,252.48500390001573,252.48500390001573,252.48500390001573,,old_sceneIn_2.png,21,5.0,0.971253699855879,,,071,10,2025-05-27_16h33.23.246,Surprise recog test,2023.1.3,59.94873181707445,
21,0,21,0,,,,,,,,,,,,,,,,,,,,,,,,,,,,,,,,,,255.81860320013948,256.84420120017603,254.4766096000094,254.4766096000094,254.4766096000094,254.4766096000094,,old_stationery_22.png,22,5.0,1.3389814998954535,,,071,10,2025-05-27_16h33.23.246,Surprise recog test,2023.1.3,59.94873181707445,
22,0,22,0,,,,,,,,,,,,,,,,,,,,,,,,,,,,,,,,,,258.7748993001878,259.7898764000274,256.84420120017603,256.84420120017603,256.84420120017603,256.84420120017603,,old_stationery_42.png,23,2.0,1.9311496999580413,,,071,10,2025-05-27_16h33.23.246,Surprise recog test,2023.1.3,59.94873181707445,
23,0,23,0,,,,,,,,,,,,,,,,,,,,,,,,,,,,,,,,,,261.38583540008403,262.41543960012496,259.7898764000274,259.7898764000274,259.7898764000274,259.7898764000274,,old_fruit_47.png,24,1.0,1.5966778001748025,,,071,10,2025-05-27_16h33.23.246,Surprise recog test,2023.1.3,59.94873181707445,
24,0,24,0,,,,,,,,,,,,,,,,,,,,,,,,,,,,,,,,,,264.10556589998305,265.12974570016377,262.41543960012496,262.41543960012496,262.41543960012496,262.41543960012496,,new_sceneOut_23.png,25,4.0,1.692754000192508,,,071,10,2025-05-27_16h33.23.246,Surprise recog test,2023.1.3,59.94873181707445,
25,0,25,0,,,,,,,,,,,,,,,,,,,,,,,,,,,,,,,,,,267.30759129999205,268.32248209998943,265.12974570016377,265.12974570016377,265.12974570016377,265.12974570016377,,new_fruit_7.png,26,2.0,2.1793506001122296,,,071,10,2025-05-27_16h33.23.246,Surprise recog test,2023.1.3,59.94873181707445,
26,0,26,0,,,,,,,,,,,,,,,,,,,,,,,,,,,,,,,,,,269.76621920010075,270.78880860004574,268.32248209998943,268.32248209998943,268.32248209998943,268.32248209998943,,old_fruit_23.png,27,1.0,1.4390533999539912,,,071,10,2025-05-27_16h33.23.246,Surprise recog test,2023.1.3,59.94873181707445,
27,0,27,0,,,,,,,,,,,,,,,,,,,,,,,,,,,,,,,,,,272.17088820016943,273.1881116000004,270.78880860004574,270.78880860004574,270.78880860004574,270.78880860004574,,new_stationery_18.png,28,1.0,1.3848083999473602,,,071,10,2025-05-27_16h33.23.246,Surprise recog test,2023.1.3,59.94873181707445,
28,0,28,0,,,,,,,,,,,,,,,,,,,,,,,,,,,,,,,,,,274.6097955000587,275.6370314999949,273.1881116000004,273.1881116000004,273.1881116000004,273.1881116000004,,old_sceneOut_35.png,29,2.0,1.4224797000642866,,,071,10,2025-05-27_16h33.23.246,Surprise recog test,2023.1.3,59.94873181707445,
29,0,29,0,,,,,,,,,,,,,,,,,,,,,,,,,,,,,,,,,,277.6948931000661,,275.6370314999949,275.6370314999949,275.6370314999949,275.6370314999949,,new_sceneOut_4.png,30,4.0,2.0579351000487804,,,071,10,2025-05-27_16h33.23.246,Surprise recog test,2023.1.3,59.94873181707445,
30,0,30,0,,,,,,,,,,,,,,,,,,,,,,,,,,,,,,,,,,280.3268788000569,281.3433368001133,278.72964390018024,278.72964390018024,278.72964390018024,278.72964390018024,,new_sceneIn_43.png,31,5.0,1.5978703999426216,,,071,10,2025-05-27_16h33.23.246,Surprise recog test,2023.1.3,59.94873181707445,
31,0,31,0,,,,,,,,,,,,,,,,,,,,,,,,,,,,,,,,,,283.1628431000281,284.1757712000981,281.3433368001133,281.3433368001133,281.3433368001133,281.3433368001133,,old_fruit_45.png,32,1.0,1.8211471000686288,,,071,10,2025-05-27_16h33.23.246,Surprise recog test,2023.1.3,59.94873181707445,
32,0,32,0,,,,,,,,,,,,,,,,,,,,,,,,,,,,,,,,,,286.5837634000927,,284.1757712000981,284.1757712000981,284.1757712000981,284.1757712000981,,new_sceneIn_7.png,33,5.0,2.4089048001915216,,,071,10,2025-05-27_16h33.23.246,Surprise recog test,2023.1.3,59.94873181707445,
33,0,33,0,,,,,,,,,,,,,,,,,,,,,,,,,,,,,,,,,,288.9167235000059,289.9369076001458,287.6054846001789,287.6054846001789,287.6054846001789,287.6054846001789,,new_fruit_16.png,34,5.0,1.2999665001407266,,,071,10,2025-05-27_16h33.23.246,Surprise recog test,2023.1.3,59.94873181707445,
34,0,34,0,,,,,,,,,,,,,,,,,,,,,,,,,,,,,,,,,,291.0515058999881,292.07283810013905,289.9369076001458,289.9369076001458,289.9369076001458,289.9369076001458,,new_sceneIn_33.png,35,5.0,1.1164365001022816,,,071,10,2025-05-27_16h33.23.246,Surprise recog test,2023.1.3,59.94873181707445,
35,0,35,0,,,,,,,,,,,,,,,,,,,,,,,,,,,,,,,,,,293.92703320016153,294.9519599999767,292.07283810013905,292.07283810013905,292.07283810013905,292.07283810013905,,new_fruit_13.png,36,3.0,1.8563575998414308,,,071,10,2025-05-27_16h33.23.246,Surprise recog test,2023.1.3,59.94873181707445,
36,0,36,0,,,,,,,,,,,,,,,,,,,,,,,,,,,,,,,,,,297.0705782000441,298.0897446000017,294.9519599999767,294.9519599999767,294.9519599999767,294.9519599999767,,old_sceneOut_12.png,37,4.0,2.117473400197923,,,071,10,2025-05-27_16h33.23.246,Surprise recog test,2023.1.3,59.94873181707445,
37,0,37,0,,,,,,,,,,,,,,,,,,,,,,,,,,,,,,,,,,300.0787085001357,,298.0897446000017,298.0897446000017,298.0897446000017,298.0897446000017,,old_sceneIn_24.png,38,5.0,1.988108100136742,,,071,10,2025-05-27_16h33.23.246,Surprise recog test,2023.1.3,59.94873181707445,
38,0,38,0,,,,,,,,,,,,,,,,,,,,,,,,,,,,,,,,,,302.39506470016204,303.4090818001423,301.09675010014325,301.09675010014325,301.09675010014325,301.09675010014325,,new_stationery_7.png,39,5.0,1.2920448000077158,,,071,10,2025-05-27_16h33.23.246,Surprise recog test,2023.1.3,59.94873181707445,
39,0,39,0,,,,,,,,,,,,,,,,,,,,,,,,,,,,,,,,,,304.3046339000575,305.3313323999755,303.4090818001423,303.4090818001423,303.4090818001423,303.4090818001423,,new_stationery_29.png,40,5.0,0.8918879998382181,,,071,10,2025-05-27_16h33.23.246,Surprise recog test,2023.1.3,59.94873181707445,
40,0,40,0,,,,,,,,,,,,,,,,,,,,,,,,,,,,,,,,,,306.43616570020095,307.4626834001392,305.3313323999755,305.3313323999755,305.3313323999755,305.3313323999755,,new_sceneIn_18.png,41,5.0,1.1044449999462813,,,071,10,2025-05-27_16h33.23.246,Surprise recog test,2023.1.3,59.94873181707445,
41,0,41,0,,,,,,,,,,,,,,,,,,,,,,,,,,,,,,,,,,308.5561961000785,309.5864433001261,307.4626834001392,307.4626834001392,307.4626834001392,307.4626834001392,,old_sceneIn_13.png,42,5.0,1.0953087999951094,,,071,10,2025-05-27_16h33.23.246,Surprise recog test,2023.1.3,59.94873181707445,
42,0,42,0,,,,,,,,,,,,,,,,,,,,,,,,,,,,,,,,,,310.5407563999761,311.5724162000697,309.5864433001261,309.5864433001261,309.5864433001261,309.5864433001261,,old_sceneOut_32.png,43,5.0,0.956983600044623,,,071,10,2025-05-27_16h33.23.246,Surprise recog test,2023.1.3,59.94873181707445,
43,0,43,0,,,,,,,,,,,,,,,,,,,,,,,,,,,,,,,,,,313.5894375999924,,311.5724162000697,311.5724162000697,311.5724162000697,311.5724162000697,,old_sceneOut_41.png,44,2.0,2.016039300011471,,,071,10,2025-05-27_16h33.23.246,Surprise recog test,2023.1.3,59.94873181707445,
44,0,44,0,,,,,,,,,,,,,,,,,,,,,,,,,,,,,,,,,,316.61593620013446,317.6404144000262,314.6224327001255,314.6224327001255,314.6224327001255,314.6224327001255,,new_fruit_44.png,45,3.0,1.994995899964124,,,071,10,2025-05-27_16h33.23.246,Surprise recog test,2023.1.3,59.94873181707445,
45,0,45,0,,,,,,,,,,,,,,,,,,,,,,,,,,,,,,,,,,319.13699290016666,320.1564118000679,317.6404144000262,317.6404144000262,317.6404144000262,317.6404144000262,,new_sceneIn_45.png,46,5.0,1.4958333000540733,,,071,10,2025-05-27_16h33.23.246,Surprise recog test,2023.1.3,59.94873181707445,
46,0,46,0,,,,,,,,,,,,,,,,,,,,,,,,,,,,,,,,,,322.13037959998474,,320.1564118000679,320.1564118000679,320.1564118000679,320.1564118000679,,new_sceneIn_8.png,47,5.0,1.9756149998866022,,,071,10,2025-05-27_16h33.23.246,Surprise recog test,2023.1.3,59.94873181707445,
47,0,47,0,,,,,,,,,,,,,,,,,,,,,,,,,,,,,,,,,,324.99147300003096,326.01288840011694,323.16664439998567,323.16664439998567,323.16664439998567,323.16664439998567,,new_fruit_33.png,48,2.0,1.8279196000657976,,,071,10,2025-05-27_16h33.23.246,Surprise recog test,2023.1.3,59.94873181707445,
48,0,48,0,,,,,,,,,,,,,,,,,,,,,,,,,,,,,,,,,,327.5864829001948,,326.01288840011694,326.01288840011694,326.01288840011694,326.01288840011694,,new_fruit_26.png,49,2.0,1.5757252001203597,,,071,10,2025-05-27_16h33.23.246,Surprise recog test,2023.1.3,59.94873181707445,
49,0,49,0,,,,,,,,,,,,,,,,,,,,,,,,,,,,,,,,,,330.53021520003676,331.5488436999731,328.61681789997965,328.61681789997965,328.61681789997965,328.61681789997965,,new_stationery_32.png,50,3.0,1.9156294001732022,,,071,10,2025-05-27_16h33.23.246,Surprise recog test,2023.1.3,59.94873181707445,
50,0,50,0,,,,,,,,,,,,,,,,,,,,,,,,,,,,,,,,,,333.1325248000212,334.1608812001068,331.5488436999731,331.5488436999731,331.5488436999731,331.5488436999731,,old_fruit_25.png,51,1.0,1.5838593000080436,,,071,10,2025-05-27_16h33.23.246,Surprise recog test,2023.1.3,59.94873181707445,
51,0,51,0,,,,,,,,,,,,,,,,,,,,,,,,,,,,,,,,,,335.9679278000258,336.97847360000014,334.1608812001068,334.1608812001068,334.1608812001068,334.1608812001068,,new_sceneOut_42.png,52,4.0,1.810798899969086,,,071,10,2025-05-27_16h33.23.246,Surprise recog test,2023.1.3,59.94873181707445,
52,0,52,0,,,,,,,,,,,,,,,,,,,,,,,,,,,,,,,,,,339.31173210009,,336.97847360000014,336.97847360000014,336.97847360000014,336.97847360000014,,new_stationery_47.png,53,5.0,2.3279826000798494,,,071,10,2025-05-27_16h33.23.246,Surprise recog test,2023.1.3,59.94873181707445,
53,0,53,0,,,,,,,,,,,,,,,,,,,,,,,,,,,,,,,,,,342.1023159001488,343.1349431001581,340.34832680015825,340.34832680015825,340.34832680015825,340.34832680015825,,old_stationery_34.png,54,2.0,1.754814299987629,,,071,10,2025-05-27_16h33.23.246,Surprise recog test,2023.1.3,59.94873181707445,
54,0,54,0,,,,,,,,,,,,,,,,,,,,,,,,,,,,,,,,,,345.4005776999984,,343.1349431001581,343.1349431001581,343.1349431001581,343.1349431001581,,old_stationery_31.png,55,3.0,2.26863559987396,,,071,10,2025-05-27_16h33.23.246,Surprise recog test,2023.1.3,59.94873181707445,
55,0,55,0,,,,,,,,,,,,,,,,,,,,,,,,,,,,,,,,,,348.05156250018626,,346.43324280017987,346.43324280017987,346.43324280017987,346.43324280017987,,old_fruit_28.png,56,1.0,1.6203301998320967,,,071,10,2025-05-27_16h33.23.246,Surprise recog test,2023.1.3,59.94873181707445,
56,0,56,0,,,,,,,,,,,,,,,,,,,,,,,,,,,,,,,,,,351.1185544000473,352.12432180019096,349.08225370012224,349.08225370012224,349.08225370012224,349.08225370012224,,new_sceneOut_14.png,57,5.0,2.036160099785775,,,071,10,2025-05-27_16h33.23.246,Surprise recog test,2023.1.3,59.94873181707445,
57,0,57,0,,,,,,,,,,,,,,,,,,,,,,,,,,,,,,,,,,353.4369125000667,354.4452577000484,352.12432180019096,352.12432180019096,352.12432180019096,352.12432180019096,,old_fruit_49.png,58,1.0,1.3034322001039982,,,071,10,2025-05-27_16h33.23.246,Surprise recog test,2023.1.3,59.94873181707445,
58,0,58,0,,,,,,,,,,,,,,,,,,,,,,,,,,,,,,,,,,355.8235326001886,356.829096800182,354.4452577000484,354.4452577000484,354.4452577000484,354.4452577000484,,old_sceneOut_45.png,59,5.0,1.3704593000002205,,,071,10,2025-05-27_16h33.23.246,Surprise recog test,2023.1.3,59.94873181707445,
59,0,59,0,,,,,,,,,,,,,,,,,,,,,,,,,,,,,,,,,,357.91401040018536,358.9311393001117,356.829096800182,356.829096800182,356.829096800182,356.829096800182,,new_stationery_23.png,60,5.0,1.0791368999052793,,,071,10,2025-05-27_16h33.23.246,Surprise recog test,2023.1.3,59.94873181707445,
60,0,60,0,,,,,,,,,,,,,,,,,,,,,,,,,,,,,,,,,,361.4915724999737,362.5117456000298,358.9311393001117,358.9311393001117,358.9311393001117,358.9311393001117,,old_stationery_12.png,61,3.0,2.5573515999130905,,,071,10,2025-05-27_16h33.23.246,Surprise recog test,2023.1.3,59.94873181707445,
61,0,61,0,,,,,,,,,,,,,,,,,,,,,,,,,,,,,,,,,,363.88219230016693,,362.5117456000298,362.5117456000298,362.5117456000298,362.5117456000298,,new_stationery_20.png,62,5.0,1.3684618000406772,,,071,10,2025-05-27_16h33.23.246,Surprise recog test,2023.1.3,59.94873181707445,
62,0,62,0,,,,,,,,,,,,,,,,,,,,,,,,,,,,,,,,,,366.4457208001986,367.4629872001242,364.9006628000643,364.9006628000643,364.9006628000643,364.9006628000643,,old_fruit_12.png,63,1.0,1.5418052999302745,,,071,10,2025-05-27_16h33.23.246,Surprise recog test,2023.1.3,59.94873181707445,
63,0,63,0,,,,,,,,,,,,,,,,,,,,,,,,,,,,,,,,,,368.87562090018764,369.89153850008734,367.4629872001242,367.4629872001242,367.4629872001242,367.4629872001242,,new_stationery_2.png,64,4.0,1.4132540998980403,,,071,10,2025-05-27_16h33.23.246,Surprise recog test,2023.1.3,59.94873181707445,
64,0,64,0,,,,,,,,,,,,,,,,,,,,,,,,,,,,,,,,,,371.29049260006286,372.3090626001358,369.89153850008734,369.89153850008734,369.89153850008734,369.89153850008734,,new_sceneIn_23.png,65,5.0,1.3931208001449704,,,071,10,2025-05-27_16h33.23.246,Surprise recog test,2023.1.3,59.94873181707445,
65,0,65,0,,,,,,,,,,,,,,,,,,,,,,,,,,,,,,,,,,373.2596963001415,374.29017570009455,372.3090626001358,372.3090626001358,372.3090626001358,372.3090626001358,,old_sceneIn_21.png,66,5.0,0.9482612998690456,,,071,10,2025-05-27_16h33.23.246,Surprise recog test,2023.1.3,59.94873181707445,
66,0,66,0,,,,,,,,,,,,,,,,,,,,,,,,,,,,,,,,,,375.31211600010283,376.34038910013624,374.29017570009455,374.29017570009455,374.29017570009455,374.29017570009455,,old_sceneOut_7.png,67,5.0,1.0240686000324786,,,071,10,2025-05-27_16h33.23.246,Surprise recog test,2023.1.3,59.94873181707445,
67,0,67,0,,,,,,,,,,,,,,,,,,,,,,,,,,,,,,,,,,377.4070190000348,378.41509580006823,376.34038910013624,376.34038910013624,376.34038910013624,376.34038910013624,,new_sceneIn_29.png,68,5.0,1.0623663000296801,,,071,10,2025-05-27_16h33.23.246,Surprise recog test,2023.1.3,59.94873181707445,
68,0,68,0,,,,,,,,,,,,,,,,,,,,,,,,,,,,,,,,,,379.19268450001255,380.2087523001246,378.41509580006823,378.41509580006823,378.41509580006823,378.41509580006823,,new_sceneOut_38.png,69,5.0,0.7759265000931919,,,071,10,2025-05-27_16h33.23.246,Surprise recog test,2023.1.3,59.94873181707445,
69,0,69,0,,,,,,,,,,,,,,,,,,,,,,,,,,,,,,,,,,381.1982543000486,382.2287795001175,380.2087523001246,380.2087523001246,380.2087523001246,380.2087523001246,,new_fruit_43.png,70,5.0,0.9872283998411149,,,071,10,2025-05-27_16h33.23.246,Surprise recog test,2023.1.3,59.94873181707445,
70,0,70,0,,,,,,,,,,,,,,,,,,,,,,,,,,,,,,,,,,383.2187491999939,384.23676350014284,382.2287795001175,382.2287795001175,382.2287795001175,382.2287795001175,,old_sceneOut_34.png,71,5.0,0.9910757001489401,,,071,10,2025-05-27_16h33.23.246,Surprise recog test,2023.1.3,59.94873181707445,
71,0,71,0,,,,,,,,,,,,,,,,,,,,,,,,,,,,,,,,,,384.9531030000653,385.97563620004803,384.23676350014284,384.23676350014284,384.23676350014284,384.23676350014284,,new_sceneIn_46.png,72,5.0,0.7105105000082403,,,071,10,2025-05-27_16h33.23.246,Surprise recog test,2023.1.3,59.94873181707445,
72,0,72,0,,,,,,,,,,,,,,,,,,,,,,,,,,,,,,,,,,387.99788360018283,389.018136800034,385.97563620004803,385.97563620004803,385.97563620004803,385.97563620004803,,new_stationery_36.png,73,5.0,2.0219839999917895,,,071,10,2025-05-27_16h33.23.246,Surprise recog test,2023.1.3,59.94873181707445,
73,0,73,0,,,,,,,,,,,,,,,,,,,,,,,,,,,,,,,,,,390.4813021000009,391.4908183000516,389.018136800034,389.018136800034,389.018136800034,389.018136800034,,old_fruit_11.png,74,1.0,1.4641406000591815,,,071,10,2025-05-27_16h33.23.246,Surprise recog test,2023.1.3,59.94873181707445,
74,0,74,0,,,,,,,,,,,,,,,,,,,,,,,,,,,,,,,,,,392.5861814999953,393.5905842001084,391.4908183000516,391.4908183000516,391.4908183000516,391.4908183000516,,old_fruit_2.png,75,1.0,1.087085499893874,,,071,10,2025-05-27_16h33.23.246,Surprise recog test,2023.1.3,59.94873181707445,
75,0,75,0,,,,,,,,,,,,,,,,,,,,,,,,,,,,,,,,,,394.8880323001649,395.8930030001793,393.5905842001084,393.5905842001084,393.5905842001084,393.5905842001084,,old_stationery_29.png,76,1.0,1.2868682001717389,,,071,10,2025-05-27_16h33.23.246,Surprise recog test,2023.1.3,59.94873181707445,
76,0,76,0,,,,,,,,,,,,,,,,,,,,,,,,,,,,,,,,,,397.823879300151,398.829099799972,395.8930030001793,395.8930030001793,395.8930030001793,395.8930030001793,,new_sceneIn_27.png,77,3.0,1.9208007000852376,,,071,10,2025-05-27_16h33.23.246,Surprise recog test,2023.1.3,59.94873181707445,
77,0,77,0,,,,,,,,,,,,,,,,,,,,,,,,,,,,,,,,,,400.5427338001318,401.54745210008696,398.829099799972,398.829099799972,398.829099799972,398.829099799972,,new_stationery_6.png,78,4.0,1.7050999000202864,,,071,10,2025-05-27_16h33.23.246,Surprise recog test,2023.1.3,59.94873181707445,
78,0,78,0,,,,,,,,,,,,,,,,,,,,,,,,,,,,,,,,,,403.1449113001581,404.153181000147,401.54745210008696,401.54745210008696,401.54745210008696,401.54745210008696,,new_stationery_46.png,79,4.0,1.5870178998447955,,,071,10,2025-05-27_16h33.23.246,Surprise recog test,2023.1.3,59.94873181707445,
79,0,79,0,,,,,,,,,,,,,,,,,,,,,,,,,,,,,,,,,,405.4801898000296,406.4849357001949,404.153181000147,404.153181000147,404.153181000147,404.153181000147,,new_sceneIn_21.png,80,4.0,1.3199959001503885,,,071,10,2025-05-27_16h33.23.246,Surprise recog test,2023.1.3,59.94873181707445,
80,0,80,0,,,,,,,,,,,,,,,,,,,,,,,,,,,,,,,,,,408.3159463000484,409.3203879999928,406.4849357001949,406.4849357001949,406.4849357001949,406.4849357001949,,new_stationery_27.png,81,5.0,1.8206907999701798,,,071,10,2025-05-27_16h33.23.246,Surprise recog test,2023.1.3,59.94873181707445,
81,0,81,0,,,,,,,,,,,,,,,,,,,,,,,,,,,,,,,,,,411.55189210013486,412.55674430006184,409.3203879999928,409.3203879999928,409.3203879999928,409.3203879999928,,old_fruit_17.png,82,3.0,2.2213996001519263,,,071,10,2025-05-27_16h33.23.246,Surprise recog test,2023.1.3,59.94873181707445,
82,0,82,0,,,,,,,,,,,,,,,,,,,,,,,,,,,,,,,,,,413.9705539001152,414.9752742999699,412.55674430006184,412.55674430006184,412.55674430006184,412.55674430006184,,new_sceneOut_37.png,83,5.0,1.4041158999316394,,,071,10,2025-05-27_16h33.23.246,Surprise recog test,2023.1.3,59.94873181707445,
83,0,83,0,,,,,,,,,,,,,,,,,,,,,,,,,,,,,,,,,,415.8721531999763,416.8767711999826,414.9752742999699,414.9752742999699,414.9752742999699,414.9752742999699,,old_sceneIn_18.png,84,5.0,0.8865654999390244,,,071,10,2025-05-27_16h33.23.246,Surprise recog test,2023.1.3,59.94873181707445,
84,0,84,0,,,,,,,,,,,,,,,,,,,,,,,,,,,,,,,,,,417.7070944001898,418.7115843000356,416.8767711999826,416.8767711999826,416.8767711999826,416.8767711999826,,old_sceneIn_37.png,85,5.0,0.8199259000830352,,,071,10,2025-05-27_16h33.23.246,Surprise recog test,2023.1.3,59.94873181707445,
85,0,85,0,,,,,,,,,,,,,,,,,,,,,,,,,,,,,,,,,,419.5586002001073,420.56372130010277,418.7115843000356,418.7115843000356,418.7115843000356,418.7115843000356,,new_sceneIn_10.png,86,5.0,0.8369453998748213,,,071,10,2025-05-27_16h33.23.246,Surprise recog test,2023.1.3,59.94873181707445,
86,0,86,0,,,,,,,,,,,,,,,,,,,,,,,,,,,,,,,,,,421.4101188001223,422.414575900184,420.56372130010277,420.56372130010277,420.56372130010277,420.56372130010277,,new_sceneOut_27.png,87,5.0,0.8365169998724014,,,071,10,2025-05-27_16h33.23.246,Surprise recog test,2023.1.3,59.94873181707445,
87,0,87,0,,,,,,,,,,,,,,,,,,,,,,,,,,,,,,,,,,423.97892820020206,424.9831644000951,422.414575900184,422.414575900184,422.414575900184,422.414575900184,,old_fruit_4.png,88,2.0,1.5542810999322683,,,071,10,2025-05-27_16h33.23.246,Surprise recog test,2023.1.3,59.94873181707445,
88,0,88,0,,,,,,,,,,,,,,,,,,,,,,,,,,,,,,,,,,427.01486920006573,428.01975159998983,424.9831644000951,424.9831644000951,424.9831644000951,424.9831644000951,,new_stationery_22.png,89,1.0,2.021231499966234,,,071,10,2025-05-27_16h33.23.246,Surprise recog test,2023.1.3,59.94873181707445,
89,0,89,0,,,,,,,,,,,,,,,,,,,,,,,,,,,,,,,,,,429.5168656001333,430.52156110014766,428.01975159998983,428.01975159998983,428.01975159998983,428.01975159998983,,old_sceneOut_25.png,90,5.0,1.4870176000986248,,,071,10,2025-05-27_16h33.23.246,Surprise recog test,2023.1.3,59.94873181707445,
90,0,90,0,,,,,,,,,,,,,,,,,,,,,,,,,,,,,,,,,,432.3858847999945,433.39090050011873,430.52156110014766,430.52156110014766,430.52156110014766,430.52156110014766,,new_sceneIn_24.png,91,4.0,1.85383060015738,,,071,10,2025-05-27_16h33.23.246,Surprise recog test,2023.1.3,59.94873181707445,
91,0,91,0,,,,,,,,,,,,,,,,,,,,,,,,,,,,,,,,,,434.7211986000184,435.72561010019854,433.39090050011873,433.39090050011873,433.39090050011873,433.39090050011873,,old_fruit_40.png,92,2.0,1.3196469999384135,,,071,10,2025-05-27_16h33.23.246,Surprise recog test,2023.1.3,59.94873181707445,
92,0,92,0,,,,,,,,,,,,,,,,,,,,,,,,,,,,,,,,,,437.44009150005877,438.444260600023,435.72561010019854,435.72561010019854,435.72561010019854,435.72561010019854,,old_sceneIn_42.png,93,4.0,1.704228200018406,,,071,10,2025-05-27_16h33.23.246,Surprise recog test,2023.1.3,59.94873181707445,
93,0,93,0,,,,,,,,,,,,,,,,,,,,,,,,,,,,,,,,,,440.27577619999647,441.2802524000872,438.444260600023,438.444260600023,438.444260600023,438.444260600023,,old_stationery_38.png,94,4.0,1.8206392999272794,,,071,10,2025-05-27_16h33.23.246,Surprise recog test,2023.1.3,59.94873181707445,
94,0,94,0,,,,,,,,,,,,,,,,,,,,,,,,,,,,,,,,,,442.59437990002334,443.5988586000167,441.2802524000872,441.2802524000872,441.2802524000872,441.2802524000872,,new_fruit_2.png,95,1.0,1.3035252999980003,,,071,10,2025-05-27_16h33.23.246,Surprise recog test,2023.1.3,59.94873181707445,
95,0,95,0,,,,,,,,,,,,,,,,,,,,,,,,,,,,,,,,,,445.24659740016796,446.25273130019195,443.5988586000167,443.5988586000167,443.5988586000167,443.5988586000167,,new_sceneOut_28.png,96,5.0,1.637253399938345,,,071,10,2025-05-27_16h33.23.246,Surprise recog test,2023.1.3,59.94873181707445,
96,0,96,0,,,,,,,,,,,,,,,,,,,,,,,,,,,,,,,,,,447.58187430002727,448.5866641001776,446.25273130019195,446.25273130019195,446.25273130019195,446.25273130019195,,new_fruit_30.png,97,2.0,1.3199184001423419,,,071,10,2025-05-27_16h33.23.246,Surprise recog test,2023.1.3,59.94873181707445,
97,0,97,0,,,,,,,,,,,,,,,,,,,,,,,,,,,,,,,,,,450.13400280009955,451.1406481000595,448.5866641001776,448.5866641001776,448.5866641001776,448.5866641001776,,new_sceneIn_38.png,98,5.0,1.5370171000249684,,,071,10,2025-05-27_16h33.23.246,Surprise recog test,2023.1.3,59.94873181707445,
98,0,98,0,,,,,,,,,,,,,,,,,,,,,,,,,,,,,,,,,,452.0690192000475,453.07367720012553,451.1406481000595,451.1406481000595,451.1406481000595,451.1406481000595,,old_sceneOut_15.png,99,5.0,0.9199242000468075,,,071,10,2025-05-27_16h33.23.246,Surprise recog test,2023.1.3,59.94873181707445,
99,0,99,0,,,,,,,,,,,,,,,,,,,,,,,,,,,,,,,,,,454.65435970015824,455.65853959997185,453.07367720012553,453.07367720012553,453.07367720012553,453.07367720012553,,old_stationery_16.png,100,1.0,1.5705375000834465,,,071,10,2025-05-27_16h33.23.246,Surprise recog test,2023.1.3,59.94873181707445,
100,0,100,0,,,,,,,,,,,,,,,,,,,,,,,,,,,,,,,,,,457.7736751001794,458.7786499001086,455.65853959997185,455.65853959997185,455.65853959997185,455.65853959997185,,new_stationery_9.png,101,2.0,2.103804800193757,,,071,10,2025-05-27_16h33.23.246,Surprise recog test,2023.1.3,59.94873181707445,
101,0,101,0,,,,,,,,,,,,,,,,,,,,,,,,,,,,,,,,,,460.80956130009145,461.8145753000863,458.7786499001086,458.7786499001086,458.7786499001086,458.7786499001086,,new_stationery_48.png,102,5.0,2.0206098000053316,,,071,10,2025-05-27_16h33.23.246,Surprise recog test,2023.1.3,59.94873181707445,
102,0,102,0,,,,,,,,,,,,,,,,,,,,,,,,,,,,,,,,,,462.7944730001036,463.80042540002614,461.8145753000863,461.8145753000863,461.8145753000863,461.8145753000863,,new_sceneOut_41.png,103,5.0,0.9702436998486519,,,071,10,2025-05-27_16h33.23.246,Surprise recog test,2023.1.3,59.94873181707445,
103,0,103,0,,,,,,,,,,,,,,,,,,,,,,,,,,,,,,,,,,465.2966218001675,466.30107300006784,463.80042540002614,463.80042540002614,463.80042540002614,463.80042540002614,,new_fruit_18.png,104,1.0,1.4871518998406827,,,071,10,2025-05-27_16h33.23.246,Surprise recog test,2023.1.3,59.94873181707445,
104,0,104,0,,,,,,,,,,,,,,,,,,,,,,,,,,,,,,,,,,467.448358300142,468.4529453001451,466.30107300006784,466.30107300006784,466.30107300006784,466.30107300006784,,old_stationery_33.png,105,1.0,1.137555800145492,,,071,10,2025-05-27_16h33.23.246,Surprise recog test,2023.1.3,59.94873181707445,
105,0,105,0,,,,,,,,,,,,,,,,,,,,,,,,,,,,,,,,,,469.1997649001423,470.20620810007676,468.4529453001451,468.4529453001451,468.4529453001451,468.4529453001451,,new_fruit_17.png,106,1.0,0.7364178998395801,,,071,10,2025-05-27_16h33.23.246,Surprise recog test,2023.1.3,59.94873181707445,
106,0,106,0,,,,,,,,,,,,,,,,,,,,,,,,,,,,,,,,,,472.23567740013823,473.2399693999905,470.20620810007676,470.20620810007676,470.20620810007676,470.20620810007676,,new_sceneOut_5.png,107,5.0,2.020943700103089,,,071,10,2025-05-27_16h33.23.246,Surprise recog test,2023.1.3,59.94873181707445,
107,0,107,0,,,,,,,,,,,,,,,,,,,,,,,,,,,,,,,,,,474.056913100183,,473.2399693999905,473.2399693999905,473.2399693999905,473.2399693999905,,old_stationery_17.png,108,5.0,0.8107598000206053,,,071,10,2025-05-27_16h33.23.246,Surprise recog test,2023.1.3,59.94873181707445,
108,0,108,0,,,,,,,,,,,,,,,,,,,,,,,,,,,,,,,,,,475.8221394000575,476.82651490019634,475.07551750005223,475.07551750005223,475.07551750005223,475.07551750005223,,old_sceneOut_19.png,109,5.0,0.7371337998192757,,,071,10,2025-05-27_16h33.23.246,Surprise recog test,2023.1.3,59.94873181707445,
109,0,109,0,,,,,,,,,,,,,,,,,,,,,,,,,,,,,,,,,,477.62349430006,478.6281987000257,476.82651490019634,476.82651490019634,476.82651490019634,476.82651490019634,,old_sceneIn_49.png,110,5.0,0.7872830000706017,,,071,10,2025-05-27_16h33.23.246,Surprise recog test,2023.1.3,59.94873181707445,
110,0,110,0,,,,,,,,,,,,,,,,,,,,,,,,,,,,,,,,,,479.45839900011197,480.4628891001921,478.6281987000257,478.6281987000257,478.6281987000257,478.6281987000257,,old_sceneOut_38.png,111,5.0,0.8201437999960035,,,071,10,2025-05-27_16h33.23.246,Surprise recog test,2023.1.3,59.94873181707445,
111,0,111,0,,,,,,,,,,,,,,,,,,,,,,,,,,,,,,,,,,481.5100661001634,482.5147847000044,480.4628891001921,480.4628891001921,480.4628891001921,480.4628891001921,,new_stationery_16.png,112,5.0,1.0365606998093426,,,071,10,2025-05-27_16h33.23.246,Surprise recog test,2023.1.3,59.94873181707445,
112,0,112,0,,,,,,,,,,,,,,,,,,,,,,,,,,,,,,,,,,484.329054400092,485.33428670000285,482.5147847000044,482.5147847000044,482.5147847000044,482.5147847000044,,old_fruit_7.png,113,2.0,1.8051997998263687,,,071,10,2025-05-27_16h33.23.246,Surprise recog test,2023.1.3,59.94873181707445,
113,0,113,0,,,,,,,,,,,,,,,,,,,,,,,,,,,,,,,,,,486.89791320008226,487.90334930014797,485.33428670000285,485.33428670000285,485.33428670000285,485.33428670000285,,old_sceneIn_3.png,114,5.0,1.554340099915862,,,071,10,2025-05-27_16h33.23.246,Surprise recog test,2023.1.3,59.94873181707445,
114,0,114,0,,,,,,,,,,,,,,,,,,,,,,,,,,,,,,,,,,490.0171547001228,491.0216140002012,487.90334930014797,487.90334930014797,487.90334930014797,487.90334930014797,,new_fruit_46.png,115,4.0,2.104074499802664,,,071,10,2025-05-27_16h33.23.246,Surprise recog test,2023.1.3,59.94873181707445,
115,0,115,0,,,,,,,,,,,,,,,,,,,,,,,,,,,,,,,,,,492.7939989999868,493.822945300024,491.0216140002012,491.0216140002012,491.0216140002012,491.0216140002012,,new_stationery_10.png,116,5.0,1.7673214999958873,,,071,10,2025-05-27_16h33.23.246,Surprise recog test,2023.1.3,59.94873181707445,
116,0,116,0,,,,,,,,,,,,,,,,,,,,,,,,,,,,,,,,,,494.66902350005694,495.6805092000868,493.822945300024,493.822945300024,493.822945300024,493.822945300024,,old_stationery_46.png,117,5.0,0.8455475999508053,,,071,10,2025-05-27_16h33.23.246,Surprise recog test,2023.1.3,59.94873181707445,
117,0,117,0,,,,,,,,,,,,,,,,,,,,,,,,,,,,,,,,,,497.5556518000085,498.5736082000658,495.6805092000868,495.6805092000868,495.6805092000868,495.6805092000868,,new_fruit_32.png,118,4.0,1.8704423001036048,,,071,10,2025-05-27_16h33.23.246,Surprise recog test,2023.1.3,59.94873181707445,
118,0,118,0,,,,,,,,,,,,,,,,,,,,,,,,,,,,,,,,,,500.386620500125,501.4064347001258,498.5736082000658,498.5736082000658,498.5736082000658,498.5736082000658,,new_sceneOut_24.png,119,5.0,1.813397399848327,,,071,10,2025-05-27_16h33.23.246,Surprise recog test,2023.1.3,59.94873181707445,
119,0,119,0,,,,,,,,,,,,,,,,,,,,,,,,,,,,,,,,,,502.6444296000991,503.6636825001333,501.4064347001258,501.4064347001258,501.4064347001258,501.4064347001258,,new_stationery_49.png,120,5.0,1.234488199930638,,,071,10,2025-05-27_16h33.23.246,Surprise recog test,2023.1.3,59.94873181707445,
120,0,120,0,,,,,,,,,,,,,,,,,,,,,,,,,,,,,,,,,,505.0497718001716,,503.6636825001333,503.6636825001333,503.6636825001333,503.6636825001333,,new_stationery_50.png,121,5.0,1.3876253999769688,,,071,10,2025-05-27_16h33.23.246,Surprise recog test,2023.1.3,59.94873181707445,
121,0,121,0,,,,,,,,,,,,,,,,,,,,,,,,,,,,,,,,,,506.85465340013616,507.8770261001773,506.08370610000566,506.08370610000566,506.08370610000566,506.08370610000566,,old_sceneIn_46.png,122,5.0,0.7714563000481576,,,071,10,2025-05-27_16h33.23.246,Surprise recog test,2023.1.3,59.94873181707445,
122,0,122,0,,,,,,,,,,,,,,,,,,,,,,,,,,,,,,,,,,509.98625710001215,,507.8770261001773,507.8770261001773,507.8770261001773,507.8770261001773,,old_fruit_46.png,123,4.0,2.108982900157571,,,071,10,2025-05-27_16h33.23.246,Surprise recog test,2023.1.3,59.94873181707445,
123,0,123,0,,,,,,,,,,,,,,,,,,,,,,,,,,,,,,,,,,512.4388958001509,,511.00881940010004,511.00881940010004,511.00881940010004,511.00881940010004,,new_sceneIn_47.png,124,5.0,1.424792299978435,,,071,10,2025-05-27_16h33.23.246,Surprise recog test,2023.1.3,59.94873181707445,
124,0,124,0,,,,,,,,,,,,,,,,,,,,,,,,,,,,,,,,,,514.1713849999942,515.1842781000305,513.4613088001497,513.4613088001497,513.4613088001497,513.4613088001497,,old_sceneOut_33.png,125,5.0,0.7054023998789489,,,071,10,2025-05-27_16h33.23.246,Surprise recog test,2023.1.3,59.94873181707445,
125,0,125,0,,,,,,,,,,,,,,,,,,,,,,,,,,,,,,,,,,515.8662223999854,516.8851322000846,515.1842781000305,515.1842781000305,515.1842781000305,515.1842781000305,,old_sceneOut_28.png,126,5.0,0.6816473000217229,,,071,10,2025-05-27_16h33.23.246,Surprise recog test,2023.1.3,59.94873181707445,
126,0,126,0,,,,,,,,,,,,,,,,,,,,,,,,,,,,,,,,,,517.5292636000086,518.5641598000657,516.8851322000846,516.8851322000846,516.8851322000846,516.8851322000846,,old_sceneOut_11.png,127,5.0,0.6381318001076579,,,071,10,2025-05-27_16h33.23.246,Surprise recog test,2023.1.3,59.94873181707445,
127,0,127,0,,,,,,,,,,,,,,,,,,,,,,,,,,,,,,,,,,519.4821896001231,520.5114670000039,518.5641598000657,518.5641598000657,518.5641598000657,518.5641598000657,,new_sceneIn_11.png,128,5.0,0.9220969998277724,,,071,10,2025-05-27_16h33.23.246,Surprise recog test,2023.1.3,59.94873181707445,
128,0,128,0,,,,,,,,,,,,,,,,,,,,,,,,,,,,,,,,,,521.6247278000228,522.6407294999808,520.5114670000039,520.5114670000039,520.5114670000039,520.5114670000039,,new_fruit_12.png,129,5.0,1.1145502000581473,,,071,10,2025-05-27_16h33.23.246,Surprise recog test,2023.1.3,59.94873181707445,
129,0,129,0,,,,,,,,,,,,,,,,,,,,,,,,,,,,,,,,,,523.2487070001662,,522.6407294999808,522.6407294999808,522.6407294999808,522.6407294999808,,new_sceneOut_8.png,130,5.0,0.6090500000864267,,,071,10,2025-05-27_16h33.23.246,Surprise recog test,2023.1.3,59.94873181707445,
130,0,130,0,,,,,,,,,,,,,,,,,,,,,,,,,,,,,,,,,,525.0811898000538,526.1023364001885,524.2805151999928,524.2805151999928,524.2805151999928,524.2805151999928,,new_stationery_14.png,131,5.0,0.8026656999718398,,,071,10,2025-05-27_16h33.23.246,Surprise recog test,2023.1.3,59.94873181707445,
131,0,131,0,,,,,,,,,,,,,,,,,,,,,,,,,,,,,,,,,,526.8316602001432,527.8529756001662,526.1023364001885,526.1023364001885,526.1023364001885,526.1023364001885,,new_sceneOut_36.png,132,5.0,0.7307909000664949,,,071,10,2025-05-27_16h33.23.246,Surprise recog test,2023.1.3,59.94873181707445,
132,0,132,0,,,,,,,,,,,,,,,,,,,,,,,,,,,,,,,,,,529.4336328001227,530.444835399976,527.8529756001662,527.8529756001662,527.8529756001662,527.8529756001662,,new_fruit_9.png,133,2.0,1.5831023000646383,,,071,10,2025-05-27_16h33.23.246,Surprise recog test,2023.1.3,59.94873181707445,
133,0,133,0,,,,,,,,,,,,,,,,,,,,,,,,,,,,,,,,,,533.0457161001395,534.0688255999703,530.444835399976,530.444835399976,530.444835399976,530.444835399976,,new_sceneIn_20.png,134,5.0,2.5990363999735564,,,071,10,2025-05-27_16h33.23.246,Surprise recog test,2023.1.3,59.94873181707445,
134,0,134,0,,,,,,,,,,,,,,,,,,,,,,,,,,,,,,,,,,535.1239769000094,,534.0688255999703,534.0688255999703,534.0688255999703,534.0688255999703,,new_sceneOut_33.png,135,5.0,1.0573211999144405,,,071,10,2025-05-27_16h33.23.246,Surprise recog test,2023.1.3,59.94873181707445,
135,0,135,0,,,,,,,,,,,,,,,,,,,,,,,,,,,,,,,,,,537.8766296000686,,536.1519957999699,536.1519957999699,536.1519957999699,536.1519957999699,,old_fruit_43.png,136,1.0,1.7256421002093703,,,071,10,2025-05-27_16h33.23.246,Surprise recog test,2023.1.3,59.94873181707445,
136,0,136,0,,,,,,,,,,,,,,,,,,,,,,,,,,,,,,,,,,540.5172633000184,541.5303189000115,538.9120556002017,538.9120556002017,538.9120556002017,538.9120556002017,,old_sceneOut_4.png,137,5.0,1.6063357999082655,,,071,10,2025-05-27_16h33.23.246,Surprise recog test,2023.1.3,59.94873181707445,
137,0,137,0,,,,,,,,,,,,,,,,,,,,,,,,,,,,,,,,,,542.1708757001907,543.194553000154,541.5303189000115,541.5303189000115,541.5303189000115,541.5303189000115,,new_sceneOut_46.png,138,5.0,0.6358078001067042,,,071,10,2025-05-27_16h33.23.246,Surprise recog test,2023.1.3,59.94873181707445,
138,0,138,0,,,,,,,,,,,,,,,,,,,,,,,,,,,,,,,,,,545.1258806001861,546.1462571001612,543.194553000154,543.194553000154,543.194553000154,543.194553000154,,new_fruit_6.png,139,3.0,1.9318687999621034,,,071,10,2025-05-27_16h33.23.246,Surprise recog test,2023.1.3,59.94873181707445,
139,0,139,0,,,,,,,,,,,,,,,,,,,,,,,,,,,,,,,,,,547.6015243001748,,546.1462571001612,546.1462571001612,546.1462571001612,546.1462571001612,,old_sceneIn_19.png,140,5.0,1.4567147002089769,,,071,10,2025-05-27_16h33.23.246,Surprise recog test,2023.1.3,59.94873181707445,
140,0,140,0,,,,,,,,,,,,,,,,,,,,,,,,,,,,,,,,,,550.0706268001813,,548.6200877001975,548.6200877001975,548.6200877001975,548.6200877001975,,old_stationery_21.png,141,1.0,1.4472734001465142,,,071,10,2025-05-27_16h33.23.246,Surprise recog test,2023.1.3,59.94873181707445,
141,0,141,0,,,,,,,,,,,,,,,,,,,,,,,,,,,,,,,,,,552.6131971001159,553.6341679000761,551.1037532000337,551.1037532000337,551.1037532000337,551.1037532000337,,old_sceneOut_6.png,142,5.0,1.5112924000713974,,,071,10,2025-05-27_16h33.23.246,Surprise recog test,2023.1.3,59.94873181707445,
142,0,142,0,,,,,,,,,,,,,,,,,,,,,,,,,,,,,,,,,,554.495208500186,555.522659300128,553.6341679000761,553.6341679000761,553.6341679000761,553.6341679000761,,new_sceneOut_49.png,143,5.0,0.8549983000848442,,,071,10,2025-05-27_16h33.23.246,Surprise recog test,2023.1.3,59.94873181707445,
143,0,143,0,,,,,,,,,,,,,,,,,,,,,,,,,,,,,,,,,,557.5621315999888,558.5819408001844,555.522659300128,555.522659300128,555.522659300128,555.522659300128,,old_sceneIn_22.png,144,3.0,2.0404967998620123,,,071,10,2025-05-27_16h33.23.246,Surprise recog test,2023.1.3,59.94873181707445,
144,0,144,0,,,,,,,,,,,,,,,,,,,,,,,,,,,,,,,,,,560.4725685000885,561.4967887999956,558.5819408001844,558.5819408001844,558.5819408001844,558.5819408001844,,new_sceneIn_30.png,145,5.0,1.8867975999601185,,,071,10,2025-05-27_16h33.23.246,Surprise recog test,2023.1.3,59.94873181707445,
145,0,145,0,,,,,,,,,,,,,,,,,,,,,,,,,,,,,,,,,,563.2296387001406,564.2492867000401,561.4967887999956,561.4967887999956,561.4967887999956,561.4967887999956,,new_fruit_23.png,146,3.0,1.7333458000794053,,,071,10,2025-05-27_16h33.23.246,Surprise recog test,2023.1.3,59.94873181707445,
146,0,146,0,,,,,,,,,,,,,,,,,,,,,,,,,,,,,,,,,,565.9076098001096,566.9405806001741,564.2492867000401,564.2492867000401,564.2492867000401,564.2492867000401,,old_fruit_13.png,147,1.0,1.6583302998915315,,,071,10,2025-05-27_16h33.23.246,Surprise recog test,2023.1.3,59.94873181707445,
147,0,147,0,,,,,,,,,,,,,,,,,,,,,,,,,,,,,,,,,,568.6730675001163,569.7027454001363,566.9405806001741,566.9405806001741,566.9405806001741,566.9405806001741,,old_sceneIn_11.png,148,5.0,1.7349594000261277,,,071,10,2025-05-27_16h33.23.246,Surprise recog test,2023.1.3,59.94873181707445,
148,0,148,0,,,,,,,,,,,,,,,,,,,,,,,,,,,,,,,,,,571.4352390000131,572.45824060007,569.7027454001363,569.7027454001363,569.7027454001363,569.7027454001363,,old_fruit_1.png,149,1.0,1.7273429001215845,,,071,10,2025-05-27_16h33.23.246,Surprise recog test,2023.1.3,59.94873181707445,
149,0,149,0,,,,,,,,,,,,,,,,,,,,,,,,,,,,,,,,,,574.5567138001788,,572.45824060007,572.45824060007,572.45824060007,572.45824060007,,old_stationery_45.png,150,3.0,2.1025536998640746,,,071,10,2025-05-27_16h33.23.246,Surprise recog test,2023.1.3,59.94873181707445,
150,0,150,0,,,,,,,,,,,,,,,,,,,,,,,,,,,,,,,,,,577.1396918001119,578.1592284999788,575.5879563000053,575.5879563000053,575.5879563000053,575.5879563000053,,new_fruit_31.png,151,2.0,1.5521857999265194,,,071,10,2025-05-27_16h33.23.246,Surprise recog test,2023.1.3,59.94873181707445,
151,0,151,0,,,,,,,,,,,,,,,,,,,,,,,,,,,,,,,,,,579.3982751001604,580.4282867000438,578.1592284999788,578.1592284999788,578.1592284999788,578.1592284999788,,old_sceneOut_27.png,152,5.0,1.241030199918896,,,071,10,2025-05-27_16h33.23.246,Surprise recog test,2023.1.3,59.94873181707445,
152,0,152,0,,,,,,,,,,,,,,,,,,,,,,,,,,,,,,,,,,581.8000260000117,582.8302744000684,580.4282867000438,580.4282867000438,580.4282867000438,580.4282867000438,,new_sceneOut_18.png,153,5.0,1.3740882000420243,,,071,10,2025-05-27_16h33.23.246,Surprise recog test,2023.1.3,59.94873181707445,
153,0,153,0,,,,,,,,,,,,,,,,,,,,,,,,,,,,,,,,,,584.1478749001399,,582.8302744000684,582.8302744000684,582.8302744000684,582.8302744000684,,old_sceneOut_17.png,154,5.0,1.3202223000116646,,,071,10,2025-05-27_16h33.23.246,Surprise recog test,2023.1.3,59.94873181707445,
154,0,154,0,,,,,,,,,,,,,,,,,,,,,,,,,,,,,,,,,,585.8906882000156,586.902130200062,585.1803886000998,585.1803886000998,585.1803886000998,585.1803886000998,,old_sceneOut_14.png,155,5.0,0.7115381001494825,,,071,10,2025-05-27_16h33.23.246,Surprise recog test,2023.1.3,59.94873181707445,
155,0,155,0,,,,,,,,,,,,,,,,,,,,,,,,,,,,,,,,,,588.7494090001564,589.7661244000774,586.902130200062,586.902130200062,586.902130200062,586.902130200062,,old_sceneOut_40.png,156,2.0,1.838584000011906,,,071,10,2025-05-27_16h33.23.246,Surprise recog test,2023.1.3,59.94873181707445,
156,0,156,0,,,,,,,,,,,,,,,,,,,,,,,,,,,,,,,,,,592.4213144001551,,589.7661244000774,589.7661244000774,589.7661244000774,589.7661244000774,,new_stationery_38.png,157,3.0,2.6567094000056386,,,071,10,2025-05-27_16h33.23.246,Surprise recog test,2023.1.3,59.94873181707445,
157,0,157,0,,,,,,,,,,,,,,,,,,,,,,,,,,,,,,,,,,594.8298367001116,595.8454180001281,593.4584453001153,593.4584453001153,593.4584453001153,593.4584453001153,,new_sceneOut_34.png,158,5.0,1.3740877001546323,,,071,10,2025-05-27_16h33.23.246,Surprise recog test,2023.1.3,59.94873181707445,
158,0,158,0,,,,,,,,,,,,,,,,,,,,,,,,,,,,,,,,,,597.473145400174,598.4876836000476,595.8454180001281,595.8454180001281,595.8454180001281,595.8454180001281,,new_fruit_50.png,159,2.0,1.6188473999500275,,,071,10,2025-05-27_16h33.23.246,Surprise recog test,2023.1.3,59.94873181707445,
159,0,159,0,,,,,,,,,,,,,,,,,,,,,,,,,,,,,,,,,,600.033043100033,601.048398300074,598.4876836000476,598.4876836000476,598.4876836000476,598.4876836000476,,old_sceneIn_32.png,160,5.0,1.5442417999729514,,,071,10,2025-05-27_16h33.23.246,Surprise recog test,2023.1.3,59.94873181707445,
160,0,160,0,,,,,,,,,,,,,,,,,,,,,,,,,,,,,,,,,,601.7991000001784,602.828544100048,601.048398300074,601.048398300074,601.048398300074,601.048398300074,,new_sceneIn_9.png,161,5.0,0.7470934998709708,,,071,10,2025-05-27_16h33.23.246,Surprise recog test,2023.1.3,59.94873181707445,
161,0,161,0,,,,,,,,,,,,,,,,,,,,,,,,,,,,,,,,,,604.7471141000278,605.7679401000496,602.828544100048,602.828544100048,602.828544100048,602.828544100048,,new_sceneIn_17.png,162,5.0,1.9171820001211017,,,071,10,2025-05-27_16h33.23.246,Surprise recog test,2023.1.3,59.94873181707445,
162,0,162,0,,,,,,,,,,,,,,,,,,,,,,,,,,,,,,,,,,606.5127244000323,607.5277228001505,605.7679401000496,605.7679401000496,605.7679401000496,605.7679401000496,,old_sceneOut_37.png,163,5.0,0.7471759999170899,,,071,10,2025-05-27_16h33.23.246,Surprise recog test,2023.1.3,59.94873181707445,
163,0,163,0,,,,,,,,,,,,,,,,,,,,,,,,,,,,,,,,,,608.2405744001735,609.269702100195,607.5277228001505,607.5277228001505,607.5277228001505,607.5277228001505,,old_sceneOut_46.png,164,5.0,0.7131483999546617,,,071,10,2025-05-27_16h33.23.246,Surprise recog test,2023.1.3,59.94873181707445,
164,0,164,0,,,,,,,,,,,,,,,,,,,,,,,,,,,,,,,,,,611.2109915001784,612.2362230001017,609.269702100195,609.269702100195,609.269702100195,609.269702100195,,old_stationery_32.png,165,4.0,1.9437051999848336,,,071,10,2025-05-27_16h33.23.246,Surprise recog test,2023.1.3,59.94873181707445,
165,0,165,0,,,,,,,,,,,,,,,,,,,,,,,,,,,,,,,,,,613.4766637000721,614.4954088001978,612.2362230001017,612.2362230001017,612.2362230001017,612.2362230001017,,old_sceneIn_26.png,166,5.0,1.2424830999225378,,,071,10,2025-05-27_16h33.23.246,Surprise recog test,2023.1.3,59.94873181707445,
166,0,166,0,,,,,,,,,,,,,,,,,,,,,,,,,,,,,,,,,,615.4440157001372,616.4631556000095,614.4954088001978,614.4954088001978,614.4954088001978,614.4954088001978,,new_sceneOut_22.png,167,5.0,0.944304300006479,,,071,10,2025-05-27_16h33.23.246,Surprise recog test,2023.1.3,59.94873181707445,
167,0,167,0,,,,,,,,,,,,,,,,,,,,,,,,,,,,,,,,,,617.3965684999712,618.4286528001539,616.4631556000095,616.4631556000095,616.4631556000095,616.4631556000095,,new_stationery_43.png,168,5.0,0.928681599907577,,,071,10,2025-05-27_16h33.23.246,Surprise recog test,2023.1.3,59.94873181707445,
168,0,168,0,,,,,,,,,,,,,,,,,,,,,,,,,,,,,,,,,,620.2165300000925,621.2417358001694,618.4286528001539,618.4286528001539,618.4286528001539,618.4286528001539,,old_fruit_10.png,169,1.0,1.7903064000420272,,,071,10,2025-05-27_16h33.23.246,Surprise recog test,2023.1.3,59.94873181707445,
169,0,169,0,,,,,,,,,,,,,,,,,,,,,,,,,,,,,,,,,,623.2674808001611,624.2921691001393,621.2417358001694,621.2417358001694,621.2417358001694,621.2417358001694,,old_sceneIn_43.png,170,5.0,2.0276238000951707,,,071,10,2025-05-27_16h33.23.246,Surprise recog test,2023.1.3,59.94873181707445,
170,0,170,0,,,,,,,,,,,,,,,,,,,,,,,,,,,,,,,,,,626.3584779000375,627.3787122999784,624.2921691001393,624.2921691001393,624.2921691001393,624.2921691001393,,old_stationery_49.png,171,2.0,2.067641699919477,,,071,10,2025-05-27_16h33.23.246,Surprise recog test,2023.1.3,59.94873181707445,
171,0,171,0,,,,,,,,,,,,,,,,,,,,,,,,,,,,,,,,,,629.0898557000328,630.1176939001307,627.3787122999784,627.3787122999784,627.3787122999784,627.3787122999784,,new_sceneOut_21.png,172,5.0,1.7126023999881,,,071,10,2025-05-27_16h33.23.246,Surprise recog test,2023.1.3,59.94873181707445,
172,0,172,0,,,,,,,,,,,,,,,,,,,,,,,,,,,,,,,,,,631.0990498000756,632.1214267001487,630.1176939001307,630.1176939001307,630.1176939001307,630.1176939001307,,old_stationery_4.png,173,5.0,0.9808525999542326,,,071,10,2025-05-27_16h33.23.246,Surprise recog test,2023.1.3,59.94873181707445,
173,0,173,0,,,,,,,,,,,,,,,,,,,,,,,,,,,,,,,,,,632.7849868000485,633.7983984001912,632.1214267001487,632.1214267001487,632.1214267001487,632.1214267001487,,new_sceneOut_20.png,174,5.0,0.6661165000405163,,,071,10,2025-05-27_16h33.23.246,Surprise recog test,2023.1.3,59.94873181707445,
174,0,174,0,,,,,,,,,,,,,,,,,,,,,,,,,,,,,,,,,,635.1401925000828,,633.7983984001912,633.7983984001912,633.7983984001912,633.7983984001912,,old_fruit_5.png,175,5.0,1.3387857000343502,,,071,10,2025-05-27_16h33.23.246,Surprise recog test,2023.1.3,59.94873181707445,
175,0,175,0,,,,,,,,,,,,,,,,,,,,,,,,,,,,,,,,,,636.9560915001202,637.9750165999867,636.173987200018,636.173987200018,636.173987200018,636.173987200018,,new_sceneIn_40.png,176,5.0,0.7823222000151873,,,071,10,2025-05-27_16h33.23.246,Surprise recog test,2023.1.3,59.94873181707445,
176,0,176,0,,,,,,,,,,,,,,,,,,,,,,,,,,,,,,,,,,638.7786518000066,,637.9750165999867,637.9750165999867,637.9750165999867,637.9750165999867,,old_sceneOut_9.png,177,5.0,0.8047296002041548,,,071,10,2025-05-27_16h33.23.246,Surprise recog test,2023.1.3,59.94873181707445,
177,0,177,0,,,,,,,,,,,,,,,,,,,,,,,,,,,,,,,,,,640.4118092001881,,639.8123962001409,639.8123962001409,639.8123962001409,639.8123962001409,,old_sceneOut_44.png,178,5.0,0.6004946001339704,,,071,10,2025-05-27_16h33.23.246,Surprise recog test,2023.1.3,59.94873181707445,
178,0,178,0,,,,,,,,,,,,,,,,,,,,,,,,,,,,,,,,,,643.7284387000836,644.7488299000543,641.4448975000996,641.4448975000996,641.4448975000996,641.4448975000996,,old_stationery_1.png,179,4.0,2.2782856000121683,,,071,10,2025-05-27_16h33.23.246,Surprise recog test,2023.1.3,59.94873181707445,
179,0,179,0,,,,,,,,,,,,,,,,,,,,,,,,,,,,,,,,,,646.5474519999698,647.564505700022,644.7488299000543,644.7488299000543,644.7488299000543,644.7488299000543,,new_stationery_3.png,180,5.0,1.7992648999206722,,,071,10,2025-05-27_16h33.23.246,Surprise recog test,2023.1.3,59.94873181707445,
180,0,180,0,,,,,,,,,,,,,,,,,,,,,,,,,,,,,,,,,,648.2275598000269,649.2518011000939,647.564505700022,647.564505700022,647.564505700022,647.564505700022,,old_sceneIn_6.png,181,5.0,0.6656945999711752,,,071,10,2025-05-27_16h33.23.246,Surprise recog test,2023.1.3,59.94873181707445,
181,0,181,0,,,,,,,,,,,,,,,,,,,,,,,,,,,,,,,,,,650.4924227001611,651.5142826000229,649.2518011000939,649.2518011000939,649.2518011000939,649.2518011000939,,new_stationery_5.png,182,5.0,1.2411925999913365,,,071,10,2025-05-27_16h33.23.246,Surprise recog test,2023.1.3,59.94873181707445,
182,0,182,0,,,,,,,,,,,,,,,,,,,,,,,,,,,,,,,,,,653.726315600099,654.7484528000932,651.5142826000229,651.5142826000229,651.5142826000229,651.5142826000229,,old_fruit_15.png,183,3.0,2.2125751001294702,,,071,10,2025-05-27_16h33.23.246,Surprise recog test,2023.1.3,59.94873181707445,
183,0,183,0,,,,,,,,,,,,,,,,,,,,,,,,,,,,,,,,,,656.3080844001379,,654.7484528000932,654.7484528000932,654.7484528000932,654.7484528000932,,new_sceneIn_48.png,184,5.0,1.5587412999011576,,,071,10,2025-05-27_16h33.23.246,Surprise recog test,2023.1.3,59.94873181707445,
184,0,184,0,,,,,,,,,,,,,,,,,,,,,,,,,,,,,,,,,,657.8983928000089,658.9257804001682,657.3305379000958,657.3305379000958,657.3305379000958,657.3305379000958,,old_sceneIn_36.png,185,5.0,0.5638389000669122,,,071,10,2025-05-27_16h33.23.246,Surprise recog test,2023.1.3,59.94873181707445,
185,0,185,0,,,,,,,,,,,,,,,,,,,,,,,,,,,,,,,,,,659.7174623999745,660.7471504001878,658.9257804001682,658.9257804001682,658.9257804001682,658.9257804001682,,old_stationery_47.png,186,5.0,0.7941818998660892,,,071,10,2025-05-27_16h33.23.246,Surprise recog test,2023.1.3,59.94873181707445,
186,0,186,0,,,,,,,,,,,,,,,,,,,,,,,,,,,,,,,,,,661.3858091000002,662.4126481001731,660.7471504001878,660.7471504001878,660.7471504001878,660.7471504001878,,new_sceneOut_9.png,187,5.0,0.6410111000295728,,,071,10,2025-05-27_16h33.23.246,Surprise recog test,2023.1.3,59.94873181707445,
187,0,187,0,,,,,,,,,,,,,,,,,,,,,,,,,,,,,,,,,,664.0786337000318,665.085493999999,662.4126481001731,662.4126481001731,662.4126481001731,662.4126481001731,,new_fruit_3.png,188,2.0,1.665101199876517,,,071,10,2025-05-27_16h33.23.246,Surprise recog test,2023.1.3,59.94873181707445,
188,0,188,0,,,,,,,,,,,,,,,,,,,,,,,,,,,,,,,,,,667.0644070000853,668.0835247000214,665.085493999999,665.085493999999,665.085493999999,665.085493999999,,old_sceneIn_16.png,189,5.0,1.9716468998230994,,,071,10,2025-05-27_16h33.23.246,Surprise recog test,2023.1.3,59.94873181707445,
189,0,189,0,,,,,,,,,,,,,,,,,,,,,,,,,,,,,,,,,,668.9325011000037,669.9413934000768,668.0835247000214,668.0835247000214,668.0835247000214,668.0835247000214,,old_sceneIn_20.png,190,5.0,0.847574999788776,,,071,10,2025-05-27_16h33.23.246,Surprise recog test,2023.1.3,59.94873181707445,
190,0,190,0,,,,,,,,,,,,,,,,,,,,,,,,,,,,,,,,,,670.946150700096,671.9612080000807,669.9413934000768,669.9413934000768,669.9413934000768,669.9413934000768,,new_sceneIn_35.png,191,5.0,1.0003661999944597,,,071,10,2025-05-27_16h33.23.246,Surprise recog test,2023.1.3,59.94873181707445,
191,0,191,0,,,,,,,,,,,,,,,,,,,,,,,,,,,,,,,,,,672.952890700195,673.9684417000972,671.9612080000807,671.9612080000807,671.9612080000807,671.9612080000807,,old_stationery_10.png,192,5.0,0.9883661998901516,,,071,10,2025-05-27_16h33.23.246,Surprise recog test,2023.1.3,59.94873181707445,
192,0,192,0,,,,,,,,,,,,,,,,,,,,,,,,,,,,,,,,,,677.004996099975,678.0252152001485,673.9684417000972,673.9684417000972,673.9684417000972,673.9684417000972,,new_sceneOut_13.png,193,5.0,3.0348253999836743,,,071,10,2025-05-27_16h33.23.246,Surprise recog test,2023.1.3,59.94873181707445,
193,0,193,0,,,,,,,,,,,,,,,,,,,,,,,,,,,,,,,,,,680.2113549001515,,678.0252152001485,678.0252152001485,678.0252152001485,678.0252152001485,,old_fruit_39.png,194,1.0,2.1870329999364913,,,071,10,2025-05-27_16h33.23.246,Surprise recog test,2023.1.3,59.94873181707445,
194,0,194,0,,,,,,,,,,,,,,,,,,,,,,,,,,,,,,,,,,682.8910730001517,683.9088483999949,681.2451387001202,681.2451387001202,681.2451387001202,681.2451387001202,,new_sceneOut_16.png,195,5.0,1.6453460999764502,,,071,10,2025-05-27_16h33.23.246,Surprise recog test,2023.1.3,59.94873181707445,
195,0,195,0,,,,,,,,,,,,,,,,,,,,,,,,,,,,,,,,,,685.3129468001425,686.3207801000681,683.9088483999949,683.9088483999949,683.9088483999949,683.9088483999949,,new_fruit_1.png,196,2.0,1.4041118999011815,,,071,10,2025-05-27_16h33.23.246,Surprise recog test,2023.1.3,59.94873181707445,
196,0,196,0,,,,,,,,,,,,,,,,,,,,,,,,,,,,,,,,,,688.9565599001944,689.9884359000716,686.3207801000681,686.3207801000681,686.3207801000681,686.3207801000681,,old_sceneIn_34.png,197,5.0,2.6317272998858243,,,071,10,2025-05-27_16h33.23.246,Surprise recog test,2023.1.3,59.94873181707445,
197,0,197,0,,,,,,,,,,,,,,,,,,,,,,,,,,,,,,,,,,691.4960658000782,692.520486399997,689.9884359000716,689.9884359000716,689.9884359000716,689.9884359000716,,old_fruit_26.png,198,2.0,1.51004710001871,,,071,10,2025-05-27_16h33.23.246,Surprise recog test,2023.1.3,59.94873181707445,
198,0,198,0,,,,,,,,,,,,,,,,,,,,,,,,,,,,,,,,,,694.3040579000954,695.3269009001087,692.520486399997,692.520486399997,692.520486399997,692.520486399997,,old_stationery_13.png,199,5.0,1.7849705000407994,,,071,10,2025-05-27_16h33.23.246,Surprise recog test,2023.1.3,59.94873181707445,
199,0,199,0,,,,,,,,,,,,,,,,,,,,,,,,,,,,,,,,,,697.0991377001628,698.1266093000304,695.3269009001087,695.3269009001087,695.3269009001087,695.3269009001087,,old_fruit_30.png,200,2.0,1.775681999977678,,,071,10,2025-05-27_16h33.23.246,Surprise recog test,2023.1.3,59.94873181707445,
200,0,200,0,,,,,,,,,,,,,,,,,,,,,,,,,,,,,,,,,,699.881519400049,700.9185271000024,698.1266093000304,698.1266093000304,698.1266093000304,698.1266093000304,,new_stationery_44.png,201,5.0,1.75583630008623,,,071,10,2025-05-27_16h33.23.246,Surprise recog test,2023.1.3,59.94873181707445,
201,0,201,0,,,,,,,,,,,,,,,,,,,,,,,,,,,,,,,,,,702.3168333000503,703.3443189000245,700.9185271000024,700.9185271000024,700.9185271000024,700.9185271000024,,new_stationery_40.png,202,5.0,1.4020865999627858,,,071,10,2025-05-27_16h33.23.246,Surprise recog test,2023.1.3,59.94873181707445,
202,0,202,0,,,,,,,,,,,,,,,,,,,,,,,,,,,,,,,,,,704.2442721000407,705.2635658001527,703.3443189000245,703.3443189000245,703.3443189000245,703.3443189000245,,old_stationery_5.png,203,5.0,0.9012928998563439,,,071,10,2025-05-27_16h33.23.246,Surprise recog test,2023.1.3,59.94873181707445,
203,0,203,0,,,,,,,,,,,,,,,,,,,,,,,,,,,,,,,,,,706.2227617001627,707.2461618001107,705.2635658001527,705.2635658001527,705.2635658001527,705.2635658001527,,old_stationery_15.png,204,5.0,0.9586505000479519,,,071,10,2025-05-27_16h33.23.246,Surprise recog test,2023.1.3,59.94873181707445,
204,0,204,0,,,,,,,,,,,,,,,,,,,,,,,,,,,,,,,,,,708.7520622999873,,707.2461618001107,707.2461618001107,707.2461618001107,707.2461618001107,,new_fruit_10.png,205,5.0,1.5053614999633282,,,071,10,2025-05-27_16h33.23.246,Surprise recog test,2023.1.3,59.94873181707445,
205,0,205,0,,,,,,,,,,,,,,,,,,,,,,,,,,,,,,,,,,710.7417158000171,711.7609697000589,709.7735555002,709.7735555002,709.7735555002,709.7735555002,,old_sceneIn_30.png,206,5.0,0.9618377999868244,,,071,10,2025-05-27_16h33.23.246,Surprise recog test,2023.1.3,59.94873181707445,
206,0,206,0,,,,,,,,,,,,,,,,,,,,,,,,,,,,,,,,,,713.6746537000872,714.70161930006,711.7609697000589,711.7609697000589,711.7609697000589,711.7609697000589,,old_stationery_14.png,207,2.0,1.9075637999922037,,,071,10,2025-05-27_16h33.23.246,Surprise recog test,2023.1.3,59.94873181707445,
207,0,207,0,,,,,,,,,,,,,,,,,,,,,,,,,,,,,,,,,,715.9030985001009,716.9280954001006,714.70161930006,714.70161930006,714.70161930006,714.70161930006,,old_sceneOut_48.png,208,5.0,1.2008786001242697,,,071,10,2025-05-27_16h33.23.246,Surprise recog test,2023.1.3,59.94873181707445,
208,0,208,0,,,,,,,,,,,,,,,,,,,,,,,,,,,,,,,,,,717.5898612001911,718.6042961999774,716.9280954001006,716.9280954001006,716.9280954001006,716.9280954001006,,old_sceneIn_27.png,209,5.0,0.6585947000421584,,,071,10,2025-05-27_16h33.23.246,Surprise recog test,2023.1.3,59.94873181707445,
209,0,209,0,,,,,,,,,,,,,,,,,,,,,,,,,,,,,,,,,,720.4696762000676,721.4928185001481,718.6042961999774,718.6042961999774,718.6042961999774,718.6042961999774,,new_stationery_35.png,210,2.0,1.863995699910447,,,071,10,2025-05-27_16h33.23.246,Surprise recog test,2023.1.3,59.94873181707445,
210,0,210,0,,,,,,,,,,,,,,,,,,,,,,,,,,,,,,,,,,722.8620117001701,723.8767890001182,721.4928185001481,721.4928185001481,721.4928185001481,721.4928185001481,,old_sceneOut_36.png,211,5.0,1.3711528000421822,,,071,10,2025-05-27_16h33.23.246,Surprise recog test,2023.1.3,59.94873181707445,
211,0,211,0,,,,,,,,,,,,,,,,,,,,,,,,,,,,,,,,,,725.0996455000713,,723.8767890001182,723.8767890001182,723.8767890001182,723.8767890001182,,old_fruit_29.png,212,2.0,1.2213291998486966,,,071,10,2025-05-27_16h33.23.246,Surprise recog test,2023.1.3,59.94873181707445,
212,0,212,0,,,,,,,,,,,,,,,,,,,,,,,,,,,,,,,,,,727.5483467001468,728.563155000098,726.1215188000351,726.1215188000351,726.1215188000351,726.1215188000351,,new_fruit_34.png,213,3.0,1.4255470000207424,,,071,10,2025-05-27_16h33.23.246,Surprise recog test,2023.1.3,59.94873181707445,
213,0,213,0,,,,,,,,,,,,,,,,,,,,,,,,,,,,,,,,,,729.8343970000278,730.8432126000989,728.563155000098,728.563155000098,728.563155000098,728.563155000098,,new_sceneOut_39.png,214,5.0,1.2716944999992847,,,071,10,2025-05-27_16h33.23.246,Surprise recog test,2023.1.3,59.94873181707445,
214,0,214,0,,,,,,,,,,,,,,,,,,,,,,,,,,,,,,,,,,731.6050468001049,,730.8432126000989,730.8432126000989,730.8432126000989,730.8432126000989,,new_sceneIn_44.png,215,5.0,0.7595821002032608,,,071,10,2025-05-27_16h33.23.246,Surprise recog test,2023.1.3,59.94873181707445,
215,0,215,0,,,,,,,,,,,,,,,,,,,,,,,,,,,,,,,,,,733.2361283001956,734.2466223000083,732.6433676001616,732.6433676001616,732.6433676001616,732.6433676001616,,old_sceneIn_10.png,216,5.0,0.5980541999451816,,,071,10,2025-05-27_16h33.23.246,Surprise recog test,2023.1.3,59.94873181707445,
216,0,216,0,,,,,,,,,,,,,,,,,,,,,,,,,,,,,,,,,,736.1000800000038,737.1104175001383,734.2466223000083,734.2466223000083,734.2466223000083,734.2466223000083,,new_fruit_49.png,217,3.0,1.8528355001471937,,,071,10,2025-05-27_16h33.23.246,Surprise recog test,2023.1.3,59.94873181707445,
217,0,217,0,,,,,,,,,,,,,,,,,,,,,,,,,,,,,,,,,,738.7419295001309,739.7602920001373,737.1104175001383,737.1104175001383,737.1104175001383,737.1104175001383,,old_fruit_32.png,218,2.0,1.6279760000761598,,,071,10,2025-05-27_16h33.23.246,Surprise recog test,2023.1.3,59.94873181707445,
218,0,218,0,,,,,,,,,,,,,,,,,,,,,,,,,,,,,,,,,,741.4838360000867,742.5096617001109,739.7602920001373,739.7602920001373,739.7602920001373,739.7602920001373,,new_sceneOut_40.png,219,4.0,1.7234205000568181,,,071,10,2025-05-27_16h33.23.246,Surprise recog test,2023.1.3,59.94873181707445,
219,0,219,0,,,,,,,,,,,,,,,,,,,,,,,,,,,,,,,,,,743.9645905001089,,742.5096617001109,742.5096617001109,742.5096617001109,742.5096617001109,,old_sceneIn_5.png,220,5.0,1.4558459999971092,,,071,10,2025-05-27_16h33.23.246,Surprise recog test,2023.1.3,59.94873181707445,
220,0,220,0,,,,,,,,,,,,,,,,,,,,,,,,,,,,,,,,,,746.2970381001942,747.3024180000648,744.986017000163,744.986017000163,744.986017000163,744.986017000163,,old_fruit_48.png,221,2.0,1.3055185999255627,,,071,10,2025-05-27_16h33.23.246,Surprise recog test,2023.1.3,59.94873181707445,
221,0,221,0,,,,,,,,,,,,,,,,,,,,,,,,,,,,,,,,,,748.6374540000688,749.6659034001641,747.3024180000648,747.3024180000648,747.3024180000648,747.3024180000648,,old_fruit_35.png,222,2.0,1.3322884999215603,,,071,10,2025-05-27_16h33.23.246,Surprise recog test,2023.1.3,59.94873181707445,
222,0,222,0,,,,,,,,,,,,,,,,,,,,,,,,,,,,,,,,,,750.6850887001492,751.6983736001421,749.6659034001641,749.6659034001641,749.6659034001641,749.6659034001641,,new_fruit_35.png,223,2.0,1.022025999845937,,,071,10,2025-05-27_16h33.23.246,Surprise recog test,2023.1.3,59.94873181707445,
223,0,223,0,,,,,,,,,,,,,,,,,,,,,,,,,,,,,,,,,,753.6813938000705,754.6911877000239,751.6983736001421,751.6983736001421,751.6983736001421,751.6983736001421,,new_fruit_20.png,224,3.0,1.983140500029549,,,071,10,2025-05-27_16h33.23.246,Surprise recog test,2023.1.3,59.94873181707445,
224,0,224,0,,,,,,,,,,,,,,,,,,,,,,,,,,,,,,,,,,756.1802109000273,757.1957716001198,754.6911877000239,754.6911877000239,754.6911877000239,754.6911877000239,,new_stationery_31.png,225,4.0,1.4852254998404533,,,071,10,2025-05-27_16h33.23.246,Surprise recog test,2023.1.3,59.94873181707445,
225,0,225,0,,,,,,,,,,,,,,,,,,,,,,,,,,,,,,,,,,759.191027100198,760.2118158000521,757.1957716001198,757.1957716001198,757.1957716001198,757.1957716001198,,new_stationery_24.png,226,3.0,1.9903378998860717,,,071,10,2025-05-27_16h33.23.246,Surprise recog test,2023.1.3,59.94873181707445,
226,0,226,0,,,,,,,,,,,,,,,,,,,,,,,,,,,,,,,,,,761.9197283000685,762.9439028999768,760.2118158000521,760.2118158000521,760.2118158000521,760.2118158000521,,old_sceneIn_38.png,227,5.0,1.7083217999897897,,,071,10,2025-05-27_16h33.23.246,Surprise recog test,2023.1.3,59.94873181707445,
227,0,227,0,,,,,,,,,,,,,,,,,,,,,,,,,,,,,,,,,,763.5965156999882,,762.9439028999768,762.9439028999768,762.9439028999768,762.9439028999768,,new_sceneOut_47.png,228,5.0,0.6535382000729442,,,071,10,2025-05-27_16h33.23.246,Surprise recog test,2023.1.3,59.94873181707445,
228,0,228,0,,,,,,,,,,,,,,,,,,,,,,,,,,,,,,,,,,766.0893246000633,767.1184524002019,764.6277463000733,764.6277463000733,764.6277463000733,764.6277463000733,,old_fruit_8.png,229,2.0,1.4635027998592705,,,071,10,2025-05-27_16h33.23.246,Surprise recog test,2023.1.3,59.94873181707445,
229,0,229,0,,,,,,,,,,,,,,,,,,,,,,,,,,,,,,,,,,768.5480400000233,769.5708782000002,767.1184524002019,767.1184524002019,767.1184524002019,767.1184524002019,,new_sceneIn_12.png,230,4.0,1.4289781998377293,,,071,10,2025-05-27_16h33.23.246,Surprise recog test,2023.1.3,59.94873181707445,
230,0,230,0,,,,,,,,,,,,,,,,,,,,,,,,,,,,,,,,,,771.5219786001835,,769.5708782000002,769.5708782000002,769.5708782000002,769.5708782000002,,old_stationery_8.png,231,5.0,1.9548132999334484,,,071,10,2025-05-27_16h33.23.246,Surprise recog test,2023.1.3,59.94873181707445,
231,0,231,0,,,,,,,,,,,,,,,,,,,,,,,,,,,,,,,,,,773.3240828001872,,772.5488597999793,772.5488597999793,772.5488597999793,772.5488597999793,,old_sceneIn_33.png,232,5.0,0.7761458000168204,,,071,10,2025-05-27_16h33.23.246,Surprise recog test,2023.1.3,59.94873181707445,
232,0,232,0,,,,,,,,,,,,,,,,,,,,,,,,,,,,,,,,,,775.6008475001436,776.6329547001515,774.3440980000887,774.3440980000887,774.3440980000887,774.3440980000887,,old_stationery_41.png,233,5.0,1.252634400036186,,,071,10,2025-05-27_16h33.23.246,Surprise recog test,2023.1.3,59.94873181707445,
233,0,233,0,,,,,,,,,,,,,,,,,,,,,,,,,,,,,,,,,,778.009141900111,,776.6329547001515,776.6329547001515,776.6329547001515,776.6329547001515,,old_fruit_24.png,234,5.0,1.3806257999967784,,,071,10,2025-05-27_16h33.23.246,Surprise recog test,2023.1.3,59.94873181707445,
234,0,234,0,,,,,,,,,,,,,,,,,,,,,,,,,,,,,,,,,,779.923025800148,780.944415200036,779.0417143001687,779.0417143001687,779.0417143001687,779.0417143001687,,old_sceneIn_45.png,235,5.0,0.8829926000908017,,,071,10,2025-05-27_16h33.23.246,Surprise recog test,2023.1.3,59.94873181707445,
235,0,235,0,,,,,,,,,,,,,,,,,,,,,,,,,,,,,,,,,,781.73010600009,,780.944415200036,780.944415200036,780.944415200036,780.944415200036,,old_stationery_43.png,236,5.0,0.7882783999666572,,,071,10,2025-05-27_16h33.23.246,Surprise recog test,2023.1.3,59.94873181707445,
236,0,236,0,,,,,,,,,,,,,,,,,,,,,,,,,,,,,,,,,,783.4267331999727,784.4433073999826,782.762431200128,782.762431200128,782.762431200128,782.762431200128,,old_sceneIn_14.png,237,5.0,0.6654166001826525,,,071,10,2025-05-27_16h33.23.246,Surprise recog test,2023.1.3,59.94873181707445,
237,0,237,0,,,,,,,,,,,,,,,,,,,,,,,,,,,,,,,,,,785.8384160001297,786.8554889000952,784.4433073999826,784.4433073999826,784.4433073999826,784.4433073999826,,new_fruit_42.png,238,5.0,1.3976178001612425,,,071,10,2025-05-27_16h33.23.246,Surprise recog test,2023.1.3,59.94873181707445,
238,0,238,0,,,,,,,,,,,,,,,,,,,,,,,,,,,,,,,,,,788.4790694999974,789.5013876000885,786.8554889000952,786.8554889000952,786.8554889000952,786.8554889000952,,new_fruit_41.png,239,5.0,1.6195765000302345,,,071,10,2025-05-27_16h33.23.246,Surprise recog test,2023.1.3,59.94873181707445,
239,0,239,0,,,,,,,,,,,,,,,,,,,,,,,,,,,,,,,,,,790.5505989000667,791.5548186001834,789.5013876000885,789.5013876000885,789.5013876000885,789.5013876000885,,new_sceneIn_13.png,240,5.0,1.0442560999654233,,,071,10,2025-05-27_16h33.23.246,Surprise recog test,2023.1.3,59.94873181707445,
240,0,240,0,,,,,,,,,,,,,,,,,,,,,,,,,,,,,,,,,,792.8189928000793,793.8348980001174,791.5548186001834,791.5548186001834,791.5548186001834,791.5548186001834,,new_fruit_27.png,241,5.0,1.2567044999450445,,,071,10,2025-05-27_16h33.23.246,Surprise recog test,2023.1.3,59.94873181707445,
241,0,241,0,,,,,,,,,,,,,,,,,,,,,,,,,,,,,,,,,,795.5430710001383,796.5621023999993,793.8348980001174,793.8348980001174,793.8348980001174,793.8348980001174,,old_fruit_44.png,242,1.0,1.7090014999266714,,,071,10,2025-05-27_16h33.23.246,Surprise recog test,2023.1.3,59.94873181707445,
242,0,242,0,,,,,,,,,,,,,,,,,,,,,,,,,,,,,,,,,,797.9818019000813,799.0108604000416,796.5621023999993,796.5621023999993,796.5621023999993,796.5621023999993,,old_stationery_20.png,243,1.0,1.417565800016746,,,071,10,2025-05-27_16h33.23.246,Surprise recog test,2023.1.3,59.94873181707445,
243,0,243,0,,,,,,,,,,,,,,,,,,,,,,,,,,,,,,,,,,800.6355217001401,801.6475486001,799.0108604000416,799.0108604000416,799.0108604000416,799.0108604000416,,new_sceneOut_3.png,244,5.0,1.6265916998963803,,,071,10,2025-05-27_16h33.23.246,Surprise recog test,2023.1.3,59.94873181707445,
244,0,244,0,,,,,,,,,,,,,,,,,,,,,,,,,,,,,,,,,,802.25931210001,803.2791175001767,801.6475486001,801.6475486001,801.6475486001,801.6475486001,,old_sceneOut_47.png,245,5.0,0.6072862998116761,,,071,10,2025-05-27_16h33.23.246,Surprise recog test,2023.1.3,59.94873181707445,
245,0,245,0,,,,,,,,,,,,,,,,,,,,,,,,,,,,,,,,,,804.4326905000489,,803.2791175001767,803.2791175001767,803.2791175001767,803.2791175001767,,new_stationery_42.png,246,5.0,1.1564511000178754,,,071,10,2025-05-27_16h33.23.246,Surprise recog test,2023.1.3,59.94873181707445,
246,0,246,0,,,,,,,,,,,,,,,,,,,,,,,,,,,,,,,,,,806.246850800002,807.2672259001993,805.4674074000213,805.4674074000213,805.4674074000213,805.4674074000213,,new_stationery_25.png,247,5.0,0.7796106999740005,,,071,10,2025-05-27_16h33.23.246,Surprise recog test,2023.1.3,59.94873181707445,
247,0,247,0,,,,,,,,,,,,,,,,,,,,,,,,,,,,,,,,,,808.440470200032,809.4570351000875,807.2672259001993,807.2672259001993,807.2672259001993,807.2672259001993,,new_fruit_38.png,248,5.0,1.172889200039208,,,071,10,2025-05-27_16h33.23.246,Surprise recog test,2023.1.3,59.94873181707445,
248,0,248,0,,,,,,,,,,,,,,,,,,,,,,,,,,,,,,,,,,811.3739979001693,812.405717200134,809.4570351000875,809.4570351000875,809.4570351000875,809.4570351000875,,new_fruit_48.png,249,2.0,1.9122997999656945,,,071,10,2025-05-27_16h33.23.246,Surprise recog test,2023.1.3,59.94873181707445,
249,0,249,0,,,,,,,,,,,,,,,,,,,,,,,,,,,,,,,,,,814.2164731000084,815.239230300067,812.405717200134,812.405717200134,812.405717200134,812.405717200134,,new_stationery_45.png,250,4.0,1.8152673000004143,,,071,10,2025-05-27_16h33.23.246,Surprise recog test,2023.1.3,59.94873181707445,
250,0,250,0,,,,,,,,,,,,,,,,,,,,,,,,,,,,,,,,,,817.10636360012,818.1280166001525,815.239230300067,815.239230300067,815.239230300067,815.239230300067,,old_sceneOut_29.png,251,5.0,1.8679239000193775,,,071,10,2025-05-27_16h33.23.246,Surprise recog test,2023.1.3,59.94873181707445,
251,0,251,0,,,,,,,,,,,,,,,,,,,,,,,,,,,,,,,,,,821.3079500000458,822.3320885000285,818.1280166001525,818.1280166001525,818.1280166001525,818.1280166001525,,old_fruit_3.png,252,2.0,3.1818535001948476,,,071,10,2025-05-27_16h33.23.246,Surprise recog test,2023.1.3,59.94873181707445,
252,0,252,0,,,,,,,,,,,,,,,,,,,,,,,,,,,,,,,,,,823.7191118001938,824.7500430999789,822.3320885000285,822.3320885000285,822.3320885000285,822.3320885000285,,old_sceneOut_18.png,253,5.0,1.3878339999355376,,,071,10,2025-05-27_16h33.23.246,Surprise recog test,2023.1.3,59.94873181707445,
253,0,253,0,,,,,,,,,,,,,,,,,,,,,,,,,,,,,,,,,,826.1469408001285,827.1663127001375,824.7500430999789,824.7500430999789,824.7500430999789,824.7500430999789,,new_fruit_24.png,254,5.0,1.3969711000099778,,,071,10,2025-05-27_16h33.23.246,Surprise recog test,2023.1.3,59.94873181707445,
254,0,254,0,,,,,,,,,,,,,,,,,,,,,,,,,,,,,,,,,,828.014934200095,829.0192553000525,827.1663127001375,827.1663127001375,827.1663127001375,827.1663127001375,,new_stationery_19.png,255,5.0,0.8452250000555068,,,071,10,2025-05-27_16h33.23.246,Surprise recog test,2023.1.3,59.94873181707445,
255,0,255,0,,,,,,,,,,,,,,,,,,,,,,,,,,,,,,,,,,829.6996187001932,830.7041542001534,829.0192553000525,829.0192553000525,829.0192553000525,829.0192553000525,,new_sceneIn_22.png,256,5.0,0.6694937001448125,,,071,10,2025-05-27_16h33.23.246,Surprise recog test,2023.1.3,59.94873181707445,
256,0,256,0,,,,,,,,,,,,,,,,,,,,,,,,,,,,,,,,,,832.201638800092,833.2063770000823,830.7041542001534,830.7041542001534,830.7041542001534,830.7041542001534,,new_fruit_45.png,257,2.0,1.4905521001201123,,,071,10,2025-05-27_16h33.23.246,Surprise recog test,2023.1.3,59.94873181707445,
257,0,257,0,,,,,,,,,,,,,,,,,,,,,,,,,,,,,,,,,,835.0540312000085,836.0587770000566,833.2063770000823,833.2063770000823,833.2063770000823,833.2063770000823,,old_sceneIn_1.png,258,5.0,1.8373807000461966,,,071,10,2025-05-27_16h33.23.246,Surprise recog test,2023.1.3,59.94873181707445,
258,0,258,0,,,,,,,,,,,,,,,,,,,,,,,,,,,,,,,,,,836.8722524000332,837.8781221001409,836.0587770000566,836.0587770000566,836.0587770000566,836.0587770000566,,new_sceneIn_36.png,259,5.0,0.8028250001370907,,,071,10,2025-05-27_16h33.23.246,Surprise recog test,2023.1.3,59.94873181707445,
259,0,259,0,,,,,,,,,,,,,,,,,,,,,,,,,,,,,,,,,,838.740388300037,839.7447172000539,837.8781221001409,837.8781221001409,837.8781221001409,837.8781221001409,,old_stationery_9.png,260,5.0,0.8557472999673337,,,071,10,2025-05-27_16h33.23.246,Surprise recog test,2023.1.3,59.94873181707445,
260,0,260,0,,,,,,,,,,,,,,,,,,,,,,,,,,,,,,,,,,841.0256105000153,842.0304262000136,839.7447172000539,839.7447172000539,839.7447172000539,839.7447172000539,,new_stationery_39.png,261,5.0,1.2700799000449479,,,071,10,2025-05-27_16h33.23.246,Surprise recog test,2023.1.3,59.94873181707445,
261,0,261,0,,,,,,,,,,,,,,,,,,,,,,,,,,,,,,,,,,842.7270488999784,843.7318735001609,842.0304262000136,842.0304262000136,842.0304262000136,842.0304262000136,,new_stationery_15.png,262,5.0,0.6863869000226259,,,071,10,2025-05-27_16h33.23.246,Surprise recog test,2023.1.3,59.94873181707445,
262,0,262,0,,,,,,,,,,,,,,,,,,,,,,,,,,,,,,,,,,845.6128380000591,846.6174334001262,843.7318735001609,843.7318735001609,843.7318735001609,843.7318735001609,,new_fruit_8.png,263,3.0,1.8706881001126021,,,071,10,2025-05-27_16h33.23.246,Surprise recog test,2023.1.3,59.94873181707445,
263,0,263,0,,,,,,,,,,,,,,,,,,,,,,,,,,,,,,,,,,847.4978232001886,848.5028190000448,846.6174334001262,846.6174334001262,846.6174334001262,846.6174334001262,,new_fruit_47.png,264,3.0,0.8707112001720816,,,071,10,2025-05-27_16h33.23.246,Surprise recog test,2023.1.3,59.94873181707445,
264,0,264,0,,,,,,,,,,,,,,,,,,,,,,,,,,,,,,,,,,850.3334568999708,851.3385011001956,848.5028190000448,848.5028190000448,848.5028190000448,848.5028190000448,,old_sceneIn_44.png,265,5.0,1.8207422001287341,,,071,10,2025-05-27_16h33.23.246,Surprise recog test,2023.1.3,59.94873181707445,
265,0,265,0,,,,,,,,,,,,,,,,,,,,,,,,,,,,,,,,,,852.6352727001067,853.6409932000097,851.3385011001956,851.3385011001956,851.3385011001956,851.3385011001956,,new_sceneOut_31.png,266,5.0,1.286874300101772,,,071,10,2025-05-27_16h33.23.246,Surprise recog test,2023.1.3,59.94873181707445,
266,0,266,0,,,,,,,,,,,,,,,,,,,,,,,,,,,,,,,,,,854.6536789999809,855.6593953000847,853.6409932000097,853.6409932000097,853.6409932000097,853.6409932000097,,old_sceneOut_3.png,267,5.0,1.0024661000352353,,,071,10,2025-05-27_16h33.23.246,Surprise recog test,2023.1.3,59.94873181707445,
267,0,267,0,,,,,,,,,,,,,,,,,,,,,,,,,,,,,,,,,,857.2557306999806,858.2606697001029,855.6593953000847,855.6593953000847,855.6593953000847,855.6593953000847,,old_stationery_26.png,268,3.0,1.5863031998742372,,,071,10,2025-05-27_16h33.23.246,Surprise recog test,2023.1.3,59.94873181707445,
268,0,268,0,,,,,,,,,,,,,,,,,,,,,,,,,,,,,,,,,,859.6577866000589,860.6628388001118,858.2606697001029,858.2606697001029,858.2606697001029,858.2606697001029,,new_sceneOut_6.png,269,5.0,1.3873024999629706,,,071,10,2025-05-27_16h33.23.246,Surprise recog test,2023.1.3,59.94873181707445,
269,0,269,0,,,,,,,,,,,,,,,,,,,,,,,,,,,,,,,,,,861.3759373000357,862.3807944001164,860.6628388001118,860.6628388001118,860.6628388001118,860.6628388001118,,old_sceneIn_50.png,270,5.0,0.7034133998677135,,,071,10,2025-05-27_16h33.23.246,Surprise recog test,2023.1.3,59.94873181707445,
270,0,270,0,,,,,,,,,,,,,,,,,,,,,,,,,,,,,,,,,,863.3776008000132,864.3835289999843,862.3807944001164,862.3807944001164,862.3807944001164,862.3807944001164,,new_sceneIn_3.png,271,5.0,0.9870635000988841,,,071,10,2025-05-27_16h33.23.246,Surprise recog test,2023.1.3,59.94873181707445,
271,0,271,0,,,,,,,,,,,,,,,,,,,,,,,,,,,,,,,,,,866.1799575001933,867.1842179000378,864.3835289999843,864.3835289999843,864.3835289999843,864.3835289999843,,old_stationery_11.png,272,2.0,1.7862790999934077,,,071,10,2025-05-27_16h33.23.246,Surprise recog test,2023.1.3,59.94873181707445,
272,0,272,0,,,,,,,,,,,,,,,,,,,,,,,,,,,,,,,,,,868.915608700132,869.9203402001876,867.1842179000378,867.1842179000378,867.1842179000378,867.1842179000378,,old_sceneIn_31.png,273,5.0,1.7208928000181913,,,071,10,2025-05-27_16h33.23.246,Surprise recog test,2023.1.3,59.94873181707445,
273,0,273,0,,,,,,,,,,,,,,,,,,,,,,,,,,,,,,,,,,870.9506622999907,871.9553669001907,869.9203402001876,869.9203402001876,869.9203402001876,869.9203402001876,,new_sceneOut_1.png,274,5.0,1.0200682999566197,,,071,10,2025-05-27_16h33.23.246,Surprise recog test,2023.1.3,59.94873181707445,
274,0,274,0,,,,,,,,,,,,,,,,,,,,,,,,,,,,,,,,,,872.7354328001384,873.7409044001251,871.9553669001907,871.9553669001907,871.9553669001907,871.9553669001907,,old_sceneOut_20.png,275,5.0,0.7704121000133455,,,071,10,2025-05-27_16h33.23.246,Surprise recog test,2023.1.3,59.94873181707445,
275,0,275,0,,,,,,,,,,,,,,,,,,,,,,,,,,,,,,,,,,874.3199591999874,875.3265564001631,873.7409044001251,873.7409044001251,873.7409044001251,873.7409044001251,,old_sceneOut_43.png,276,5.0,0.570438499795273,,,071,10,2025-05-27_16h33.23.246,Surprise recog test,2023.1.3,59.94873181707445,
276,0,276,0,,,,,,,,,,,,,,,,,,,,,,,,,,,,,,,,,,877.1641057999805,878.1854688001331,875.3265564001631,875.3265564001631,875.3265564001631,875.3265564001631,,old_fruit_37.png,277,2.0,1.8340567001141608,,,071,10,2025-05-27_16h33.23.246,Surprise recog test,2023.1.3,59.94873181707445,
277,0,277,0,,,,,,,,,,,,,,,,,,,,,,,,,,,,,,,,,,879.741531800013,880.7617359000724,878.1854688001331,878.1854688001331,878.1854688001331,878.1854688001331,,old_sceneIn_7.png,278,5.0,1.5571445000823587,,,071,10,2025-05-27_16h33.23.246,Surprise recog test,2023.1.3,59.94873181707445,
278,0,278,0,,,,,,,,,,,,,,,,,,,,,,,,,,,,,,,,,,881.383735800162,882.415579300141,880.7617359000724,880.7617359000724,880.7617359000724,880.7617359000724,,new_sceneOut_32.png,279,5.0,0.6215832999441773,,,071,10,2025-05-27_16h33.23.246,Surprise recog test,2023.1.3,59.94873181707445,
279,0,279,0,,,,,,,,,,,,,,,,,,,,,,,,,,,,,,,,,,884.2572824000381,885.2662989001255,882.415579300141,882.415579300141,882.415579300141,882.415579300141,,old_stationery_36.png,280,4.0,1.8429003001656383,,,071,10,2025-05-27_16h33.23.246,Surprise recog test,2023.1.3,59.94873181707445,
280,0,280,0,,,,,,,,,,,,,,,,,,,,,,,,,,,,,,,,,,886.3589717000723,887.3712522999849,885.2662989001255,885.2662989001255,885.2662989001255,885.2662989001255,,old_sceneIn_15.png,281,5.0,1.0878343000076711,,,071,10,2025-05-27_16h33.23.246,Surprise recog test,2023.1.3,59.94873181707445,
281,0,281,0,,,,,,,,,,,,,,,,,,,,,,,,,,,,,,,,,,887.9567841000389,888.983444100013,887.3712522999849,887.3712522999849,887.3712522999849,887.3712522999849,,old_sceneOut_22.png,282,5.0,0.5800054001156241,,,071,10,2025-05-27_16h33.23.246,Surprise recog test,2023.1.3,59.94873181707445,
282,0,282,0,,,,,,,,,,,,,,,,,,,,,,,,,,,,,,,,,,889.8747680999804,890.905644700164,888.983444100013,888.983444100013,888.983444100013,888.983444100013,,new_stationery_11.png,283,5.0,0.890778100118041,,,071,10,2025-05-27_16h33.23.246,Surprise recog test,2023.1.3,59.94873181707445,
283,0,283,0,,,,,,,,,,,,,,,,,,,,,,,,,,,,,,,,,,891.4803114000242,892.4964847001247,890.905644700164,890.905644700164,890.905644700164,890.905644700164,,old_sceneIn_25.png,284,5.0,0.5787683001253754,,,071,10,2025-05-27_16h33.23.246,Surprise recog test,2023.1.3,59.94873181707445,
284,0,284,0,,,,,,,,,,,,,,,,,,,,,,,,,,,,,,,,,,893.3610627001617,894.3795633001719,892.4964847001247,892.4964847001247,892.4964847001247,892.4964847001247,,new_stationery_26.png,285,5.0,0.8640487999655306,,,071,10,2025-05-27_16h33.23.246,Surprise recog test,2023.1.3,59.94873181707445,
285,0,285,0,,,,,,,,,,,,,,,,,,,,,,,,,,,,,,,,,,895.0751286000013,,894.3795633001719,894.3795633001719,894.3795633001719,894.3795633001719,,new_sceneIn_2.png,286,5.0,0.6933529998641461,,,071,10,2025-05-27_16h33.23.246,Surprise recog test,2023.1.3,59.94873181707445,
286,0,286,0,,,,,,,,,,,,,,,,,,,,,,,,,,,,,,,,,,896.838869499974,897.8513380000368,896.10748230014,896.10748230014,896.10748230014,896.10748230014,,new_sceneIn_42.png,287,5.0,0.7270841998979449,,,071,10,2025-05-27_16h33.23.246,Surprise recog test,2023.1.3,59.94873181707445,
287,0,287,0,,,,,,,,,,,,,,,,,,,,,,,,,,,,,,,,,,898.5765164999757,,897.8513380000368,897.8513380000368,897.8513380000368,897.8513380000368,,old_stationery_2.png,288,5.0,0.7262754000257701,,,071,10,2025-05-27_16h33.23.246,Surprise recog test,2023.1.3,59.94873181707445,
288,0,288,0,,,,,,,,,,,,,,,,,,,,,,,,,,,,,,,,,,900.1936649000272,901.2135726001579,899.6183547000401,899.6183547000401,899.6183547000401,899.6183547000401,,new_sceneOut_12.png,289,5.0,0.5790532999671996,,,071,10,2025-05-27_16h33.23.246,Surprise recog test,2023.1.3,59.94873181707445,
289,0,289,0,,,,,,,,,,,,,,,,,,,,,,,,,,,,,,,,,,903.0998178999871,904.1317738001235,901.2135726001579,901.2135726001579,901.2135726001579,901.2135726001579,,new_fruit_39.png,290,2.0,1.8891236002091318,,,071,10,2025-05-27_16h33.23.246,Surprise recog test,2023.1.3,59.94873181707445,
290,0,290,0,,,,,,,,,,,,,,,,,,,,,,,,,,,,,,,,,,906.0300347001757,907.0373895000666,904.1317738001235,904.1317738001235,904.1317738001235,904.1317738001235,,old_fruit_34.png,291,4.0,1.900066199945286,,,071,10,2025-05-27_16h33.23.246,Surprise recog test,2023.1.3,59.94873181707445,
291,0,291,0,,,,,,,,,,,,,,,,,,,,,,,,,,,,,,,,,,908.8409839000087,909.8564683001023,907.0373895000666,907.0373895000666,907.0373895000666,907.0373895000666,,old_stationery_48.png,292,2.0,1.7999533000402153,,,071,10,2025-05-27_16h33.23.246,Surprise recog test,2023.1.3,59.94873181707445,
292,0,292,0,,,,,,,,,,,,,,,,,,,,,,,,,,,,,,,,,,910.9377278001048,,909.8564683001023,909.8564683001023,909.8564683001023,909.8564683001023,,old_fruit_21.png,293,2.0,1.0772853998932987,,,071,10,2025-05-27_16h33.23.246,Surprise recog test,2023.1.3,59.94873181707445,
293,0,293,0,,,,,,,,,,,,,,,,,,,,,,,,,,,,,,,,,,913.4640985999722,914.4799991000909,911.9622308001854,911.9622308001854,911.9622308001854,911.9622308001854,,new_stationery_28.png,294,3.0,1.5024656001478434,,,071,10,2025-05-27_16h33.23.246,Surprise recog test,2023.1.3,59.94873181707445,
294,0,294,0,,,,,,,,,,,,,,,,,,,,,,,,,,,,,,,,,,915.7307414000388,916.7590962001123,914.4799991000909,914.4799991000909,914.4799991000909,914.4799991000909,,old_sceneIn_9.png,295,5.0,1.247458699857816,,,071,10,2025-05-27_16h33.23.246,Surprise recog test,2023.1.3,59.94873181707445,
295,0,295,0,,,,,,,,,,,,,,,,,,,,,,,,,,,,,,,,,,917.4558560000733,918.4774514001328,916.7590962001123,916.7590962001123,916.7590962001123,916.7590962001123,,old_sceneOut_49.png,296,5.0,0.6998523001093417,,,071,10,2025-05-27_16h33.23.246,Surprise recog test,2023.1.3,59.94873181707445,
296,0,296,0,,,,,,,,,,,,,,,,,,,,,,,,,,,,,,,,,,919.0409242000896,920.0535163001623,918.4774514001328,918.4774514001328,918.4774514001328,918.4774514001328,,new_sceneOut_29.png,297,5.0,0.5665168000850827,,,071,10,2025-05-27_16h33.23.246,Surprise recog test,2023.1.3,59.94873181707445,
297,0,297,0,,,,,,,,,,,,,,,,,,,,,,,,,,,,,,,,,,921.1590353001375,922.1799232000485,920.0535163001623,920.0535163001623,920.0535163001623,920.0535163001623,,old_stationery_44.png,298,5.0,1.1015979999210685,,,071,10,2025-05-27_16h33.23.246,Surprise recog test,2023.1.3,59.94873181707445,
298,0,298,0,,,,,,,,,,,,,,,,,,,,,,,,,,,,,,,,,,923.8347563999705,924.8604538000654,922.1799232000485,922.1799232000485,922.1799232000485,922.1799232000485,,new_fruit_4.png,299,3.0,1.6577856000512838,,,071,10,2025-05-27_16h33.23.246,Surprise recog test,2023.1.3,59.94873181707445,
299,0,299,0,,,,,,,,,,,,,,,,,,,,,,,,,,,,,,,,,,926.3014124000911,927.3333318000659,924.8604538000654,924.8604538000654,924.8604538000654,924.8604538000654,,old_stationery_39.png,300,4.0,1.441465500043705,,,071,10,2025-05-27_16h33.23.246,Surprise recog test,2023.1.3,59.94873181707445,
300,0,300,0,,,,,,,,,,,,,,,,,,,,,,,,,,,,,,,,,,928.0853329000529,,927.3333318000659,927.3333318000659,927.3333318000659,927.3333318000659,,old_sceneOut_5.png,301,4.0,0.7547327000647783,,,071,10,2025-05-27_16h33.23.246,Surprise recog test,2023.1.3,59.94873181707445,
301,0,301,0,,,,,,,,,,,,,,,,,,,,,,,,,,,,,,,,,,931.0850758000743,932.1081108001526,929.1173144001514,929.1173144001514,929.1173144001514,929.1173144001514,,old_sceneOut_30.png,302,5.0,1.9684411000926048,,,071,10,2025-05-27_16h33.23.246,Surprise recog test,2023.1.3,59.94873181707445,
302,0,302,0,,,,,,,,,,,,,,,,,,,,,,,,,,,,,,,,,,932.8789826000575,933.8937709000893,932.1081108001526,932.1081108001526,932.1081108001526,932.1081108001526,,new_sceneOut_26.png,303,5.0,0.7714774000924081,,,071,10,2025-05-27_16h33.23.246,Surprise recog test,2023.1.3,59.94873181707445,
303,0,303,0,,,,,,,,,,,,,,,,,,,,,,,,,,,,,,,,,,935.3134364001453,936.3395481000189,933.8937709000893,933.8937709000893,933.8937709000893,933.8937709000893,,new_fruit_5.png,304,2.0,1.414379300083965,,,071,10,2025-05-27_16h33.23.246,Surprise recog test,2023.1.3,59.94873181707445,
304,0,304,0,,,,,,,,,,,,,,,,,,,,,,,,,,,,,,,,,,937.7397645001765,938.7505377000198,936.3395481000189,936.3395481000189,936.3395481000189,936.3395481000189,,new_stationery_30.png,305,1.0,1.3967496000695974,,,071,10,2025-05-27_16h33.23.246,Surprise recog test,2023.1.3,59.94873181707445,
305,0,305,0,,,,,,,,,,,,,,,,,,,,,,,,,,,,,,,,,,940.0592227000743,941.0787453001831,938.7505377000198,938.7505377000198,938.7505377000198,938.7505377000198,,old_sceneOut_24.png,306,5.0,1.3048338000662625,,,071,10,2025-05-27_16h33.23.246,Surprise recog test,2023.1.3,59.94873181707445,
306,0,306,0,,,,,,,,,,,,,,,,,,,,,,,,,,,,,,,,,,941.7218102000188,942.7416097000241,941.0787453001831,941.0787453001831,941.0787453001831,941.0787453001831,,new_sceneOut_48.png,307,5.0,0.6452579000033438,,,071,10,2025-05-27_16h33.23.246,Surprise recog test,2023.1.3,59.94873181707445,
307,0,307,0,,,,,,,,,,,,,,,,,,,,,,,,,,,,,,,,,,943.677854700014,944.6826512999833,942.7416097000241,942.7416097000241,942.7416097000241,942.7416097000241,,old_stationery_18.png,308,5.0,0.931859300006181,,,071,10,2025-05-27_16h33.23.246,Surprise recog test,2023.1.3,59.94873181707445,
308,0,308,0,,,,,,,,,,,,,,,,,,,,,,,,,,,,,,,,,,945.8547734001186,946.8832109000068,944.6826512999833,944.6826512999833,944.6826512999833,944.6826512999833,,old_sceneIn_28.png,309,5.0,1.1654380999971181,,,071,10,2025-05-27_16h33.23.246,Surprise recog test,2023.1.3,59.94873181707445,
309,0,309,0,,,,,,,,,,,,,,,,,,,,,,,,,,,,,,,,,,947.873859200161,948.9006690999959,946.8832109000068,946.8832109000068,946.8832109000068,946.8832109000068,,old_sceneIn_23.png,310,5.0,0.9929277000483125,,,071,10,2025-05-27_16h33.23.246,Surprise recog test,2023.1.3,59.94873181707445,
310,0,310,0,,,,,,,,,,,,,,,,,,,,,,,,,,,,,,,,,,951.0884811000433,,948.9006690999959,948.9006690999959,948.9006690999959,948.9006690999959,,old_sceneIn_8.png,311,5.0,2.190570899983868,,,071,10,2025-05-27_16h33.23.246,Surprise recog test,2023.1.3,59.94873181707445,
311,0,311,0,,,,,,,,,,,,,,,,,,,,,,,,,,,,,,,,,,953.062266100198,954.0792498001829,952.1207513001282,952.1207513001282,952.1207513001282,952.1207513001282,,old_stationery_37.png,312,5.0,0.9440607000142336,,,071,10,2025-05-27_16h33.23.246,Surprise recog test,2023.1.3,59.94873181707445,
312,0,312,0,,,,,,,,,,,,,,,,,,,,,,,,,,,,,,,,,,955.2880800000858,956.3084510001354,954.0792498001829,954.0792498001829,954.0792498001829,954.0792498001829,,new_sceneIn_50.png,313,5.0,1.2062287998851389,,,071,10,2025-05-27_16h33.23.246,Surprise recog test,2023.1.3,59.94873181707445,
313,0,313,0,,,,,,,,,,,,,,,,,,,,,,,,,,,,,,,,,,956.92479249998,,956.3084510001354,956.3084510001354,956.3084510001354,956.3084510001354,,new_sceneOut_7.png,314,5.0,0.6159004999790341,,,071,10,2025-05-27_16h33.23.246,Surprise recog test,2023.1.3,59.94873181707445,
314,0,314,0,,,,,,,,,,,,,,,,,,,,,,,,,,,,,,,,,,960.5251182001084,961.5471354001202,957.9503138000146,957.9503138000146,957.9503138000146,957.9503138000146,,old_stationery_40.png,315,1.0,2.571657899999991,,,071,10,2025-05-27_16h33.23.246,Surprise recog test,2023.1.3,59.94873181707445,
315,0,315,0,,,,,,,,,,,,,,,,,,,,,,,,,,,,,,,,,,963.2397294000257,964.2523190001957,961.5471354001202,961.5471354001202,961.5471354001202,961.5471354001202,,old_sceneOut_50.png,316,3.0,1.695346600143239,,,071,10,2025-05-27_16h33.23.246,Surprise recog test,2023.1.3,59.94873181707445,
316,0,316,0,,,,,,,,,,,,,,,,,,,,,,,,,,,,,,,,,,965.8627865000162,966.8689823001623,964.2523190001957,964.2523190001957,964.2523190001957,964.2523190001957,,old_stationery_30.png,317,5.0,1.603867300087586,,,071,10,2025-05-27_16h33.23.246,Surprise recog test,2023.1.3,59.94873181707445,
317,0,317,0,,,,,,,,,,,,,,,,,,,,,,,,,,,,,,,,,,968.9228881001472,969.9403497001622,966.8689823001623,966.8689823001623,966.8689823001623,966.8689823001623,,new_fruit_25.png,318,2.0,2.051328499801457,,,071,10,2025-05-27_16h33.23.246,Surprise recog test,2023.1.3,59.94873181707445,
318,0,318,0,,,,,,,,,,,,,,,,,,,,,,,,,,,,,,,,,,971.4227607001085,972.4546258000191,969.9403497001622,969.9403497001622,969.9403497001622,969.9403497001622,,new_sceneIn_26.png,319,5.0,1.4774730000644922,,,071,10,2025-05-27_16h33.23.246,Surprise recog test,2023.1.3,59.94873181707445,
319,0,319,0,,,,,,,,,,,,,,,,,,,,,,,,,,,,,,,,,,973.2499202999752,974.2565952001605,972.4546258000191,972.4546258000191,972.4546258000191,972.4546258000191,,old_sceneIn_17.png,320,5.0,0.7957109999842942,,,071,10,2025-05-27_16h33.23.246,Surprise recog test,2023.1.3,59.94873181707445,
320,0,320,0,,,,,,,,,,,,,,,,,,,,,,,,,,,,,,,,,,975.1736173999961,,974.2565952001605,974.2565952001605,974.2565952001605,974.2565952001605,,new_sceneIn_39.png,321,5.0,0.9103457999881357,,,071,10,2025-05-27_16h33.23.246,Surprise recog test,2023.1.3,59.94873181707445,
321,0,321,0,,,,,,,,,,,,,,,,,,,,,,,,,,,,,,,,,,977.6061627999879,978.6258376000915,976.2073735999875,976.2073735999875,976.2073735999875,976.2073735999875,,new_sceneOut_35.png,322,5.0,1.3954946000594646,,,071,10,2025-05-27_16h33.23.246,Surprise recog test,2023.1.3,59.94873181707445,
322,0,322,0,,,,,,,,,,,,,,,,,,,,,,,,,,,,,,,,,,980.3137423000298,981.334084500093,978.6258376000915,978.6258376000915,978.6258376000915,978.6258376000915,,old_fruit_16.png,323,3.0,1.6897976000327617,,,071,10,2025-05-27_16h33.23.246,Surprise recog test,2023.1.3,59.94873181707445,
323,0,323,0,,,,,,,,,,,,,,,,,,,,,,,,,,,,,,,,,,983.0451087001711,984.0490135999862,981.334084500093,981.334084500093,981.334084500093,981.334084500093,,old_sceneIn_12.png,324,5.0,1.707614399958402,,,071,10,2025-05-27_16h33.23.246,Surprise recog test,2023.1.3,59.94873181707445,
324,0,324,0,,,,,,,,,,,,,,,,,,,,,,,,,,,,,,,,,,984.9575345001649,985.98309910018,984.0490135999862,984.0490135999862,984.0490135999862,984.0490135999862,,old_sceneIn_29.png,325,5.0,0.9044900999870151,,,071,10,2025-05-27_16h33.23.246,Surprise recog test,2023.1.3,59.94873181707445,
325,0,325,0,,,,,,,,,,,,,,,,,,,,,,,,,,,,,,,,,,986.8801031000912,987.9019451001659,985.98309910018,985.98309910018,985.98309910018,985.98309910018,,old_sceneOut_23.png,326,5.0,0.8991521999705583,,,071,10,2025-05-27_16h33.23.246,Surprise recog test,2023.1.3,59.94873181707445,
326,0,326,0,,,,,,,,,,,,,,,,,,,,,,,,,,,,,,,,,,988.7819781000726,989.8009868999943,987.9019451001659,987.9019451001659,987.9019451001659,987.9019451001659,,old_sceneOut_42.png,327,5.0,0.8763655999209732,,,071,10,2025-05-27_16h33.23.246,Surprise recog test,2023.1.3,59.94873181707445,
327,0,327,0,,,,,,,,,,,,,,,,,,,,,,,,,,,,,,,,,,991.4267900001723,992.4541957001202,989.8009868999943,989.8009868999943,989.8009868999943,989.8009868999943,,old_fruit_20.png,328,4.0,1.627173600019887,,,071,10,2025-05-27_16h33.23.246,Surprise recog test,2023.1.3,59.94873181707445,
328,0,328,0,,,,,,,,,,,,,,,,,,,,,,,,,,,,,,,,,,993.7210109001026,994.728616300039,992.4541957001202,992.4541957001202,992.4541957001202,992.4541957001202,,new_sceneIn_31.png,329,5.0,1.268273999914527,,,071,10,2025-05-27_16h33.23.246,Surprise recog test,2023.1.3,59.94873181707445,
329,0,329,0,,,,,,,,,,,,,,,,,,,,,,,,,,,,,,,,,,995.2401767000556,,994.728616300039,994.728616300039,994.728616300039,994.728616300039,,new_sceneIn_34.png,330,5.0,0.5077362000010908,,,071,10,2025-05-27_16h33.23.246,Surprise recog test,2023.1.3,59.94873181707445,
330,0,330,0,,,,,,,,,,,,,,,,,,,,,,,,,,,,,,,,,,997.6689099001233,998.6937316001859,996.2701422001701,996.2701422001701,996.2701422001701,996.2701422001701,,old_fruit_14.png,331,2.0,1.3995109000243247,,,071,10,2025-05-27_16h33.23.246,Surprise recog test,2023.1.3,59.94873181707445,
331,0,331,0,,,,,,,,,,,,,,,,,,,,,,,,,,,,,,,,,,1000.286976700183,1001.3050409001298,998.6937316001859,998.6937316001859,998.6937316001859,998.6937316001859,,old_sceneOut_10.png,332,5.0,1.5959225001279265,,,071,10,2025-05-27_16h33.23.246,Surprise recog test,2023.1.3,59.94873181707445,
332,0,332,0,,,,,,,,,,,,,,,,,,,,,,,,,,,,,,,,,,1003.1326231001876,1004.1513465000317,1001.3050409001298,1001.3050409001298,1001.3050409001298,1001.3050409001298,,old_fruit_6.png,333,2.0,1.8295440999791026,,,071,10,2025-05-27_16h33.23.246,Surprise recog test,2023.1.3,59.94873181707445,
333,0,333,0,,,,,,,,,,,,,,,,,,,,,,,,,,,,,,,,,,1005.4503910001367,1006.4826868001837,1004.1513465000317,1004.1513465000317,1004.1513465000317,1004.1513465000317,,new_sceneIn_1.png,334,5.0,1.2969462999608368,,,071,10,2025-05-27_16h33.23.246,Surprise recog test,2023.1.3,59.94873181707445,
334,0,334,0,,,,,,,,,,,,,,,,,,,,,,,,,,,,,,,,,,1007.3097213001456,1008.328428799985,1006.4826868001837,1006.4826868001837,1006.4826868001837,1006.4826868001837,,old_stationery_6.png,335,5.0,0.8263274000491947,,,071,10,2025-05-27_16h33.23.246,Surprise recog test,2023.1.3,59.94873181707445,
335,0,335,0,,,,,,,,,,,,,,,,,,,,,,,,,,,,,,,,,,1009.322847600095,1010.3472391001415,1008.328428799985,1008.328428799985,1008.328428799985,1008.328428799985,,old_sceneOut_13.png,336,5.0,0.993367200018838,,,071,10,2025-05-27_16h33.23.246,Surprise recog test,2023.1.3,59.94873181707445,
336,0,336,0,,,,,,,,,,,,,,,,,,,,,,,,,,,,,,,,,,1011.3173585999757,1012.3342762000393,1010.3472391001415,1010.3472391001415,1010.3472391001415,1010.3472391001415,,new_stationery_21.png,337,5.0,0.9701390999834985,,,071,10,2025-05-27_16h33.23.246,Surprise recog test,2023.1.3,59.94873181707445,
337,0,337,0,,,,,,,,,,,,,,,,,,,,,,,,,,,,,,,,,,1013.0844931001775,1014.1006044000387,1012.3342762000393,1012.3342762000393,1012.3342762000393,1012.3342762000393,,old_sceneIn_35.png,338,5.0,0.7518190001137555,,,071,10,2025-05-27_16h33.23.246,Surprise recog test,2023.1.3,59.94873181707445,
338,0,338,0,,,,,,,,,,,,,,,,,,,,,,,,,,,,,,,,,,1014.9791114002,1016.0049700001255,1014.1006044000387,1014.1006044000387,1014.1006044000387,1014.1006044000387,,old_stationery_24.png,339,5.0,0.8797740000300109,,,071,10,2025-05-27_16h33.23.246,Surprise recog test,2023.1.3,59.94873181707445,
339,0,339,0,,,,,,,,,,,,,,,,,,,,,,,,,,,,,,,,,,1017.1115385000594,1018.129055300029,1016.0049700001255,1016.0049700001255,1016.0049700001255,1016.0049700001255,,new_stationery_17.png,340,5.0,1.1069215000607073,,,071,10,2025-05-27_16h33.23.246,Surprise recog test,2023.1.3,59.94873181707445,
340,0,340,0,,,,,,,,,,,,,,,,,,,,,,,,,,,,,,,,,,1019.5585876000114,1020.5718723000027,1018.129055300029,1018.129055300029,1018.129055300029,1018.129055300029,,old_fruit_33.png,341,2.0,1.4246126001235098,,,071,10,2025-05-27_16h33.23.246,Surprise recog test,2023.1.3,59.94873181707445,
341,0,341,0,,,,,,,,,,,,,,,,,,,,,,,,,,,,,,,,,,1022.0256436001509,1023.0536206001416,1020.5718723000027,1020.5718723000027,1020.5718723000027,1020.5718723000027,,new_stationery_1.png,342,4.0,1.4532278999686241,,,071,10,2025-05-27_16h33.23.246,Surprise recog test,2023.1.3,59.94873181707445,
342,0,342,0,,,,,,,,,,,,,,,,,,,,,,,,,,,,,,,,,,1024.4448820999824,1025.4619428000879,1023.0536206001416,1023.0536206001416,1023.0536206001416,1023.0536206001416,,new_fruit_11.png,343,2.0,1.3938264998141676,,,071,10,2025-05-27_16h33.23.246,Surprise recog test,2023.1.3,59.94873181707445,
343,0,343,0,,,,,,,,,,,,,,,,,,,,,,,,,,,,,,,,,,1026.8209375001024,1027.8560349000618,1025.4619428000879,1025.4619428000879,1025.4619428000879,1025.4619428000879,,new_sceneIn_25.png,344,5.0,1.3609511000104249,,,071,10,2025-05-27_16h33.23.246,Surprise recog test,2023.1.3,59.94873181707445,
344,0,344,0,,,,,,,,,,,,,,,,,,,,,,,,,,,,,,,,,,1028.553598999977,1029.5810124001,1027.8560349000618,1027.8560349000618,1027.8560349000618,1027.8560349000618,,new_sceneOut_15.png,345,5.0,0.7011843000072986,,,071,10,2025-05-27_16h33.23.246,Surprise recog test,2023.1.3,59.94873181707445,
345,0,345,0,,,,,,,,,,,,,,,,,,,,,,,,,,,,,,,,,,1030.2252669001464,1031.2534484001808,1029.5810124001,1029.5810124001,1029.5810124001,1029.5810124001,,new_sceneOut_10.png,346,5.0,0.6435571999754757,,,071,10,2025-05-27_16h33.23.246,Surprise recog test,2023.1.3,59.94873181707445,
346,0,346,0,,,,,,,,,,,,,,,,,,,,,,,,,,,,,,,,,,1031.829179200111,1032.8412550999783,1031.2534484001808,1031.2534484001808,1031.2534484001808,1031.2534484001808,,old_sceneOut_2.png,347,5.0,0.5782697999384254,,,071,10,2025-05-27_16h33.23.246,Surprise recog test,2023.1.3,59.94873181707445,
347,0,347,0,,,,,,,,,,,,,,,,,,,,,,,,,,,,,,,,,,1033.9243077000137,1034.9563146000728,1032.8412550999783,1032.8412550999783,1032.8412550999783,1032.8412550999783,,new_stationery_33.png,348,5.0,1.0782365000341088,,,071,10,2025-05-27_16h33.23.246,Surprise recog test,2023.1.3,59.94873181707445,
348,0,348,0,,,,,,,,,,,,,,,,,,,,,,,,,,,,,,,,,,1035.569237000076,1036.5974517001305,1034.9563146000728,1034.9563146000728,1034.9563146000728,1034.9563146000728,,new_sceneOut_19.png,349,5.0,0.6141802000347525,,,071,10,2025-05-27_16h33.23.246,Surprise recog test,2023.1.3,59.94873181707445,
349,0,349,0,,,,,,,,,,,,,,,,,,,,,,,,,,,,,,,,,,1037.1689087001141,1038.1930043001194,1036.5974517001305,1036.5974517001305,1036.5974517001305,1036.5974517001305,,new_sceneIn_19.png,350,5.0,0.5742973999585956,,,071,10,2025-05-27_16h33.23.246,Surprise recog test,2023.1.3,59.94873181707445,
350,0,350,0,,,,,,,,,,,,,,,,,,,,,,,,,,,,,,,,,,1039.0328995001037,1040.0628469001967,1038.1930043001194,1038.1930043001194,1038.1930043001194,1038.1930043001194,,new_sceneIn_16.png,351,5.0,0.8413732000626624,,,071,10,2025-05-27_16h33.23.246,Surprise recog test,2023.1.3,59.94873181707445,
351,0,351,0,,,,,,,,,,,,,,,,,,,,,,,,,,,,,,,,,,1041.5969482001383,1042.6211209001485,1040.0628469001967,1040.0628469001967,1040.0628469001967,1040.0628469001967,,old_fruit_22.png,352,2.0,1.5358571000397205,,,071,10,2025-05-27_16h33.23.246,Surprise recog test,2023.1.3,59.94873181707445,
