trial_loop.thisRepN,trial_loop.thisTrialN,trial_loop.thisN,trial_loop.thisIndex,VAS_slider.started,VAS_text.started,VAS_notstressed_text.started,VAS_stressed_text.started,continue_input.started,continue_text.started,label0.started,label10.started,label20.started,label30.started,label40.started,label50.started,label60.started,label70.started,label80.started,label90.started,label100.started,VAS_slider.response,VAS_slider.rt,VAS_slider.history,Answer_VAS,continue_input.keys,instruction_text.started,continue_text_2.started,continue_input_2.started,continue_input_2.keys,continue_input_2.rt,continue_input_2.duration,example_text.started,example_slider_2.started,example_image.started,example_slider_2.response,example_slider_2.rt,fixcross.started,fixcross.stopped,front_square.started,stim_images.started,trial_inst_images.started,slider_images.started,thisImg,trial_count,slider_images.response,slider_images.rt,slider_images.stopped,outro.started,participant,condition,date,expName,psychopyVersion,frameRate,
,,,,218.177966999996,218.177966999996,218.177966999996,218.177966999996,218.177966999996,218.177966999996,218.177966999996,218.177966999996,218.177966999996,218.177966999996,218.177966999996,218.177966999996,218.177966999996,218.177966999996,218.177966999996,218.177966999996,218.177966999996,3.977777777777778,7.0230784000013955,"[(3.977777777777778, 7.0230784000013955)]",3.977777777777778,None,,,,,,,,,,,,,,,,,,,,,,,,072,00,2025-05-07_14h27.33.756,Surprise recog test,2023.1.3,60.00207606319196,
,,,,,,,,,,,,,,,,,,,,,,,,,,225.21950619999552,225.21950619999552,225.21950619999552,space,22.169151599984616,None,,,,,,,,,,,,,,,,,,072,00,2025-05-07_14h27.33.756,Surprise recog test,2023.1.3,60.00207606319196,
0,0,0,0,,,,,,,,,,,,,,,,,,,,,,,,,,,,,247.522962499992,247.522962499992,247.522962499992,4.0,5.132323400001042,257.53149880000274,258.54380220000166,253.60859940000228,253.60859940000228,253.60859940000228,253.60859940000228,new_fruit_13.png,1,4.0,3.9255234000156634,,,072,00,2025-05-07_14h27.33.756,Surprise recog test,2023.1.3,60.00207606319196,
1,0,1,0,,,,,,,,,,,,,,,,,,,,,,,,,,,,,,,,,,261.03288610000163,262.03913609997835,258.54380220000166,258.54380220000166,258.54380220000166,258.54380220000166,old_fruit_37.png,2,5.0,2.483594899997115,,,072,00,2025-05-07_14h27.33.756,Surprise recog test,2023.1.3,60.00207606319196,
2,0,2,0,,,,,,,,,,,,,,,,,,,,,,,,,,,,,,,,,,264.9363206999842,265.94450129999314,262.03913609997835,262.03913609997835,262.03913609997835,262.03913609997835,old_fruit_13.png,3,3.0,2.8903594999865163,,,072,00,2025-05-07_14h27.33.756,Surprise recog test,2023.1.3,60.00207606319196,
3,0,3,0,,,,,,,,,,,,,,,,,,,,,,,,,,,,,,,,,,268.1695577999926,269.1880357999762,265.94450129999314,265.94450129999314,265.94450129999314,265.94450129999314,new_sceneIn_47.png,4,5.0,2.220932600001106,,,072,00,2025-05-07_14h27.33.756,Surprise recog test,2023.1.3,60.00207606319196,
4,0,4,0,,,,,,,,,,,,,,,,,,,,,,,,,,,,,,,,,,271.27430019999156,272.2887542999815,269.1880357999762,269.1880357999762,269.1880357999762,269.1880357999762,old_sceneOut_37.png,5,4.0,2.0847089999879245,,,072,00,2025-05-07_14h27.33.756,Surprise recog test,2023.1.3,60.00207606319196,
5,0,5,0,,,,,,,,,,,,,,,,,,,,,,,,,,,,,,,,,,274.07386209999095,275.0948014000023,272.2887542999815,272.2887542999815,272.2887542999815,272.2887542999815,new_stationery_2.png,6,1.0,1.7824985000188462,,,072,00,2025-05-07_14h27.33.756,Surprise recog test,2023.1.3,60.00207606319196,
6,0,6,0,,,,,,,,,,,,,,,,,,,,,,,,,,,,,,,,,,277.39457539998693,278.4133695999917,275.0948014000023,275.0948014000023,275.0948014000023,275.0948014000023,old_fruit_46.png,7,4.0,2.3007636000111233,,,072,00,2025-05-07_14h27.33.756,Surprise recog test,2023.1.3,60.00207606319196,
7,0,7,0,,,,,,,,,,,,,,,,,,,,,,,,,,,,,,,,,,281.8971549999842,282.90874889999395,278.4133695999917,278.4133695999917,278.4133695999917,278.4133695999917,new_sceneOut_44.png,8,4.0,3.4848058999923524,,,072,00,2025-05-07_14h27.33.756,Surprise recog test,2023.1.3,60.00207606319196,
8,0,8,0,,,,,,,,,,,,,,,,,,,,,,,,,,,,,,,,,,285.97042639998836,286.9757021999976,282.90874889999395,282.90874889999395,282.90874889999395,282.90874889999395,new_stationery_13.png,9,5.0,3.058780100021977,,,072,00,2025-05-07_14h27.33.756,Surprise recog test,2023.1.3,60.00207606319196,
9,0,9,0,,,,,,,,,,,,,,,,,,,,,,,,,,,,,,,,,,290.0009815999947,291.0206225999864,286.9757021999976,286.9757021999976,286.9757021999976,286.9757021999976,new_fruit_45.png,10,3.0,3.021842500020284,,,072,00,2025-05-07_14h27.33.756,Surprise recog test,2023.1.3,60.00207606319196,
10,0,10,0,,,,,,,,,,,,,,,,,,,,,,,,,,,,,,,,,,295.64497999998275,296.66244610000285,291.0206225999864,291.0206225999864,291.0206225999864,291.0206225999864,new_stationery_17.png,11,2.0,4.617886599997291,,,072,00,2025-05-07_14h27.33.756,Surprise recog test,2023.1.3,60.00207606319196,
11,0,11,0,,,,,,,,,,,,,,,,,,,,,,,,,,,,,,,,,,298.9643407999829,299.9692627999757,296.66244610000285,296.66244610000285,296.66244610000285,296.66244610000285,new_sceneIn_42.png,12,5.0,2.3029586000193376,,,072,00,2025-05-07_14h27.33.756,Surprise recog test,2023.1.3,60.00207606319196,
12,0,12,0,,,,,,,,,,,,,,,,,,,,,,,,,,,,,,,,,,302.65730130000156,303.67457859998103,299.9692627999757,299.9692627999757,299.9692627999757,299.9692627999757,old_fruit_15.png,13,3.0,2.6846548999892548,,,072,00,2025-05-07_14h27.33.756,Surprise recog test,2023.1.3,60.00207606319196,
13,0,13,0,,,,,,,,,,,,,,,,,,,,,,,,,,,,,,,,,,306.1346405999793,307.15754839999136,303.67457859998103,303.67457859998103,303.67457859998103,303.67457859998103,old_sceneOut_44.png,14,4.0,2.4532806999923196,,,072,00,2025-05-07_14h27.33.756,Surprise recog test,2023.1.3,60.00207606319196,
14,0,14,0,,,,,,,,,,,,,,,,,,,,,,,,,,,,,,,,,,309.7455878999899,310.76545509998687,307.15754839999136,307.15754839999136,307.15754839999136,307.15754839999136,old_stationery_37.png,15,3.0,2.589782600000035,,,072,00,2025-05-07_14h27.33.756,Surprise recog test,2023.1.3,60.00207606319196,
15,0,15,0,,,,,,,,,,,,,,,,,,,,,,,,,,,,,,,,,,312.4671738999896,313.49975999997696,310.76545509998687,310.76545509998687,310.76545509998687,310.76545509998687,old_stationery_28.png,16,1.0,1.6982751000032295,,,072,00,2025-05-07_14h27.33.756,Surprise recog test,2023.1.3,60.00207606319196,
16,0,16,0,,,,,,,,,,,,,,,,,,,,,,,,,,,,,,,,,,316.60830989998067,317.6208582999825,313.49975999997696,313.49975999997696,313.49975999997696,313.49975999997696,new_fruit_48.png,17,3.0,3.11336640000809,,,072,00,2025-05-07_14h27.33.756,Surprise recog test,2023.1.3,60.00207606319196,
17,0,17,0,,,,,,,,,,,,,,,,,,,,,,,,,,,,,,,,,,319.5875614999968,320.60363089997554,317.6208582999825,317.6208582999825,317.6208582999825,317.6208582999825,old_fruit_20.png,18,4.0,1.9602600999933202,,,072,00,2025-05-07_14h27.33.756,Surprise recog test,2023.1.3,60.00207606319196,
18,0,18,0,,,,,,,,,,,,,,,,,,,,,,,,,,,,,,,,,,322.9346115999797,323.94935779998195,320.60363089997554,320.60363089997554,320.60363089997554,320.60363089997554,new_stationery_30.png,19,1.0,2.327464800007874,,,072,00,2025-05-07_14h27.33.756,Surprise recog test,2023.1.3,60.00207606319196,
19,0,19,0,,,,,,,,,,,,,,,,,,,,,,,,,,,,,,,,,,325.7740687999758,,323.94935779998195,323.94935779998195,323.94935779998195,323.94935779998195,new_sceneIn_3.png,20,5.0,1.8265995000256225,,,072,00,2025-05-07_14h27.33.756,Surprise recog test,2023.1.3,60.00207606319196,
20,0,20,0,,,,,,,,,,,,,,,,,,,,,,,,,,,,,,,,,,328.74357649998274,329.77388059999794,326.80531889997656,326.80531889997656,326.80531889997656,326.80531889997656,old_sceneIn_11.png,21,3.0,1.9402892999933101,,,072,00,2025-05-07_14h27.33.756,Surprise recog test,2023.1.3,60.00207606319196,
21,0,21,0,,,,,,,,,,,,,,,,,,,,,,,,,,,,,,,,,,331.6360954999982,332.65913049998926,329.77388059999794,329.77388059999794,329.77388059999794,329.77388059999794,new_stationery_5.png,22,4.0,1.865847399982158,,,072,00,2025-05-07_14h27.33.756,Surprise recog test,2023.1.3,60.00207606319196,
22,0,22,0,,,,,,,,,,,,,,,,,,,,,,,,,,,,,,,,,,335.3767908999871,336.3873919000034,332.65913049998926,332.65913049998926,332.65913049998926,332.65913049998926,new_sceneOut_6.png,23,3.0,2.7201906999980565,,,072,00,2025-05-07_14h27.33.756,Surprise recog test,2023.1.3,60.00207606319196,
23,0,23,0,,,,,,,,,,,,,,,,,,,,,,,,,,,,,,,,,,338.6101894000021,339.6331356999872,336.3873919000034,336.3873919000034,336.3873919000034,336.3873919000034,old_fruit_31.png,24,4.0,2.2192859000060707,,,072,00,2025-05-07_14h27.33.756,Surprise recog test,2023.1.3,60.00207606319196,
24,0,24,0,,,,,,,,,,,,,,,,,,,,,,,,,,,,,,,,,,343.6820400999859,344.7048109000025,339.6331356999872,339.6331356999872,339.6331356999872,339.6331356999872,new_sceneIn_36.png,25,4.0,4.050767899985658,,,072,00,2025-05-07_14h27.33.756,Surprise recog test,2023.1.3,60.00207606319196,
25,0,25,0,,,,,,,,,,,,,,,,,,,,,,,,,,,,,,,,,,346.6000789999962,347.6237792999891,344.7048109000025,344.7048109000025,344.7048109000025,344.7048109000025,new_sceneOut_8.png,26,4.0,1.894658499979414,,,072,00,2025-05-07_14h27.33.756,Surprise recog test,2023.1.3,60.00207606319196,
26,0,26,0,,,,,,,,,,,,,,,,,,,,,,,,,,,,,,,,,,349.21326119999867,350.24401039999793,347.6237792999891,347.6237792999891,347.6237792999891,347.6237792999891,new_stationery_25.png,27,4.0,1.5916015999973752,,,072,00,2025-05-07_14h27.33.756,Surprise recog test,2023.1.3,60.00207606319196,
27,0,27,0,,,,,,,,,,,,,,,,,,,,,,,,,,,,,,,,,,351.9596288999892,352.9781670999946,350.24401039999793,350.24401039999793,350.24401039999793,350.24401039999793,new_fruit_8.png,28,3.0,1.7170422000053804,,,072,00,2025-05-07_14h27.33.756,Surprise recog test,2023.1.3,60.00207606319196,
28,0,28,0,,,,,,,,,,,,,,,,,,,,,,,,,,,,,,,,,,355.3914872999885,356.414733099984,352.9781670999946,352.9781670999946,352.9781670999946,352.9781670999946,old_sceneIn_32.png,29,3.0,2.416275499999756,,,072,00,2025-05-07_14h27.33.756,Surprise recog test,2023.1.3,60.00207606319196,
29,0,29,0,,,,,,,,,,,,,,,,,,,,,,,,,,,,,,,,,,359.1144275999977,360.1412902000011,356.414733099984,356.414733099984,356.414733099984,356.414733099984,new_fruit_38.png,30,5.0,2.694834099995205,,,072,00,2025-05-07_14h27.33.756,Surprise recog test,2023.1.3,60.00207606319196,
30,0,30,0,,,,,,,,,,,,,,,,,,,,,,,,,,,,,,,,,,363.85788669998874,364.8733951000031,360.1412902000011,360.1412902000011,360.1412902000011,360.1412902000011,old_sceneOut_1.png,31,2.0,3.719960800022818,,,072,00,2025-05-07_14h27.33.756,Surprise recog test,2023.1.3,60.00207606319196,
31,0,31,0,,,,,,,,,,,,,,,,,,,,,,,,,,,,,,,,,,366.9042142999824,367.9189925999963,364.8733951000031,364.8733951000031,364.8733951000031,364.8733951000031,old_sceneIn_15.png,32,3.0,2.023358400008874,,,072,00,2025-05-07_14h27.33.756,Surprise recog test,2023.1.3,60.00207606319196,
32,0,32,0,,,,,,,,,,,,,,,,,,,,,,,,,,,,,,,,,,369.38014229998225,370.4108886999893,367.9189925999963,367.9189925999963,367.9189925999963,367.9189925999963,new_sceneOut_41.png,33,1.0,1.4600394000008237,,,072,00,2025-05-07_14h27.33.756,Surprise recog test,2023.1.3,60.00207606319196,
33,0,33,0,,,,,,,,,,,,,,,,,,,,,,,,,,,,,,,,,,373.4380667999794,374.4613857999793,370.4108886999893,370.4108886999893,370.4108886999893,370.4108886999893,new_sceneOut_27.png,34,3.0,3.027855599997565,,,072,00,2025-05-07_14h27.33.756,Surprise recog test,2023.1.3,60.00207606319196,
34,0,34,0,,,,,,,,,,,,,,,,,,,,,,,,,,,,,,,,,,377.26647559998673,,374.4613857999793,374.4613857999793,374.4613857999793,374.4613857999793,new_stationery_20.png,35,4.0,2.803204199997708,,,072,00,2025-05-07_14h27.33.756,Surprise recog test,2023.1.3,60.00207606319196,
35,0,35,0,,,,,,,,,,,,,,,,,,,,,,,,,,,,,,,,,,380.04453359998297,381.06849330000114,378.2969675999775,378.2969675999775,378.2969675999775,378.2969675999775,new_fruit_12.png,36,3.0,1.7494269000017084,,,072,00,2025-05-07_14h27.33.756,Surprise recog test,2023.1.3,60.00207606319196,
36,0,36,0,,,,,,,,,,,,,,,,,,,,,,,,,,,,,,,,,,382.49721599998884,383.5218211999745,381.06849330000114,381.06849330000114,381.06849330000114,381.06849330000114,old_stationery_50.png,37,1.0,1.4299735999957193,,,072,00,2025-05-07_14h27.33.756,Surprise recog test,2023.1.3,60.00207606319196,
37,0,37,0,,,,,,,,,,,,,,,,,,,,,,,,,,,,,,,,,,385.32784569999785,386.35509499997715,383.5218211999745,383.5218211999745,383.5218211999745,383.5218211999745,new_sceneOut_32.png,38,3.0,1.8083277000114322,,,072,00,2025-05-07_14h27.33.756,Surprise recog test,2023.1.3,60.00207606319196,
38,0,38,0,,,,,,,,,,,,,,,,,,,,,,,,,,,,,,,,,,388.55661949998466,389.5741245999816,386.35509499997715,386.35509499997715,386.35509499997715,386.35509499997715,old_sceneOut_8.png,39,2.0,2.2029254999943078,,,072,00,2025-05-07_14h27.33.756,Surprise recog test,2023.1.3,60.00207606319196,
39,0,39,0,,,,,,,,,,,,,,,,,,,,,,,,,,,,,,,,,,391.4416092999745,392.4571235999756,389.5741245999816,389.5741245999816,389.5741245999816,389.5741245999816,old_sceneIn_23.png,40,4.0,1.865912599983858,,,072,00,2025-05-07_14h27.33.756,Surprise recog test,2023.1.3,60.00207606319196,
40,0,40,0,,,,,,,,,,,,,,,,,,,,,,,,,,,,,,,,,,394.6864402999927,395.7132517999853,392.4571235999756,392.4571235999756,392.4571235999756,392.4571235999756,new_stationery_11.png,41,5.0,2.2322478000132833,,,072,00,2025-05-07_14h27.33.756,Surprise recog test,2023.1.3,60.00207606319196,
41,0,41,0,,,,,,,,,,,,,,,,,,,,,,,,,,,,,,,,,,396.96189959999174,397.98342089998187,395.7132517999853,395.7132517999853,395.7132517999853,395.7132517999853,new_stationery_46.png,42,5.0,1.2503791000053752,,,072,00,2025-05-07_14h27.33.756,Surprise recog test,2023.1.3,60.00207606319196,
42,0,42,0,,,,,,,,,,,,,,,,,,,,,,,,,,,,,,,,,,399.97103339998284,401.0019083999796,397.98342089998187,397.98342089998187,397.98342089998187,397.98342089998187,old_sceneIn_28.png,43,4.0,1.989969399990514,,,072,00,2025-05-07_14h27.33.756,Surprise recog test,2023.1.3,60.00207606319196,
43,0,43,0,,,,,,,,,,,,,,,,,,,,,,,,,,,,,,,,,,403.6329554999829,404.6576162999845,401.0019083999796,401.0019083999796,401.0019083999796,401.0019083999796,old_sceneOut_39.png,44,4.0,2.6333865000051446,,,072,00,2025-05-07_14h27.33.756,Surprise recog test,2023.1.3,60.00207606319196,
44,0,44,0,,,,,,,,,,,,,,,,,,,,,,,,,,,,,,,,,,406.15940869998303,407.18546629999764,404.6576162999845,404.6576162999845,404.6576162999845,404.6576162999845,old_fruit_2.png,45,1.0,1.503040699986741,,,072,00,2025-05-07_14h27.33.756,Surprise recog test,2023.1.3,60.00207606319196,
45,0,45,0,,,,,,,,,,,,,,,,,,,,,,,,,,,,,,,,,,408.72351559999515,409.742940199998,407.18546629999764,407.18546629999764,407.18546629999764,407.18546629999764,new_sceneIn_31.png,46,4.0,1.540309400006663,,,072,00,2025-05-07_14h27.33.756,Surprise recog test,2023.1.3,60.00207606319196,
46,0,46,0,,,,,,,,,,,,,,,,,,,,,,,,,,,,,,,,,,411.36126689999946,,409.742940199998,409.742940199998,409.742940199998,409.742940199998,old_fruit_30.png,47,3.0,1.618258100003004,,,072,00,2025-05-07_14h27.33.756,Surprise recog test,2023.1.3,60.00207606319196,
47,0,47,0,,,,,,,,,,,,,,,,,,,,,,,,,,,,,,,,,,416.24514489999274,417.2627711999812,412.3894526999793,412.3894526999793,412.3894526999793,412.3894526999793,new_sceneIn_49.png,48,4.0,3.8535643000213895,,,072,00,2025-05-07_14h27.33.756,Surprise recog test,2023.1.3,60.00207606319196,
48,0,48,0,,,,,,,,,,,,,,,,,,,,,,,,,,,,,,,,,,418.80141469999216,,417.2627711999812,417.2627711999812,417.2627711999812,417.2627711999812,old_sceneOut_48.png,49,3.0,1.5375114000053145,,,072,00,2025-05-07_14h27.33.756,Surprise recog test,2023.1.3,60.00207606319196,
49,0,49,0,,,,,,,,,,,,,,,,,,,,,,,,,,,,,,,,,,421.890453,422.90531069997814,419.82221369998297,419.82221369998297,419.82221369998297,419.82221369998297,old_sceneIn_26.png,50,5.0,2.0609730999858584,,,072,00,2025-05-07_14h27.33.756,Surprise recog test,2023.1.3,60.00207606319196,
50,0,50,0,,,,,,,,,,,,,,,,,,,,,,,,,,,,,,,,,,425.83419850000064,426.85622749998583,422.90531069997814,422.90531069997814,422.90531069997814,422.90531069997814,old_stationery_43.png,51,3.0,2.9258596999861766,,,072,00,2025-05-07_14h27.33.756,Surprise recog test,2023.1.3,60.00207606319196,
51,0,51,0,,,,,,,,,,,,,,,,,,,,,,,,,,,,,,,,,,428.5680843000009,429.59564319998026,426.85622749998583,426.85622749998583,426.85622749998583,426.85622749998583,old_sceneOut_18.png,52,4.0,1.7130068000114989,,,072,00,2025-05-07_14h27.33.756,Surprise recog test,2023.1.3,60.00207606319196,
52,0,52,0,,,,,,,,,,,,,,,,,,,,,,,,,,,,,,,,,,431.17923359997803,432.2118937999767,429.59564319998026,429.59564319998026,429.59564319998026,429.59564319998026,new_stationery_28.png,53,1.0,1.5878578999836463,,,072,00,2025-05-07_14h27.33.756,Surprise recog test,2023.1.3,60.00207606319196,
53,0,53,0,,,,,,,,,,,,,,,,,,,,,,,,,,,,,,,,,,434.0164349999977,435.0476243000012,432.2118937999767,432.2118937999767,432.2118937999767,432.2118937999767,new_fruit_2.png,54,3.0,1.8068763999908697,,,072,00,2025-05-07_14h27.33.756,Surprise recog test,2023.1.3,60.00207606319196,
54,0,54,0,,,,,,,,,,,,,,,,,,,,,,,,,,,,,,,,,,436.77267330000177,437.79923569998937,435.0476243000012,435.0476243000012,435.0476243000012,435.0476243000012,new_sceneIn_1.png,55,4.0,1.7281137999962084,,,072,00,2025-05-07_14h27.33.756,Surprise recog test,2023.1.3,60.00207606319196,
55,0,55,0,,,,,,,,,,,,,,,,,,,,,,,,,,,,,,,,,,439.6816368,440.68686259997776,437.79923569998937,437.79923569998937,437.79923569998937,437.79923569998937,new_sceneOut_2.png,56,3.0,1.8775423000042792,,,072,00,2025-05-07_14h27.33.756,Surprise recog test,2023.1.3,60.00207606319196,
56,0,56,0,,,,,,,,,,,,,,,,,,,,,,,,,,,,,,,,,,442.41990489998716,,440.68686259997776,440.68686259997776,440.68686259997776,440.68686259997776,old_stationery_14.png,57,1.0,1.7282948000065517,,,072,00,2025-05-07_14h27.33.756,Surprise recog test,2023.1.3,60.00207606319196,
57,0,57,0,,,,,,,,,,,,,,,,,,,,,,,,,,,,,,,,,,445.14162280000164,446.1710955000017,443.44045809999807,443.44045809999807,443.44045809999807,443.44045809999807,new_fruit_5.png,58,3.0,1.6950308000086807,,,072,00,2025-05-07_14h27.33.756,Surprise recog test,2023.1.3,60.00207606319196,
58,0,58,0,,,,,,,,,,,,,,,,,,,,,,,,,,,,,,,,,,447.7464776999841,448.7588214999996,446.1710955000017,446.1710955000017,446.1710955000017,446.1710955000017,new_stationery_43.png,59,5.0,1.5773696000105701,,,072,00,2025-05-07_14h27.33.756,Surprise recog test,2023.1.3,60.00207606319196,
59,0,59,0,,,,,,,,,,,,,,,,,,,,,,,,,,,,,,,,,,450.1902564999764,451.20542929999647,448.7588214999996,448.7588214999996,448.7588214999996,448.7588214999996,old_stationery_38.png,60,1.0,1.425186800013762,,,072,00,2025-05-07_14h27.33.756,Surprise recog test,2023.1.3,60.00207606319196,
60,0,60,0,,,,,,,,,,,,,,,,,,,,,,,,,,,,,,,,,,453.1070813999977,454.11464929999784,451.20542929999647,451.20542929999647,451.20542929999647,451.20542929999647,old_fruit_19.png,61,3.0,1.902885999996215,,,072,00,2025-05-07_14h27.33.756,Surprise recog test,2023.1.3,60.00207606319196,
61,0,61,0,,,,,,,,,,,,,,,,,,,,,,,,,,,,,,,,,,455.7491169999994,,454.11464929999784,454.11464929999784,454.11464929999784,454.11464929999784,new_sceneOut_50.png,62,4.0,1.630928099999437,,,072,00,2025-05-07_14h27.33.756,Surprise recog test,2023.1.3,60.00207606319196,
62,0,62,0,,,,,,,,,,,,,,,,,,,,,,,,,,,,,,,,,,458.29351809999207,459.3178038999904,456.78364569999394,456.78364569999394,456.78364569999394,456.78364569999394,new_fruit_50.png,63,2.0,1.5119169999961741,,,072,00,2025-05-07_14h27.33.756,Surprise recog test,2023.1.3,60.00207606319196,
63,0,63,0,,,,,,,,,,,,,,,,,,,,,,,,,,,,,,,,,,461.1460419999785,462.1696980999841,459.3178038999904,459.3178038999904,459.3178038999904,459.3178038999904,old_sceneIn_29.png,64,5.0,1.8308206000074279,,,072,00,2025-05-07_14h27.33.756,Surprise recog test,2023.1.3,60.00207606319196,
64,0,64,0,,,,,,,,,,,,,,,,,,,,,,,,,,,,,,,,,,465.52367049999884,,462.1696980999841,462.1696980999841,462.1696980999841,462.1696980999841,old_sceneIn_18.png,65,3.0,3.355987599992659,,,072,00,2025-05-07_14h27.33.756,Surprise recog test,2023.1.3,60.00207606319196,
65,0,65,0,,,,,,,,,,,,,,,,,,,,,,,,,,,,,,,,,,471.06262069998775,472.086862199998,466.5514090999786,466.5514090999786,466.5514090999786,466.5514090999786,new_sceneIn_35.png,66,4.0,4.508500299998559,,,072,00,2025-05-07_14h27.33.756,Surprise recog test,2023.1.3,60.00207606319196,
66,0,66,0,,,,,,,,,,,,,,,,,,,,,,,,,,,,,,,,,,474.03293879999546,475.05735609997646,472.086862199998,472.086862199998,472.086862199998,472.086862199998,old_fruit_33.png,67,3.0,1.9440486000094097,,,072,00,2025-05-07_14h27.33.756,Surprise recog test,2023.1.3,60.00207606319196,
67,0,67,0,,,,,,,,,,,,,,,,,,,,,,,,,,,,,,,,,,476.9790723999904,478.00022749998607,475.05735609997646,475.05735609997646,475.05735609997646,475.05735609997646,new_stationery_41.png,68,5.0,1.9162009000137914,,,072,00,2025-05-07_14h27.33.756,Surprise recog test,2023.1.3,60.00207606319196,
68,0,68,0,,,,,,,,,,,,,,,,,,,,,,,,,,,,,,,,,,479.7171742999926,,478.00022749998607,478.00022749998607,478.00022749998607,478.00022749998607,old_sceneIn_45.png,69,4.0,1.7198902000091039,,,072,00,2025-05-07_14h27.33.756,Surprise recog test,2023.1.3,60.00207606319196,
69,0,69,0,,,,,,,,,,,,,,,,,,,,,,,,,,,,,,,,,,483.19612629999756,484.206581299979,480.74752389997593,480.74752389997593,480.74752389997593,480.74752389997593,old_stationery_12.png,70,1.0,2.448096300009638,,,072,00,2025-05-07_14h27.33.756,Surprise recog test,2023.1.3,60.00207606319196,
70,0,70,0,,,,,,,,,,,,,,,,,,,,,,,,,,,,,,,,,,486.17788069997914,487.20059510000283,484.206581299979,484.206581299979,484.206581299979,484.206581299979,old_fruit_21.png,71,2.0,1.9675161000050139,,,072,00,2025-05-07_14h27.33.756,Surprise recog test,2023.1.3,60.00207606319196,
71,0,71,0,,,,,,,,,,,,,,,,,,,,,,,,,,,,,,,,,,488.52120950000244,489.5436064999958,487.20059510000283,487.20059510000283,487.20059510000283,487.20059510000283,old_sceneOut_49.png,72,3.0,1.3189511000236962,,,072,00,2025-05-07_14h27.33.756,Surprise recog test,2023.1.3,60.00207606319196,
72,0,72,0,,,,,,,,,,,,,,,,,,,,,,,,,,,,,,,,,,493.90319299997645,494.92893369999365,489.5436064999958,489.5436064999958,489.5436064999958,489.5436064999958,old_fruit_3.png,73,4.0,4.3630612999841105,,,072,00,2025-05-07_14h27.33.756,Surprise recog test,2023.1.3,60.00207606319196,
73,0,73,0,,,,,,,,,,,,,,,,,,,,,,,,,,,,,,,,,,498.2176558999927,,494.92893369999365,494.92893369999365,494.92893369999365,494.92893369999365,new_stationery_31.png,74,4.0,3.2882694999861997,,,072,00,2025-05-07_14h27.33.756,Surprise recog test,2023.1.3,60.00207606319196,
74,0,74,0,,,,,,,,,,,,,,,,,,,,,,,,,,,,,,,,,,500.97063419999904,502.0024717999913,499.23786609998206,499.23786609998206,499.23786609998206,499.23786609998206,new_fruit_1.png,75,3.0,1.728536799986614,,,072,00,2025-05-07_14h27.33.756,Surprise recog test,2023.1.3,60.00207606319196,
75,0,75,0,,,,,,,,,,,,,,,,,,,,,,,,,,,,,,,,,,503.79730439998093,504.8194259000011,502.0024717999913,502.0024717999913,502.0024717999913,502.0024717999913,old_fruit_8.png,76,2.0,1.7951680999831297,,,072,00,2025-05-07_14h27.33.756,Surprise recog test,2023.1.3,60.00207606319196,
76,0,76,0,,,,,,,,,,,,,,,,,,,,,,,,,,,,,,,,,,506.8633617000014,507.8874922999821,504.8194259000011,504.8194259000011,504.8194259000011,504.8194259000011,new_sceneOut_10.png,77,3.0,2.0456321999954525,,,072,00,2025-05-07_14h27.33.756,Surprise recog test,2023.1.3,60.00207606319196,
77,0,77,0,,,,,,,,,,,,,,,,,,,,,,,,,,,,,,,,,,509.97872709998046,511.01126089997706,507.8874922999821,507.8874922999821,507.8874922999821,507.8874922999821,old_fruit_47.png,78,2.0,2.093079200014472,,,072,00,2025-05-07_14h27.33.756,Surprise recog test,2023.1.3,60.00207606319196,
78,0,78,0,,,,,,,,,,,,,,,,,,,,,,,,,,,,,,,,,,512.7328460999997,513.7629865999916,511.01126089997706,511.01126089997706,511.01126089997706,511.01126089997706,new_fruit_43.png,79,5.0,1.7232001000083983,,,072,00,2025-05-07_14h27.33.756,Surprise recog test,2023.1.3,60.00207606319196,
79,0,79,0,,,,,,,,,,,,,,,,,,,,,,,,,,,,,,,,,,518.7471344999794,,513.7629865999916,513.7629865999916,513.7629865999916,513.7629865999916,old_sceneIn_27.png,80,None,None,518.7319136000006,,072,00,2025-05-07_14h27.33.756,Surprise recog test,2023.1.3,60.00207606319196,
80,0,80,0,,,,,,,,,,,,,,,,,,,,,,,,,,,,,,,,,,521.282260899985,522.2997666999872,519.7549080000026,519.7549080000026,519.7549080000026,519.7549080000026,old_fruit_18.png,81,2.0,1.5238003999984358,,,072,00,2025-05-07_14h27.33.756,Surprise recog test,2023.1.3,60.00207606319196,
81,0,81,0,,,,,,,,,,,,,,,,,,,,,,,,,,,,,,,,,,524.036652299983,525.0505345999845,522.2997666999872,522.2997666999872,522.2997666999872,522.2997666999872,old_stationery_10.png,82,1.0,1.736671499995282,,,072,00,2025-05-07_14h27.33.756,Surprise recog test,2023.1.3,60.00207606319196,
82,0,82,0,,,,,,,,,,,,,,,,,,,,,,,,,,,,,,,,,,527.5654399999767,528.5887877999921,525.0505345999845,525.0505345999845,525.0505345999845,525.0505345999845,new_sceneOut_5.png,83,3.0,2.5159173000138253,,,072,00,2025-05-07_14h27.33.756,Surprise recog test,2023.1.3,60.00207606319196,
83,0,83,0,,,,,,,,,,,,,,,,,,,,,,,,,,,,,,,,,,530.8635569999751,531.8929907999991,528.5887877999921,528.5887877999921,528.5887877999921,528.5887877999921,old_fruit_41.png,84,4.0,2.27663870001561,,,072,00,2025-05-07_14h27.33.756,Surprise recog test,2023.1.3,60.00207606319196,
84,0,84,0,,,,,,,,,,,,,,,,,,,,,,,,,,,,,,,,,,533.6382800999854,534.6512081999972,531.8929907999991,531.8929907999991,531.8929907999991,531.8929907999991,old_stationery_5.png,85,2.0,1.7477985000004992,,,072,00,2025-05-07_14h27.33.756,Surprise recog test,2023.1.3,60.00207606319196,
85,0,85,0,,,,,,,,,,,,,,,,,,,,,,,,,,,,,,,,,,536.3361497999867,537.3701064999914,534.6512081999972,534.6512081999972,534.6512081999972,534.6512081999972,old_stationery_13.png,86,4.0,1.6768348000186961,,,072,00,2025-05-07_14h27.33.756,Surprise recog test,2023.1.3,60.00207606319196,
86,0,86,0,,,,,,,,,,,,,,,,,,,,,,,,,,,,,,,,,,539.0717549999827,540.0864894999831,537.3701064999914,537.3701064999914,537.3701064999914,537.3701064999914,new_sceneOut_36.png,87,5.0,1.7059549000114202,,,072,00,2025-05-07_14h27.33.756,Surprise recog test,2023.1.3,60.00207606319196,
87,0,87,0,,,,,,,,,,,,,,,,,,,,,,,,,,,,,,,,,,541.6043267999776,542.6350150999788,540.0864894999831,540.0864894999831,540.0864894999831,540.0864894999831,old_stationery_42.png,88,1.0,1.5151237999962177,,,072,00,2025-05-07_14h27.33.756,Surprise recog test,2023.1.3,60.00207606319196,
88,0,88,0,,,,,,,,,,,,,,,,,,,,,,,,,,,,,,,,,,544.0758450999856,545.1040662000014,542.6350150999788,542.6350150999788,542.6350150999788,542.6350150999788,old_fruit_35.png,89,3.0,1.4429180000151973,,,072,00,2025-05-07_14h27.33.756,Surprise recog test,2023.1.3,60.00207606319196,
89,0,89,0,,,,,,,,,,,,,,,,,,,,,,,,,,,,,,,,,,546.3919516000024,547.4199916999787,545.1040662000014,545.1040662000014,545.1040662000014,545.1040662000014,old_sceneOut_36.png,90,4.0,1.2887698000122327,,,072,00,2025-05-07_14h27.33.756,Surprise recog test,2023.1.3,60.00207606319196,
90,0,90,0,,,,,,,,,,,,,,,,,,,,,,,,,,,,,,,,,,549.2499734000012,550.2751178999897,547.4199916999787,547.4199916999787,547.4199916999787,547.4199916999787,new_fruit_19.png,91,3.0,1.831359900010284,,,072,00,2025-05-07_14h27.33.756,Surprise recog test,2023.1.3,60.00207606319196,
91,0,91,0,,,,,,,,,,,,,,,,,,,,,,,,,,,,,,,,,,552.2749569999869,553.2899811999814,550.2751178999897,550.2751178999897,550.2751178999897,550.2751178999897,new_fruit_46.png,92,5.0,2.00078279999434,,,072,00,2025-05-07_14h27.33.756,Surprise recog test,2023.1.3,60.00207606319196,
92,0,92,0,,,,,,,,,,,,,,,,,,,,,,,,,,,,,,,,,,555.169012999977,556.1960838999948,553.2899811999814,553.2899811999814,553.2899811999814,553.2899811999814,new_fruit_4.png,93,4.0,1.8796090999967419,,,072,00,2025-05-07_14h27.33.756,Surprise recog test,2023.1.3,60.00207606319196,
93,0,93,0,,,,,,,,,,,,,,,,,,,,,,,,,,,,,,,,,,557.629514899978,558.6501497999998,556.1960838999948,556.1960838999948,556.1960838999948,556.1960838999948,old_sceneIn_43.png,94,4.0,1.435296700015897,,,072,00,2025-05-07_14h27.33.756,Surprise recog test,2023.1.3,60.00207606319196,
94,0,94,0,,,,,,,,,,,,,,,,,,,,,,,,,,,,,,,,,,560.6406764999847,561.6700537999859,558.6501497999998,558.6501497999998,558.6501497999998,558.6501497999998,old_sceneOut_42.png,95,3.0,1.9920420000271406,,,072,00,2025-05-07_14h27.33.756,Surprise recog test,2023.1.3,60.00207606319196,
95,0,95,0,,,,,,,,,,,,,,,,,,,,,,,,,,,,,,,,,,565.102756599983,566.1165819999878,561.6700537999859,561.6700537999859,561.6700537999859,561.6700537999859,new_sceneOut_11.png,96,2.0,3.4337742000061553,,,072,00,2025-05-07_14h27.33.756,Surprise recog test,2023.1.3,60.00207606319196,
96,0,96,0,,,,,,,,,,,,,,,,,,,,,,,,,,,,,,,,,,567.9047719999799,568.9251201000006,566.1165819999878,566.1165819999878,566.1165819999878,566.1165819999878,new_sceneIn_9.png,97,2.0,1.7820801000052597,,,072,00,2025-05-07_14h27.33.756,Surprise recog test,2023.1.3,60.00207606319196,
97,0,97,0,,,,,,,,,,,,,,,,,,,,,,,,,,,,,,,,,,570.4762582999829,,568.9251201000006,568.9251201000006,568.9251201000006,568.9251201000006,old_sceneIn_31.png,98,2.0,1.5502471000072546,,,072,00,2025-05-07_14h27.33.756,Surprise recog test,2023.1.3,60.00207606319196,
98,0,98,0,,,,,,,,,,,,,,,,,,,,,,,,,,,,,,,,,,573.8120480999933,,571.5168145999778,571.5168145999778,571.5168145999778,571.5168145999778,new_sceneIn_24.png,99,3.0,2.2997188000008464,,,072,00,2025-05-07_14h27.33.756,Surprise recog test,2023.1.3,60.00207606319196,
99,0,99,0,,,,,,,,,,,,,,,,,,,,,,,,,,,,,,,,,,578.1716100999911,579.2022419999994,574.8456928999803,574.8456928999803,574.8456928999803,574.8456928999803,new_fruit_3.png,100,2.0,3.328757700015558,,,072,00,2025-05-07_14h27.33.756,Surprise recog test,2023.1.3,60.00207606319196,
100,0,100,0,,,,,,,,,,,,,,,,,,,,,,,,,,,,,,,,,,581.008682899992,582.0345808999846,579.2022419999994,579.2022419999994,579.2022419999994,579.2022419999994,new_sceneIn_17.png,101,5.0,1.8093097000091802,,,072,00,2025-05-07_14h27.33.756,Surprise recog test,2023.1.3,60.00207606319196,
101,0,101,0,,,,,,,,,,,,,,,,,,,,,,,,,,,,,,,,,,583.2744938999822,584.2926158999908,582.0345808999846,582.0345808999846,582.0345808999846,582.0345808999846,new_sceneIn_29.png,102,5.0,1.2419859999790788,,,072,00,2025-05-07_14h27.33.756,Surprise recog test,2023.1.3,60.00207606319196,
102,0,102,0,,,,,,,,,,,,,,,,,,,,,,,,,,,,,,,,,,586.2198509000009,587.2417238999915,584.2926158999908,584.2926158999908,584.2926158999908,584.2926158999908,new_sceneOut_19.png,103,3.0,1.916570800007321,,,072,00,2025-05-07_14h27.33.756,Surprise recog test,2023.1.3,60.00207606319196,
103,0,103,0,,,,,,,,,,,,,,,,,,,,,,,,,,,,,,,,,,588.8384780999913,589.8568545999879,587.2417238999915,587.2417238999915,587.2417238999915,587.2417238999915,new_sceneIn_38.png,104,4.0,1.5997242000012193,,,072,00,2025-05-07_14h27.33.756,Surprise recog test,2023.1.3,60.00207606319196,
104,0,104,0,,,,,,,,,,,,,,,,,,,,,,,,,,,,,,,,,,591.228154899989,,589.8568545999879,589.8568545999879,589.8568545999879,589.8568545999879,old_sceneOut_3.png,105,4.0,1.3722456999821588,,,072,00,2025-05-07_14h27.33.756,Surprise recog test,2023.1.3,60.00207606319196,
105,0,105,0,,,,,,,,,,,,,,,,,,,,,,,,,,,,,,,,,,593.5735568999953,594.5857636999863,592.2593547999859,592.2593547999859,592.2593547999859,592.2593547999859,new_sceneIn_2.png,106,4.0,1.3148172000073828,,,072,00,2025-05-07_14h27.33.756,Surprise recog test,2023.1.3,60.00207606319196,
106,0,106,0,,,,,,,,,,,,,,,,,,,,,,,,,,,,,,,,,,596.6882916000031,597.7038260999834,594.5857636999863,594.5857636999863,594.5857636999863,594.5857636999863,old_sceneIn_42.png,107,3.0,2.1010968000045978,,,072,00,2025-05-07_14h27.33.756,Surprise recog test,2023.1.3,60.00207606319196,
107,0,107,0,,,,,,,,,,,,,,,,,,,,,,,,,,,,,,,,,,599.6934005999938,600.7175254999893,597.7038260999834,597.7038260999834,597.7038260999834,597.7038260999834,new_sceneIn_48.png,108,4.0,1.985290399985388,,,072,00,2025-05-07_14h27.33.756,Surprise recog test,2023.1.3,60.00207606319196,
108,0,108,0,,,,,,,,,,,,,,,,,,,,,,,,,,,,,,,,,,602.2139137999911,603.2250353999843,600.7175254999893,600.7175254999893,600.7175254999893,600.7175254999893,new_sceneIn_44.png,109,4.0,1.4983902999956626,,,072,00,2025-05-07_14h27.33.756,Surprise recog test,2023.1.3,60.00207606319196,
109,0,109,0,,,,,,,,,,,,,,,,,,,,,,,,,,,,,,,,,,606.1124496999837,607.1502105999971,603.2250353999843,603.2250353999843,603.2250353999843,603.2250353999843,old_sceneOut_9.png,110,3.0,2.883600600005593,,,072,00,2025-05-07_14h27.33.756,Surprise recog test,2023.1.3,60.00207606319196,
110,0,110,0,,,,,,,,,,,,,,,,,,,,,,,,,,,,,,,,,,608.5234014999878,609.531685599999,607.1502105999971,607.1502105999971,607.1502105999971,607.1502105999971,old_stationery_33.png,111,1.0,1.3792329000134487,,,072,00,2025-05-07_14h27.33.756,Surprise recog test,2023.1.3,60.00207606319196,
111,0,111,0,,,,,,,,,,,,,,,,,,,,,,,,,,,,,,,,,,611.5536215000029,612.5772083999764,609.531685599999,609.531685599999,609.531685599999,609.531685599999,new_sceneOut_31.png,112,4.0,2.017295400000876,,,072,00,2025-05-07_14h27.33.756,Surprise recog test,2023.1.3,60.00207606319196,
112,0,112,0,,,,,,,,,,,,,,,,,,,,,,,,,,,,,,,,,,614.8989739999815,615.9187483999995,612.5772083999764,612.5772083999764,612.5772083999764,612.5772083999764,old_sceneIn_14.png,113,4.0,2.3232645000098273,,,072,00,2025-05-07_14h27.33.756,Surprise recog test,2023.1.3,60.00207606319196,
113,0,113,0,,,,,,,,,,,,,,,,,,,,,,,,,,,,,,,,,,617.1915014999977,618.2058374999906,615.9187483999995,615.9187483999995,615.9187483999995,615.9187483999995,new_sceneIn_25.png,114,4.0,1.2684543000068516,,,072,00,2025-05-07_14h27.33.756,Surprise recog test,2023.1.3,60.00207606319196,
114,0,114,0,,,,,,,,,,,,,,,,,,,,,,,,,,,,,,,,,,619.1257235999801,620.1390901999839,618.2058374999906,618.2058374999906,618.2058374999906,618.2058374999906,new_sceneIn_33.png,115,4.0,0.916453999991063,,,072,00,2025-05-07_14h27.33.756,Surprise recog test,2023.1.3,60.00207606319196,
115,0,115,0,,,,,,,,,,,,,,,,,,,,,,,,,,,,,,,,,,622.5571068999998,623.5833425000019,620.1390901999839,620.1390901999839,620.1390901999839,620.1390901999839,old_sceneIn_44.png,116,2.0,2.4142474999825936,,,072,00,2025-05-07_14h27.33.756,Surprise recog test,2023.1.3,60.00207606319196,
116,0,116,0,,,,,,,,,,,,,,,,,,,,,,,,,,,,,,,,,,625.3811577000015,626.4053692999878,623.5833425000019,623.5833425000019,623.5833425000019,623.5833425000019,old_sceneOut_19.png,117,5.0,1.7993624999944586,,,072,00,2025-05-07_14h27.33.756,Surprise recog test,2023.1.3,60.00207606319196,
117,0,117,0,,,,,,,,,,,,,,,,,,,,,,,,,,,,,,,,,,628.3625480999763,629.3932480999792,626.4053692999878,626.4053692999878,626.4053692999878,626.4053692999878,old_sceneOut_35.png,118,2.0,1.957137799996417,,,072,00,2025-05-07_14h27.33.756,Surprise recog test,2023.1.3,60.00207606319196,
118,0,118,0,,,,,,,,,,,,,,,,,,,,,,,,,,,,,,,,,,631.4002226000011,632.4231101999758,629.3932480999792,629.3932480999792,629.3932480999792,629.3932480999792,new_sceneIn_21.png,119,3.0,2.009165199997369,,,072,00,2025-05-07_14h27.33.756,Surprise recog test,2023.1.3,60.00207606319196,
119,0,119,0,,,,,,,,,,,,,,,,,,,,,,,,,,,,,,,,,,633.90952809999,634.925872199994,632.4231101999758,632.4231101999758,632.4231101999758,632.4231101999758,new_sceneOut_28.png,120,4.0,1.4842116000072565,,,072,00,2025-05-07_14h27.33.756,Surprise recog test,2023.1.3,60.00207606319196,
120,0,120,0,,,,,,,,,,,,,,,,,,,,,,,,,,,,,,,,,,636.9490860999795,,634.925872199994,634.925872199994,634.925872199994,634.925872199994,old_fruit_48.png,121,2.0,2.0255563000100665,,,072,00,2025-05-07_14h27.33.756,Surprise recog test,2023.1.3,60.00207606319196,
121,0,121,0,,,,,,,,,,,,,,,,,,,,,,,,,,,,,,,,,,639.4158121999935,640.4349858999776,637.9807205999969,637.9807205999969,637.9807205999969,637.9807205999969,new_sceneIn_10.png,122,3.0,1.4365120000147726,,,072,00,2025-05-07_14h27.33.756,Surprise recog test,2023.1.3,60.00207606319196,
122,0,122,0,,,,,,,,,,,,,,,,,,,,,,,,,,,,,,,,,,643.0088239999895,644.0381212999928,640.4349858999776,640.4349858999776,640.4349858999776,640.4349858999776,old_sceneOut_38.png,123,4.0,2.5741532999963965,,,072,00,2025-05-07_14h27.33.756,Surprise recog test,2023.1.3,60.00207606319196,
123,0,123,0,,,,,,,,,,,,,,,,,,,,,,,,,,,,,,,,,,646.0940573999833,647.1242535999918,644.0381212999928,644.0381212999928,644.0381212999928,644.0381212999928,old_sceneOut_33.png,124,3.0,2.056299999996554,,,072,00,2025-05-07_14h27.33.756,Surprise recog test,2023.1.3,60.00207606319196,
124,0,124,0,,,,,,,,,,,,,,,,,,,,,,,,,,,,,,,,,,648.5333359999931,649.5469373999804,647.1242535999918,647.1242535999918,647.1242535999918,647.1242535999918,old_stationery_23.png,125,1.0,1.4103035000152886,,,072,00,2025-05-07_14h27.33.756,Surprise recog test,2023.1.3,60.00207606319196,
125,0,125,0,,,,,,,,,,,,,,,,,,,,,,,,,,,,,,,,,,651.9143924999807,652.9305497999885,649.5469373999804,649.5469373999804,649.5469373999804,649.5469373999804,new_stationery_34.png,126,4.0,2.3616150000016205,,,072,00,2025-05-07_14h27.33.756,Surprise recog test,2023.1.3,60.00207606319196,
126,0,126,0,,,,,,,,,,,,,,,,,,,,,,,,,,,,,,,,,,654.8214997999894,655.8442806999956,652.9305497999885,652.9305497999885,652.9305497999885,652.9305497999885,old_sceneOut_5.png,127,4.0,1.8881767999846488,,,072,00,2025-05-07_14h27.33.756,Surprise recog test,2023.1.3,60.00207606319196,
127,0,127,0,,,,,,,,,,,,,,,,,,,,,,,,,,,,,,,,,,658.6353471999755,659.655260599975,655.8442806999956,655.8442806999956,655.8442806999956,655.8442806999956,new_fruit_18.png,128,3.0,2.7938187000108883,,,072,00,2025-05-07_14h27.33.756,Surprise recog test,2023.1.3,60.00207606319196,
128,0,128,0,,,,,,,,,,,,,,,,,,,,,,,,,,,,,,,,,,662.8161089999776,663.8363342999946,659.655260599975,659.655260599975,659.655260599975,659.655260599975,old_sceneOut_43.png,129,3.0,3.154441199993016,,,072,00,2025-05-07_14h27.33.756,Surprise recog test,2023.1.3,60.00207606319196,
129,0,129,0,,,,,,,,,,,,,,,,,,,,,,,,,,,,,,,,,,665.3500788999954,666.3716320999956,663.8363342999946,663.8363342999946,663.8363342999946,663.8363342999946,old_fruit_11.png,130,2.0,1.5153151999984402,,,072,00,2025-05-07_14h27.33.756,Surprise recog test,2023.1.3,60.00207606319196,
130,0,130,0,,,,,,,,,,,,,,,,,,,,,,,,,,,,,,,,,,668.0540850999823,669.0624952999933,666.3716320999956,666.3716320999956,666.3716320999956,666.3716320999956,new_sceneOut_18.png,131,5.0,1.6846767000097316,,,072,00,2025-05-07_14h27.33.756,Surprise recog test,2023.1.3,60.00207606319196,
131,0,131,0,,,,,,,,,,,,,,,,,,,,,,,,,,,,,,,,,,671.1009291999799,672.1298774000024,669.0624952999933,669.0624952999933,669.0624952999933,669.0624952999933,new_sceneIn_8.png,132,4.0,2.0343620000057854,,,072,00,2025-05-07_14h27.33.756,Surprise recog test,2023.1.3,60.00207606319196,
132,0,132,0,,,,,,,,,,,,,,,,,,,,,,,,,,,,,,,,,,673.915181999997,674.9486494000012,672.1298774000024,672.1298774000024,672.1298774000024,672.1298774000024,new_fruit_20.png,133,4.0,1.7853057999745943,,,072,00,2025-05-07_14h27.33.756,Surprise recog test,2023.1.3,60.00207606319196,
133,0,133,0,,,,,,,,,,,,,,,,,,,,,,,,,,,,,,,,,,679.0288922999753,680.0515345000022,674.9486494000012,674.9486494000012,674.9486494000012,674.9486494000012,new_stationery_42.png,134,4.0,4.081914799986407,,,072,00,2025-05-07_14h27.33.756,Surprise recog test,2023.1.3,60.00207606319196,
134,0,134,0,,,,,,,,,,,,,,,,,,,,,,,,,,,,,,,,,,681.8305248999968,682.8407394999813,680.0515345000022,680.0515345000022,680.0515345000022,680.0515345000022,new_sceneOut_34.png,135,4.0,1.7808621999865863,,,072,00,2025-05-07_14h27.33.756,Surprise recog test,2023.1.3,60.00207606319196,
135,0,135,0,,,,,,,,,,,,,,,,,,,,,,,,,,,,,,,,,,684.2763042000006,685.2995946999872,682.8407394999813,682.8407394999813,682.8407394999813,682.8407394999813,old_sceneIn_48.png,136,4.0,1.430965199979255,,,072,00,2025-05-07_14h27.33.756,Surprise recog test,2023.1.3,60.00207606319196,
136,0,136,0,,,,,,,,,,,,,,,,,,,,,,,,,,,,,,,,,,687.1395247999753,,685.2995946999872,685.2995946999872,685.2995946999872,685.2995946999872,old_stationery_26.png,137,1.0,1.8377747999911662,,,072,00,2025-05-07_14h27.33.756,Surprise recog test,2023.1.3,60.00207606319196,
137,0,137,0,,,,,,,,,,,,,,,,,,,,,,,,,,,,,,,,,,690.3640630999871,691.3912222999788,688.1713023999764,688.1713023999764,688.1713023999764,688.1713023999764,new_sceneIn_7.png,138,4.0,2.19410570000764,,,072,00,2025-05-07_14h27.33.756,Surprise recog test,2023.1.3,60.00207606319196,
138,0,138,0,,,,,,,,,,,,,,,,,,,,,,,,,,,,,,,,,,693.3934923999768,694.4039754999976,691.3912222999788,691.3912222999788,691.3912222999788,691.3912222999788,old_sceneIn_37.png,139,1.0,2.004692599992268,,,072,00,2025-05-07_14h27.33.756,Surprise recog test,2023.1.3,60.00207606319196,
139,0,139,0,,,,,,,,,,,,,,,,,,,,,,,,,,,,,,,,,,696.611625199992,697.6191510999925,694.4039754999976,694.4039754999976,694.4039754999976,694.4039754999976,old_stationery_2.png,140,3.0,2.2063479999778792,,,072,00,2025-05-07_14h27.33.756,Surprise recog test,2023.1.3,60.00207606319196,
140,0,140,0,,,,,,,,,,,,,,,,,,,,,,,,,,,,,,,,,,699.5584490999754,700.5830585999938,697.6191510999925,697.6191510999925,697.6191510999925,697.6191510999925,new_stationery_22.png,141,4.0,1.9313115999975707,,,072,00,2025-05-07_14h27.33.756,Surprise recog test,2023.1.3,60.00207606319196,
141,0,141,0,,,,,,,,,,,,,,,,,,,,,,,,,,,,,,,,,,703.025865499978,704.054316099995,700.5830585999938,700.5830585999938,700.5830585999938,700.5830585999938,old_fruit_25.png,142,3.0,2.443885400018189,,,072,00,2025-05-07_14h27.33.756,Surprise recog test,2023.1.3,60.00207606319196,
142,0,142,0,,,,,,,,,,,,,,,,,,,,,,,,,,,,,,,,,,706.3447043999913,707.3727701999887,704.054316099995,704.054316099995,704.054316099995,704.054316099995,old_sceneIn_35.png,143,3.0,2.293068700004369,,,072,00,2025-05-07_14h27.33.756,Surprise recog test,2023.1.3,60.00207606319196,
143,0,143,0,,,,,,,,,,,,,,,,,,,,,,,,,,,,,,,,,,709.4723388999992,710.4809483999852,707.3727701999887,707.3727701999887,707.3727701999887,707.3727701999887,new_stationery_48.png,144,4.0,2.100821200001519,,,072,00,2025-05-07_14h27.33.756,Surprise recog test,2023.1.3,60.00207606319196,
144,0,144,0,,,,,,,,,,,,,,,,,,,,,,,,,,,,,,,,,,712.1649507999828,713.1957559000002,710.4809483999852,710.4809483999852,710.4809483999852,710.4809483999852,old_sceneIn_17.png,145,3.0,1.6804788000008557,,,072,00,2025-05-07_14h27.33.756,Surprise recog test,2023.1.3,60.00207606319196,
145,0,145,0,,,,,,,,,,,,,,,,,,,,,,,,,,,,,,,,,,714.5412321999902,715.5628861000005,713.1957559000002,713.1957559000002,713.1957559000002,713.1957559000002,old_stationery_20.png,146,1.0,1.3467129999771714,,,072,00,2025-05-07_14h27.33.756,Surprise recog test,2023.1.3,60.00207606319196,
146,0,146,0,,,,,,,,,,,,,,,,,,,,,,,,,,,,,,,,,,717.6948626999801,718.715243899991,715.5628861000005,715.5628861000005,715.5628861000005,715.5628861000005,new_sceneIn_19.png,147,2.0,2.1338178999722004,,,072,00,2025-05-07_14h27.33.756,Surprise recog test,2023.1.3,60.00207606319196,
147,0,147,0,,,,,,,,,,,,,,,,,,,,,,,,,,,,,,,,,,720.0157601999817,721.0371201999951,718.715243899991,718.715243899991,718.715243899991,718.715243899991,old_stationery_6.png,148,1.0,1.3022998999804258,,,072,00,2025-05-07_14h27.33.756,Surprise recog test,2023.1.3,60.00207606319196,
148,0,148,0,,,,,,,,,,,,,,,,,,,,,,,,,,,,,,,,,,722.9410268999927,723.9731891999836,721.0371201999951,721.0371201999951,721.0371201999951,721.0371201999951,new_fruit_22.png,149,3.0,1.9076137999945786,,,072,00,2025-05-07_14h27.33.756,Surprise recog test,2023.1.3,60.00207606319196,
149,0,149,0,,,,,,,,,,,,,,,,,,,,,,,,,,,,,,,,,,725.2687726999866,726.2772824999993,723.9731891999836,723.9731891999836,723.9731891999836,723.9731891999836,new_sceneIn_40.png,150,3.0,1.295600800018292,,,072,00,2025-05-07_14h27.33.756,Surprise recog test,2023.1.3,60.00207606319196,
150,0,150,0,,,,,,,,,,,,,,,,,,,,,,,,,,,,,,,,,,728.273798499984,,726.2772824999993,726.2772824999993,726.2772824999993,726.2772824999993,old_sceneIn_40.png,151,3.0,1.9903556999925058,,,072,00,2025-05-07_14h27.33.756,Surprise recog test,2023.1.3,60.00207606319196,
151,0,151,0,,,,,,,,,,,,,,,,,,,,,,,,,,,,,,,,,,732.2307489999803,733.2502105000021,729.3051577000006,729.3051577000006,729.3051577000006,729.3051577000006,old_fruit_39.png,152,3.0,2.926313799980562,,,072,00,2025-05-07_14h27.33.756,Surprise recog test,2023.1.3,60.00207606319196,
152,0,152,0,,,,,,,,,,,,,,,,,,,,,,,,,,,,,,,,,,734.8861303000012,735.9017947999819,733.2502105000021,733.2502105000021,733.2502105000021,733.2502105000021,new_sceneOut_30.png,153,3.0,1.6297349999949802,,,072,00,2025-05-07_14h27.33.756,Surprise recog test,2023.1.3,60.00207606319196,
153,0,153,0,,,,,,,,,,,,,,,,,,,,,,,,,,,,,,,,,,739.3475190000026,740.3588839999866,735.9017947999819,735.9017947999819,735.9017947999819,735.9017947999819,new_fruit_49.png,154,3.0,3.4414616000140086,,,072,00,2025-05-07_14h27.33.756,Surprise recog test,2023.1.3,60.00207606319196,
154,0,154,0,,,,,,,,,,,,,,,,,,,,,,,,,,,,,,,,,,741.9121854999976,742.9334681999753,740.3588839999866,740.3588839999866,740.3588839999866,740.3588839999866,old_stationery_48.png,155,1.0,1.5492946000013035,,,072,00,2025-05-07_14h27.33.756,Surprise recog test,2023.1.3,60.00207606319196,
155,0,155,0,,,,,,,,,,,,,,,,,,,,,,,,,,,,,,,,,,744.6181870999862,745.6398311999801,742.9334681999753,742.9334681999753,742.9334681999753,742.9334681999753,new_fruit_16.png,156,4.0,1.685104100004537,,,072,00,2025-05-07_14h27.33.756,Surprise recog test,2023.1.3,60.00207606319196,
156,0,156,0,,,,,,,,,,,,,,,,,,,,,,,,,,,,,,,,,,747.6945230999845,748.7200293999922,745.6398311999801,745.6398311999801,745.6398311999801,745.6398311999801,old_fruit_44.png,157,4.0,2.057601100008469,,,072,00,2025-05-07_14h27.33.756,Surprise recog test,2023.1.3,60.00207606319196,
157,0,157,0,,,,,,,,,,,,,,,,,,,,,,,,,,,,,,,,,,750.5082702999935,751.5248318999948,748.7200293999922,748.7200293999922,748.7200293999922,748.7200293999922,new_stationery_15.png,158,4.0,1.7886281000101008,,,072,00,2025-05-07_14h27.33.756,Surprise recog test,2023.1.3,60.00207606319196,
158,0,158,0,,,,,,,,,,,,,,,,,,,,,,,,,,,,,,,,,,753.3982398999797,754.4277566999954,751.5248318999948,751.5248318999948,751.5248318999948,751.5248318999948,old_fruit_17.png,159,4.0,1.8749757999903522,,,072,00,2025-05-07_14h27.33.756,Surprise recog test,2023.1.3,60.00207606319196,
159,0,159,0,,,,,,,,,,,,,,,,,,,,,,,,,,,,,,,,,,756.0100223999762,757.0322296999802,754.4277566999954,754.4277566999954,754.4277566999954,754.4277566999954,old_sceneOut_21.png,160,5.0,1.5840766000037547,,,072,00,2025-05-07_14h27.33.756,Surprise recog test,2023.1.3,60.00207606319196,
160,0,160,0,,,,,,,,,,,,,,,,,,,,,,,,,,,,,,,,,,758.7605707999901,759.7824963000021,757.0322296999802,757.0322296999802,757.0322296999802,757.0322296999802,old_fruit_1.png,161,4.0,1.729380000004312,,,072,00,2025-05-07_14h27.33.756,Surprise recog test,2023.1.3,60.00207606319196,
161,0,161,0,,,,,,,,,,,,,,,,,,,,,,,,,,,,,,,,,,761.2223889000015,762.2490476999956,759.7824963000021,759.7824963000021,759.7824963000021,759.7824963000021,old_sceneOut_24.png,162,3.0,1.4414166000206023,,,072,00,2025-05-07_14h27.33.756,Surprise recog test,2023.1.3,60.00207606319196,
162,0,162,0,,,,,,,,,,,,,,,,,,,,,,,,,,,,,,,,,,764.0922196999891,765.1140668999869,762.2490476999956,762.2490476999956,762.2490476999956,762.2490476999956,old_sceneOut_22.png,163,4.0,1.8454612999921665,,,072,00,2025-05-07_14h27.33.756,Surprise recog test,2023.1.3,60.00207606319196,
163,0,163,0,,,,,,,,,,,,,,,,,,,,,,,,,,,,,,,,,,766.6866981999774,767.7065004999749,765.1140668999869,765.1140668999869,765.1140668999869,765.1140668999869,old_fruit_29.png,164,3.0,1.568380699987756,,,072,00,2025-05-07_14h27.33.756,Surprise recog test,2023.1.3,60.00207606319196,
164,0,164,0,,,,,,,,,,,,,,,,,,,,,,,,,,,,,,,,,,769.8268975999963,,767.7065004999749,767.7065004999749,767.7065004999749,767.7065004999749,old_sceneIn_6.png,165,5.0,2.123519800021313,,,072,00,2025-05-07_14h27.33.756,Surprise recog test,2023.1.3,60.00207606319196,
165,0,165,0,,,,,,,,,,,,,,,,,,,,,,,,,,,,,,,,,,773.4223147000012,774.4464795999811,770.8604015999881,770.8604015999881,770.8604015999881,770.8604015999881,new_stationery_50.png,166,4.0,2.5627071000053547,,,072,00,2025-05-07_14h27.33.756,Surprise recog test,2023.1.3,60.00207606319196,
166,0,166,0,,,,,,,,,,,,,,,,,,,,,,,,,,,,,,,,,,776.4653222999768,,774.4464795999811,774.4464795999811,774.4464795999811,774.4464795999811,old_stationery_19.png,167,1.0,2.0191322999889962,,,072,00,2025-05-07_14h27.33.756,Surprise recog test,2023.1.3,60.00207606319196,
167,0,167,0,,,,,,,,,,,,,,,,,,,,,,,,,,,,,,,,,,780.0251860999851,781.036611699994,777.4978752000025,777.4978752000025,777.4978752000025,777.4978752000025,new_sceneOut_25.png,168,4.0,2.527680600003805,,,072,00,2025-05-07_14h27.33.756,Surprise recog test,2023.1.3,60.00207606319196,
168,0,168,0,,,,,,,,,,,,,,,,,,,,,,,,,,,,,,,,,,782.1997618000023,783.2078145999985,781.036611699994,781.036611699994,781.036611699994,781.036611699994,new_sceneIn_4.png,169,4.0,1.160754899989115,,,072,00,2025-05-07_14h27.33.756,Surprise recog test,2023.1.3,60.00207606319196,
169,0,169,0,,,,,,,,,,,,,,,,,,,,,,,,,,,,,,,,,,784.8226207999978,,783.2078145999985,783.2078145999985,783.2078145999985,783.2078145999985,new_sceneOut_13.png,170,4.0,1.6111428999865893,,,072,00,2025-05-07_14h27.33.756,Surprise recog test,2023.1.3,60.00207606319196,
170,0,170,0,,,,,,,,,,,,,,,,,,,,,,,,,,,,,,,,,,787.3461550999782,788.3751718999993,785.8497394000005,785.8497394000005,785.8497394000005,785.8497394000005,new_fruit_24.png,171,4.0,1.4940298000001349,,,072,00,2025-05-07_14h27.33.756,Surprise recog test,2023.1.3,60.00207606319196,
171,0,171,0,,,,,,,,,,,,,,,,,,,,,,,,,,,,,,,,,,790.2404725999804,791.2594184999762,788.3751718999993,788.3751718999993,788.3751718999993,788.3751718999993,new_stationery_19.png,172,5.0,1.8671024000213947,,,072,00,2025-05-07_14h27.33.756,Surprise recog test,2023.1.3,60.00207606319196,
172,0,172,0,,,,,,,,,,,,,,,,,,,,,,,,,,,,,,,,,,792.7582276999892,793.7811947999871,791.2594184999762,791.2594184999762,791.2594184999762,791.2594184999762,new_stationery_8.png,173,5.0,1.4947814000188373,,,072,00,2025-05-07_14h27.33.756,Surprise recog test,2023.1.3,60.00207606319196,
173,0,173,0,,,,,,,,,,,,,,,,,,,,,,,,,,,,,,,,,,795.507300199999,796.5299163000018,793.7811947999871,793.7811947999871,793.7811947999871,793.7811947999871,old_sceneOut_30.png,174,4.0,1.7295241999963764,,,072,00,2025-05-07_14h27.33.756,Surprise recog test,2023.1.3,60.00207606319196,
174,0,174,0,,,,,,,,,,,,,,,,,,,,,,,,,,,,,,,,,,797.377107999986,798.3981631999777,796.5299163000018,796.5299163000018,796.5299163000018,796.5299163000018,old_sceneOut_27.png,175,4.0,0.8490079999901354,,,072,00,2025-05-07_14h27.33.756,Surprise recog test,2023.1.3,60.00207606319196,
175,0,175,0,,,,,,,,,,,,,,,,,,,,,,,,,,,,,,,,,,799.9308137999906,800.9492525999958,798.3981631999777,798.3981631999777,798.3981631999777,798.3981631999777,old_sceneOut_40.png,176,3.0,1.5310490000119898,,,072,00,2025-05-07_14h27.33.756,Surprise recog test,2023.1.3,60.00207606319196,
176,0,176,0,,,,,,,,,,,,,,,,,,,,,,,,,,,,,,,,,,802.1828068999748,803.2052596999856,800.9492525999958,800.9492525999958,800.9492525999958,800.9492525999958,old_sceneIn_30.png,177,3.0,1.2280412000254728,,,072,00,2025-05-07_14h27.33.756,Surprise recog test,2023.1.3,60.00207606319196,
177,0,177,0,,,,,,,,,,,,,,,,,,,,,,,,,,,,,,,,,,804.9426561,805.9717365999823,803.2052596999856,803.2052596999856,803.2052596999856,803.2052596999856,new_sceneOut_45.png,178,4.0,1.7416929999890272,,,072,00,2025-05-07_14h27.33.756,Surprise recog test,2023.1.3,60.00207606319196,
178,0,178,0,,,,,,,,,,,,,,,,,,,,,,,,,,,,,,,,,,808.3156539999763,809.3407215999905,805.9717365999823,805.9717365999823,805.9717365999823,805.9717365999823,old_fruit_10.png,179,2.0,2.3463891000137664,,,072,00,2025-05-07_14h27.33.756,Surprise recog test,2023.1.3,60.00207606319196,
179,0,179,0,,,,,,,,,,,,,,,,,,,,,,,,,,,,,,,,,,810.750034800003,811.7786828999815,809.3407215999905,809.3407215999905,809.3407215999905,809.3407215999905,old_sceneOut_45.png,180,4.0,1.4110064000124112,,,072,00,2025-05-07_14h27.33.756,Surprise recog test,2023.1.3,60.00207606319196,
180,0,180,0,,,,,,,,,,,,,,,,,,,,,,,,,,,,,,,,,,813.4420552999945,814.4618084999966,811.7786828999815,811.7786828999815,811.7786828999815,811.7786828999815,new_sceneIn_43.png,181,5.0,1.6636327999876812,,,072,00,2025-05-07_14h27.33.756,Surprise recog test,2023.1.3,60.00207606319196,
181,0,181,0,,,,,,,,,,,,,,,,,,,,,,,,,,,,,,,,,,816.0101775999938,817.0307375999982,814.4618084999966,814.4618084999966,814.4618084999966,814.4618084999966,new_sceneOut_26.png,182,4.0,1.5481984000070952,,,072,00,2025-05-07_14h27.33.756,Surprise recog test,2023.1.3,60.00207606319196,
182,0,182,0,,,,,,,,,,,,,,,,,,,,,,,,,,,,,,,,,,820.2477254999976,821.2685691999795,817.0307375999982,817.0307375999982,817.0307375999982,817.0307375999982,new_sceneOut_15.png,183,3.0,3.2140566000016406,,,072,00,2025-05-07_14h27.33.756,Surprise recog test,2023.1.3,60.00207606319196,
183,0,183,0,,,,,,,,,,,,,,,,,,,,,,,,,,,,,,,,,,822.7382679999864,823.7705057999992,821.2685691999795,821.2685691999795,821.2685691999795,821.2685691999795,old_stationery_35.png,184,1.0,1.4718722999969032,,,072,00,2025-05-07_14h27.33.756,Surprise recog test,2023.1.3,60.00207606319196,
184,0,184,0,,,,,,,,,,,,,,,,,,,,,,,,,,,,,,,,,,825.4770990999823,826.4986485999834,823.7705057999992,823.7705057999992,823.7705057999992,823.7705057999992,old_stationery_9.png,185,4.0,1.7094325000070967,,,072,00,2025-05-07_14h27.33.756,Surprise recog test,2023.1.3,60.00207606319196,
185,0,185,0,,,,,,,,,,,,,,,,,,,,,,,,,,,,,,,,,,828.4095404999971,829.44303699999,826.4986485999834,826.4986485999834,826.4986485999834,826.4986485999834,new_sceneOut_21.png,186,2.0,1.9093810000049416,,,072,00,2025-05-07_14h27.33.756,Surprise recog test,2023.1.3,60.00207606319196,
186,0,186,0,,,,,,,,,,,,,,,,,,,,,,,,,,,,,,,,,,830.9879862999951,831.9991459999874,829.44303699999,829.44303699999,829.44303699999,829.44303699999,new_fruit_35.png,187,4.0,1.5477017000084743,,,072,00,2025-05-07_14h27.33.756,Surprise recog test,2023.1.3,60.00207606319196,
187,0,187,0,,,,,,,,,,,,,,,,,,,,,,,,,,,,,,,,,,833.6659909999871,834.6974060999928,831.9991459999874,831.9991459999874,831.9991459999874,831.9991459999874,new_fruit_6.png,188,3.0,1.6616404000087641,,,072,00,2025-05-07_14h27.33.756,Surprise recog test,2023.1.3,60.00207606319196,
188,0,188,0,,,,,,,,,,,,,,,,,,,,,,,,,,,,,,,,,,836.4744173999934,837.4980267999927,834.6974060999928,834.6974060999928,834.6974060999928,834.6974060999928,old_stationery_3.png,189,1.0,1.7796713999996427,,,072,00,2025-05-07_14h27.33.756,Surprise recog test,2023.1.3,60.00207606319196,
189,0,189,0,,,,,,,,,,,,,,,,,,,,,,,,,,,,,,,,,,838.9624012999993,839.9820338999853,837.4980267999927,837.4980267999927,837.4980267999927,837.4980267999927,old_stationery_15.png,190,1.0,1.46622760000173,,,072,00,2025-05-07_14h27.33.756,Surprise recog test,2023.1.3,60.00207606319196,
190,0,190,0,,,,,,,,,,,,,,,,,,,,,,,,,,,,,,,,,,841.6620746999979,842.6799664999999,839.9820338999853,839.9820338999853,839.9820338999853,839.9820338999853,old_stationery_27.png,191,2.0,1.6792189000116196,,,072,00,2025-05-07_14h27.33.756,Surprise recog test,2023.1.3,60.00207606319196,
191,0,191,0,,,,,,,,,,,,,,,,,,,,,,,,,,,,,,,,,,844.2564100000018,845.287661099981,842.6799664999999,842.6799664999999,842.6799664999999,842.6799664999999,old_sceneOut_6.png,192,3.0,1.5766592999862041,,,072,00,2025-05-07_14h27.33.756,Surprise recog test,2023.1.3,60.00207606319196,
192,0,192,0,,,,,,,,,,,,,,,,,,,,,,,,,,,,,,,,,,847.1707875999855,848.1926624999905,845.287661099981,845.287661099981,845.287661099981,845.287661099981,old_sceneIn_16.png,193,5.0,1.8854584000073373,,,072,00,2025-05-07_14h27.33.756,Surprise recog test,2023.1.3,60.00207606319196,
193,0,193,0,,,,,,,,,,,,,,,,,,,,,,,,,,,,,,,,,,851.6427456999954,,848.1926624999905,848.1926624999905,848.1926624999905,848.1926624999905,new_stationery_12.png,194,4.0,3.4520976000058,,,072,00,2025-05-07_14h27.33.756,Surprise recog test,2023.1.3,60.00207606319196,
194,0,194,0,,,,,,,,,,,,,,,,,,,,,,,,,,,,,,,,,,854.215019299998,855.2311540999799,852.668603899976,852.668603899976,852.668603899976,852.668603899976,old_fruit_7.png,195,2.0,1.5467635999957565,,,072,00,2025-05-07_14h27.33.756,Surprise recog test,2023.1.3,60.00207606319196,
195,0,195,0,,,,,,,,,,,,,,,,,,,,,,,,,,,,,,,,,,856.660308999999,857.6784366999927,855.2311540999799,855.2311540999799,855.2311540999799,855.2311540999799,old_fruit_4.png,196,2.0,1.4231417000119109,,,072,00,2025-05-07_14h27.33.756,Surprise recog test,2023.1.3,60.00207606319196,
196,0,196,0,,,,,,,,,,,,,,,,,,,,,,,,,,,,,,,,,,859.6400202999939,860.663396399992,857.6784366999927,857.6784366999927,857.6784366999927,857.6784366999927,new_sceneOut_4.png,197,4.0,1.9636949000123423,,,072,00,2025-05-07_14h27.33.756,Surprise recog test,2023.1.3,60.00207606319196,
197,0,197,0,,,,,,,,,,,,,,,,,,,,,,,,,,,,,,,,,,862.2659625999804,863.2753645999765,860.663396399992,860.663396399992,860.663396399992,860.663396399992,new_fruit_31.png,198,3.0,1.6024686000018846,,,072,00,2025-05-07_14h27.33.756,Surprise recog test,2023.1.3,60.00207606319196,
198,0,198,0,,,,,,,,,,,,,,,,,,,,,,,,,,,,,,,,,,865.2684528999962,866.2738030999899,863.2753645999765,863.2753645999765,863.2753645999765,863.2753645999765,new_fruit_23.png,199,3.0,1.9861421000096016,,,072,00,2025-05-07_14h27.33.756,Surprise recog test,2023.1.3,60.00207606319196,
199,0,199,0,,,,,,,,,,,,,,,,,,,,,,,,,,,,,,,,,,868.8546786999796,869.8591850999801,866.2738030999899,866.2738030999899,866.2738030999899,866.2738030999899,new_sceneOut_48.png,200,3.0,2.5714063000050373,,,072,00,2025-05-07_14h27.33.756,Surprise recog test,2023.1.3,60.00207606319196,
200,0,200,0,,,,,,,,,,,,,,,,,,,,,,,,,,,,,,,,,,871.7405064999766,872.7454947999795,869.8591850999801,869.8591850999801,869.8591850999801,869.8591850999801,new_stationery_10.png,201,4.0,1.871076900017215,,,072,00,2025-05-07_14h27.33.756,Surprise recog test,2023.1.3,60.00207606319196,
201,0,201,0,,,,,,,,,,,,,,,,,,,,,,,,,,,,,,,,,,876.3276214999787,877.3321547999803,872.7454947999795,872.7454947999795,872.7454947999795,872.7454947999795,new_sceneIn_16.png,202,4.0,3.5724124000116717,,,072,00,2025-05-07_14h27.33.756,Surprise recog test,2023.1.3,60.00207606319196,
202,0,202,0,,,,,,,,,,,,,,,,,,,,,,,,,,,,,,,,,,879.0465220999904,880.05263619998,877.3321547999803,877.3321547999803,877.3321547999803,877.3321547999803,old_fruit_9.png,203,3.0,1.7038982000085525,,,072,00,2025-05-07_14h27.33.756,Surprise recog test,2023.1.3,60.00207606319196,
203,0,203,0,,,,,,,,,,,,,,,,,,,,,,,,,,,,,,,,,,881.8323622999887,882.8366805999831,880.05263619998,880.05263619998,880.05263619998,880.05263619998,old_stationery_11.png,204,4.0,1.7695971000066493,,,072,00,2025-05-07_14h27.33.756,Surprise recog test,2023.1.3,60.00207606319196,
204,0,204,0,,,,,,,,,,,,,,,,,,,,,,,,,,,,,,,,,,885.3850785999966,886.390113499976,882.8366805999831,882.8366805999831,882.8366805999831,882.8366805999831,new_stationery_21.png,205,5.0,2.5377199000213295,,,072,00,2025-05-07_14h27.33.756,Surprise recog test,2023.1.3,60.00207606319196,
205,0,205,0,,,,,,,,,,,,,,,,,,,,,,,,,,,,,,,,,,888.7212133999856,889.7265356999997,886.390113499976,886.390113499976,886.390113499976,886.390113499976,old_fruit_40.png,206,4.0,2.321234300005017,,,072,00,2025-05-07_14h27.33.756,Surprise recog test,2023.1.3,60.00207606319196,
206,0,206,0,,,,,,,,,,,,,,,,,,,,,,,,,,,,,,,,,,891.0732194999873,892.0795205999748,889.7265356999997,889.7265356999997,889.7265356999997,889.7265356999997,new_sceneOut_39.png,207,4.0,1.337128599989228,,,072,00,2025-05-07_14h27.33.756,Surprise recog test,2023.1.3,60.00207606319196,
207,0,207,0,,,,,,,,,,,,,,,,,,,,,,,,,,,,,,,,,,894.2425042999967,895.2465635999979,892.0795205999748,892.0795205999748,892.0795205999748,892.0795205999748,old_sceneIn_20.png,208,5.0,2.154251200001454,,,072,00,2025-05-07_14h27.33.756,Surprise recog test,2023.1.3,60.00207606319196,
208,0,208,0,,,,,,,,,,,,,,,,,,,,,,,,,,,,,,,,,,897.5952274999872,898.6000044999819,895.2465635999979,895.2465635999979,895.2465635999979,895.2465635999979,new_stationery_47.png,209,3.0,2.3376846999744885,,,072,00,2025-05-07_14h27.33.756,Surprise recog test,2023.1.3,60.00207606319196,
209,0,209,0,,,,,,,,,,,,,,,,,,,,,,,,,,,,,,,,,,900.2141048999911,901.2196425999864,898.6000044999819,898.6000044999819,898.6000044999819,898.6000044999819,new_stationery_45.png,210,4.0,1.6037084000126924,,,072,00,2025-05-07_14h27.33.756,Surprise recog test,2023.1.3,60.00207606319196,
210,0,210,0,,,,,,,,,,,,,,,,,,,,,,,,,,,,,,,,,,902.9496722999902,903.954207599978,901.2196425999864,901.2196425999864,901.2196425999864,901.2196425999864,new_stationery_38.png,211,4.0,1.7217790999857243,,,072,00,2025-05-07_14h27.33.756,Surprise recog test,2023.1.3,60.00207606319196,
211,0,211,0,,,,,,,,,,,,,,,,,,,,,,,,,,,,,,,,,,905.2515830999764,906.2570075999829,903.954207599978,903.954207599978,903.954207599978,903.954207599978,old_fruit_34.png,212,3.0,1.2869627000181936,,,072,00,2025-05-07_14h27.33.756,Surprise recog test,2023.1.3,60.00207606319196,
212,0,212,0,,,,,,,,,,,,,,,,,,,,,,,,,,,,,,,,,,908.1207826999889,909.1264633999963,906.2570075999829,906.2570075999829,906.2570075999829,906.2570075999829,old_fruit_24.png,213,2.0,1.853801100020064,,,072,00,2025-05-07_14h27.33.756,Surprise recog test,2023.1.3,60.00207606319196,
213,0,213,0,,,,,,,,,,,,,,,,,,,,,,,,,,,,,,,,,,910.6062610999797,911.6157814999751,909.1264633999963,909.1264633999963,909.1264633999963,909.1264633999963,old_sceneIn_3.png,214,3.0,1.4739234000153374,,,072,00,2025-05-07_14h27.33.756,Surprise recog test,2023.1.3,60.00207606319196,
214,0,214,0,,,,,,,,,,,,,,,,,,,,,,,,,,,,,,,,,,914.1758834999928,915.1914554999967,911.6157814999751,911.6157814999751,911.6157814999751,911.6157814999751,old_stationery_36.png,215,3.0,2.5591295000049286,,,072,00,2025-05-07_14h27.33.756,Surprise recog test,2023.1.3,60.00207606319196,
215,0,215,0,,,,,,,,,,,,,,,,,,,,,,,,,,,,,,,,,,917.3752656999859,918.3980987999821,915.1914554999967,915.1914554999967,915.1914554999967,915.1914554999967,old_sceneIn_12.png,216,3.0,2.182848499971442,,,072,00,2025-05-07_14h27.33.756,Surprise recog test,2023.1.3,60.00207606319196,
216,0,216,0,,,,,,,,,,,,,,,,,,,,,,,,,,,,,,,,,,919.9895431999757,921.0016275999951,918.3980987999821,918.3980987999821,918.3980987999821,918.3980987999821,old_sceneOut_12.png,217,4.0,1.5933747999952175,,,072,00,2025-05-07_14h27.33.756,Surprise recog test,2023.1.3,60.00207606319196,
217,0,217,0,,,,,,,,,,,,,,,,,,,,,,,,,,,,,,,,,,922.3159440000018,923.3365855999873,921.0016275999951,921.0016275999951,921.0016275999951,921.0016275999951,new_stationery_6.png,218,4.0,1.305751899984898,,,072,00,2025-05-07_14h27.33.756,Surprise recog test,2023.1.3,60.00207606319196,
218,0,218,0,,,,,,,,,,,,,,,,,,,,,,,,,,,,,,,,,,924.3604723000026,925.3864150999871,923.3365855999873,923.3365855999873,923.3365855999873,923.3365855999873,new_sceneOut_29.png,219,4.0,1.0250917000230402,,,072,00,2025-05-07_14h27.33.756,Surprise recog test,2023.1.3,60.00207606319196,
219,0,219,0,,,,,,,,,,,,,,,,,,,,,,,,,,,,,,,,,,926.8978728999791,927.9221514999808,925.3864150999871,925.3864150999871,925.3864150999871,925.3864150999871,old_fruit_42.png,220,3.0,1.5112255999993067,,,072,00,2025-05-07_14h27.33.756,Surprise recog test,2023.1.3,60.00207606319196,
220,0,220,0,,,,,,,,,,,,,,,,,,,,,,,,,,,,,,,,,,929.5553023999964,930.5732068999787,927.9221514999808,927.9221514999808,927.9221514999808,927.9221514999808,new_sceneOut_23.png,221,5.0,1.6294232000072952,,,072,00,2025-05-07_14h27.33.756,Surprise recog test,2023.1.3,60.00207606319196,
221,0,221,0,,,,,,,,,,,,,,,,,,,,,,,,,,,,,,,,,,931.7081107999838,932.7297212999838,930.5732068999787,930.5732068999787,930.5732068999787,930.5732068999787,old_sceneIn_46.png,222,5.0,1.1359013000037521,,,072,00,2025-05-07_14h27.33.756,Surprise recog test,2023.1.3,60.00207606319196,
222,0,222,0,,,,,,,,,,,,,,,,,,,,,,,,,,,,,,,,,,934.9447830999852,935.9611149999837,932.7297212999838,932.7297212999838,932.7297212999838,932.7297212999838,old_sceneIn_34.png,223,3.0,2.218346300011035,,,072,00,2025-05-07_14h27.33.756,Surprise recog test,2023.1.3,60.00207606319196,
223,0,223,0,,,,,,,,,,,,,,,,,,,,,,,,,,,,,,,,,,937.3283847999992,938.3495579999872,935.9611149999837,935.9611149999837,935.9611149999837,935.9611149999837,old_fruit_12.png,224,3.0,1.363539000012679,,,072,00,2025-05-07_14h27.33.756,Surprise recog test,2023.1.3,60.00207606319196,
224,0,224,0,,,,,,,,,,,,,,,,,,,,,,,,,,,,,,,,,,940.213047199999,941.229529299977,938.3495579999872,938.3495579999872,938.3495579999872,938.3495579999872,old_stationery_21.png,225,1.0,1.8657333999872208,,,072,00,2025-05-07_14h27.33.756,Surprise recog test,2023.1.3,60.00207606319196,
225,0,225,0,,,,,,,,,,,,,,,,,,,,,,,,,,,,,,,,,,943.4261952999805,944.4525304999843,941.229529299977,941.229529299977,941.229529299977,941.229529299977,old_stationery_39.png,226,3.0,2.196851099986816,,,072,00,2025-05-07_14h27.33.756,Surprise recog test,2023.1.3,60.00207606319196,
226,0,226,0,,,,,,,,,,,,,,,,,,,,,,,,,,,,,,,,,,946.3792262999923,947.4044570999977,944.4525304999843,944.4525304999843,944.4525304999843,944.4525304999843,new_stationery_35.png,227,2.0,1.9290043000073638,,,072,00,2025-05-07_14h27.33.756,Surprise recog test,2023.1.3,60.00207606319196,
227,0,227,0,,,,,,,,,,,,,,,,,,,,,,,,,,,,,,,,,,948.7825825999898,949.8094185999944,947.4044570999977,947.4044570999977,947.4044570999977,947.4044570999977,old_stationery_31.png,228,2.0,1.37764540000353,,,072,00,2025-05-07_14h27.33.756,Surprise recog test,2023.1.3,60.00207606319196,
228,0,228,0,,,,,,,,,,,,,,,,,,,,,,,,,,,,,,,,,,951.3158057999972,952.3432259999972,949.8094185999944,949.8094185999944,949.8094185999944,949.8094185999944,old_sceneIn_36.png,229,4.0,1.5094377999776043,,,072,00,2025-05-07_14h27.33.756,Surprise recog test,2023.1.3,60.00207606319196,
229,0,229,0,,,,,,,,,,,,,,,,,,,,,,,,,,,,,,,,,,953.3362944999826,954.3606284999987,952.3432259999972,952.3432259999972,952.3432259999972,952.3432259999972,new_sceneOut_22.png,230,4.0,0.9961119999934454,,,072,00,2025-05-07_14h27.33.756,Surprise recog test,2023.1.3,60.00207606319196,
230,0,230,0,,,,,,,,,,,,,,,,,,,,,,,,,,,,,,,,,,955.828327700001,956.8442055999767,954.3606284999987,954.3606284999987,954.3606284999987,954.3606284999987,old_sceneIn_39.png,231,3.0,1.4684897999977693,,,072,00,2025-05-07_14h27.33.756,Surprise recog test,2023.1.3,60.00207606319196,
231,0,231,0,,,,,,,,,,,,,,,,,,,,,,,,,,,,,,,,,,958.1982523999759,,956.8442055999767,956.8442055999767,956.8442055999767,956.8442055999767,new_sceneOut_7.png,232,4.0,1.3563936999998987,,,072,00,2025-05-07_14h27.33.756,Surprise recog test,2023.1.3,60.00207606319196,
232,0,232,0,,,,,,,,,,,,,,,,,,,,,,,,,,,,,,,,,,960.8170332000009,,959.23134139998,959.23134139998,959.23134139998,959.23134139998,new_fruit_11.png,233,4.0,1.5852815999824088,,,072,00,2025-05-07_14h27.33.756,Surprise recog test,2023.1.3,60.00207606319196,
233,0,233,0,,,,,,,,,,,,,,,,,,,,,,,,,,,,,,,,,,963.9410332999832,964.9674272999982,961.8388935999828,961.8388935999828,961.8388935999828,961.8388935999828,old_sceneIn_8.png,234,5.0,2.098330300010275,,,072,00,2025-05-07_14h27.33.756,Surprise recog test,2023.1.3,60.00207606319196,
234,0,234,0,,,,,,,,,,,,,,,,,,,,,,,,,,,,,,,,,,966.5424825999944,967.5604976999748,964.9674272999982,964.9674272999982,964.9674272999982,964.9674272999982,new_fruit_39.png,235,4.0,1.5766443000175059,,,072,00,2025-05-07_14h27.33.756,Surprise recog test,2023.1.3,60.00207606319196,
235,0,235,0,,,,,,,,,,,,,,,,,,,,,,,,,,,,,,,,,,969.3432804999757,970.3747026999772,967.5604976999748,967.5604976999748,967.5604976999748,967.5604976999748,old_sceneIn_4.png,236,2.0,1.7787641000177246,,,072,00,2025-05-07_14h27.33.756,Surprise recog test,2023.1.3,60.00207606319196,
236,0,236,0,,,,,,,,,,,,,,,,,,,,,,,,,,,,,,,,,,971.7430444999773,,970.3747026999772,970.3747026999772,970.3747026999772,970.3747026999772,new_sceneOut_42.png,237,4.0,1.3708214000216685,,,072,00,2025-05-07_14h27.33.756,Surprise recog test,2023.1.3,60.00207606319196,
237,0,237,0,,,,,,,,,,,,,,,,,,,,,,,,,,,,,,,,,,974.0753899999836,975.0976090999902,972.7648124999832,972.7648124999832,972.7648124999832,972.7648124999832,old_fruit_22.png,238,3.0,1.3060274999879766,,,072,00,2025-05-07_14h27.33.756,Surprise recog test,2023.1.3,60.00207606319196,
238,0,238,0,,,,,,,,,,,,,,,,,,,,,,,,,,,,,,,,,,976.8777446000022,977.8974692999909,975.0976090999902,975.0976090999902,975.0976090999902,975.0976090999902,old_sceneIn_1.png,239,4.0,1.7828992999857292,,,072,00,2025-05-07_14h27.33.756,Surprise recog test,2023.1.3,60.00207606319196,
239,0,239,0,,,,,,,,,,,,,,,,,,,,,,,,,,,,,,,,,,979.8308120000002,980.8404455999844,977.8974692999909,977.8974692999909,977.8974692999909,977.8974692999909,old_stationery_34.png,240,4.0,1.9354709000035655,,,072,00,2025-05-07_14h27.33.756,Surprise recog test,2023.1.3,60.00207606319196,
240,0,240,0,,,,,,,,,,,,,,,,,,,,,,,,,,,,,,,,,,982.3589751999825,983.3730017999769,980.8404455999844,980.8404455999844,980.8404455999844,980.8404455999844,new_fruit_25.png,241,2.0,1.5180762999807484,,,072,00,2025-05-07_14h27.33.756,Surprise recog test,2023.1.3,60.00207606319196,
241,0,241,0,,,,,,,,,,,,,,,,,,,,,,,,,,,,,,,,,,985.0584630999947,986.0898071999836,983.3730017999769,983.3730017999769,983.3730017999769,983.3730017999769,new_sceneOut_14.png,242,4.0,1.6806237999990117,,,072,00,2025-05-07_14h27.33.756,Surprise recog test,2023.1.3,60.00207606319196,
242,0,242,0,,,,,,,,,,,,,,,,,,,,,,,,,,,,,,,,,,987.1864310999808,988.2060046999832,986.0898071999836,986.0898071999836,986.0898071999836,986.0898071999836,new_sceneOut_20.png,243,4.0,1.0977425000164658,,,072,00,2025-05-07_14h27.33.756,Surprise recog test,2023.1.3,60.00207606319196,
243,0,243,0,,,,,,,,,,,,,,,,,,,,,,,,,,,,,,,,,,989.192848799983,990.2175898999849,988.2060046999832,988.2060046999832,988.2060046999832,988.2060046999832,new_sceneIn_6.png,244,4.0,0.9884714999934658,,,072,00,2025-05-07_14h27.33.756,Surprise recog test,2023.1.3,60.00207606319196,
244,0,244,0,,,,,,,,,,,,,,,,,,,,,,,,,,,,,,,,,,992.4624174999772,993.4931422999944,990.2175898999849,990.2175898999849,990.2175898999849,990.2175898999849,old_stationery_24.png,245,3.0,2.2455967999994755,,,072,00,2025-05-07_14h27.33.756,Surprise recog test,2023.1.3,60.00207606319196,
245,0,245,0,,,,,,,,,,,,,,,,,,,,,,,,,,,,,,,,,,995.0362599999935,996.0600806000002,993.4931422999944,993.4931422999944,993.4931422999944,993.4931422999944,new_sceneOut_43.png,246,5.0,1.5440641000168398,,,072,00,2025-05-07_14h27.33.756,Surprise recog test,2023.1.3,60.00207606319196,
246,0,246,0,,,,,,,,,,,,,,,,,,,,,,,,,,,,,,,,,,997.3776888999855,998.4007049999782,996.0600806000002,996.0600806000002,996.0600806000002,996.0600806000002,new_stationery_29.png,247,5.0,1.3198372999904677,,,072,00,2025-05-07_14h27.33.756,Surprise recog test,2023.1.3,60.00207606319196,
247,0,247,0,,,,,,,,,,,,,,,,,,,,,,,,,,,,,,,,,,999.9158740999992,,998.4007049999782,998.4007049999782,998.4007049999782,998.4007049999782,old_sceneOut_4.png,248,4.0,1.5165390000038315,,,072,00,2025-05-07_14h27.33.756,Surprise recog test,2023.1.3,60.00207606319196,
248,0,248,0,,,,,,,,,,,,,,,,,,,,,,,,,,,,,,,,,,1002.4699229999969,,1000.9447020999796,1000.9447020999796,1000.9447020999796,1000.9447020999796,old_fruit_36.png,249,3.0,1.5225254999822937,,,072,00,2025-05-07_14h27.33.756,Surprise recog test,2023.1.3,60.00207606319196,
249,0,249,0,,,,,,,,,,,,,,,,,,,,,,,,,,,,,,,,,,1006.7495612999774,1007.7590450999851,1003.4996180000016,1003.4996180000016,1003.4996180000016,1003.4996180000016,old_stationery_16.png,250,3.0,3.2515703000244685,,,072,00,2025-05-07_14h27.33.756,Surprise recog test,2023.1.3,60.00207606319196,
250,0,250,0,,,,,,,,,,,,,,,,,,,,,,,,,,,,,,,,,,1010.2456469000026,1011.2760095999984,1007.7590450999851,1007.7590450999851,1007.7590450999851,1007.7590450999851,new_fruit_42.png,251,4.0,2.483370099973399,,,072,00,2025-05-07_14h27.33.756,Surprise recog test,2023.1.3,60.00207606319196,
251,0,251,0,,,,,,,,,,,,,,,,,,,,,,,,,,,,,,,,,,1013.1749369000026,1014.1799467999954,1011.2760095999984,1011.2760095999984,1011.2760095999984,1011.2760095999984,new_sceneIn_22.png,252,4.0,1.8948679999739397,,,072,00,2025-05-07_14h27.33.756,Surprise recog test,2023.1.3,60.00207606319196,
252,0,252,0,,,,,,,,,,,,,,,,,,,,,,,,,,,,,,,,,,1015.8559453999915,1016.8689035999996,1014.1799467999954,1014.1799467999954,1014.1799467999954,1014.1799467999954,old_sceneOut_34.png,253,2.0,1.6729593999916688,,,072,00,2025-05-07_14h27.33.756,Surprise recog test,2023.1.3,60.00207606319196,
253,0,253,0,,,,,,,,,,,,,,,,,,,,,,,,,,,,,,,,,,1018.8295285999775,1019.8372530999768,1016.8689035999996,1016.8689035999996,1016.8689035999996,1016.8689035999996,new_sceneIn_15.png,254,4.0,1.9542972999915946,,,072,00,2025-05-07_14h27.33.756,Surprise recog test,2023.1.3,60.00207606319196,
254,0,254,0,,,,,,,,,,,,,,,,,,,,,,,,,,,,,,,,,,1023.6958542999928,1024.7085307999805,1019.8372530999768,1019.8372530999768,1019.8372530999768,1019.8372530999768,old_sceneIn_25.png,255,3.0,3.8547906999883708,,,072,00,2025-05-07_14h27.33.756,Surprise recog test,2023.1.3,60.00207606319196,
255,0,255,0,,,,,,,,,,,,,,,,,,,,,,,,,,,,,,,,,,1026.0575863999838,1027.0884501999826,1024.7085307999805,1024.7085307999805,1024.7085307999805,1024.7085307999805,old_sceneOut_2.png,256,3.0,1.3451611000054982,,,072,00,2025-05-07_14h27.33.756,Surprise recog test,2023.1.3,60.00207606319196,
256,0,256,0,,,,,,,,,,,,,,,,,,,,,,,,,,,,,,,,,,1029.2108808999765,1030.2398276999884,1027.0884501999826,1027.0884501999826,1027.0884501999826,1027.0884501999826,old_stationery_47.png,257,2.0,2.122807199979434,,,072,00,2025-05-07_14h27.33.756,Surprise recog test,2023.1.3,60.00207606319196,
257,0,257,0,,,,,,,,,,,,,,,,,,,,,,,,,,,,,,,,,,1032.7131580999994,1033.7394247999764,1030.2398276999884,1030.2398276999884,1030.2398276999884,1030.2398276999884,old_fruit_5.png,258,4.0,2.4740168999996968,,,072,00,2025-05-07_14h27.33.756,Surprise recog test,2023.1.3,60.00207606319196,
258,0,258,0,,,,,,,,,,,,,,,,,,,,,,,,,,,,,,,,,,1037.5870444999891,1038.6077155999956,1033.7394247999764,1033.7394247999764,1033.7394247999764,1033.7394247999764,old_stationery_25.png,259,3.0,3.8480264999961946,,,072,00,2025-05-07_14h27.33.756,Surprise recog test,2023.1.3,60.00207606319196,
259,0,259,0,,,,,,,,,,,,,,,,,,,,,,,,,,,,,,,,,,1040.0482434000005,1041.053892099997,1038.6077155999956,1038.6077155999956,1038.6077155999956,1038.6077155999956,old_sceneOut_26.png,260,4.0,1.4387888999772258,,,072,00,2025-05-07_14h27.33.756,Surprise recog test,2023.1.3,60.00207606319196,
260,0,260,0,,,,,,,,,,,,,,,,,,,,,,,,,,,,,,,,,,1043.3360524000018,,1041.053892099997,1041.053892099997,1041.053892099997,1041.053892099997,old_stationery_17.png,261,3.0,2.277489300002344,,,072,00,2025-05-07_14h27.33.756,Surprise recog test,2023.1.3,60.00207606319196,
261,0,261,0,,,,,,,,,,,,,,,,,,,,,,,,,,,,,,,,,,1045.5182929000002,1046.5270527999965,1044.357500699989,1044.357500699989,1044.357500699989,1044.357500699989,old_fruit_50.png,262,3.0,1.1508435000141617,,,072,00,2025-05-07_14h27.33.756,Surprise recog test,2023.1.3,60.00207606319196,
262,0,262,0,,,,,,,,,,,,,,,,,,,,,,,,,,,,,,,,,,1048.014286199992,1049.043783399975,1046.5270527999965,1046.5270527999965,1046.5270527999965,1046.5270527999965,old_sceneOut_14.png,263,4.0,1.4833630000066478,,,072,00,2025-05-07_14h27.33.756,Surprise recog test,2023.1.3,60.00207606319196,
263,0,263,0,,,,,,,,,,,,,,,,,,,,,,,,,,,,,,,,,,1051.2212169999839,1052.2385929999873,1049.043783399975,1049.043783399975,1049.043783399975,1049.043783399975,new_fruit_9.png,264,3.0,2.179817500000354,,,072,00,2025-05-07_14h27.33.756,Surprise recog test,2023.1.3,60.00207606319196,
264,0,264,0,,,,,,,,,,,,,,,,,,,,,,,,,,,,,,,,,,1053.9263882999949,1054.944101399975,1052.2385929999873,1052.2385929999873,1052.2385929999873,1052.2385929999873,new_fruit_7.png,265,4.0,1.6878119000175502,,,072,00,2025-05-07_14h27.33.756,Surprise recog test,2023.1.3,60.00207606319196,
265,0,265,0,,,,,,,,,,,,,,,,,,,,,,,,,,,,,,,,,,1056.6565152999829,1057.6689670999767,1054.944101399975,1054.944101399975,1054.944101399975,1054.944101399975,new_fruit_36.png,266,2.0,1.714097900025081,,,072,00,2025-05-07_14h27.33.756,Surprise recog test,2023.1.3,60.00207606319196,
266,0,266,0,,,,,,,,,,,,,,,,,,,,,,,,,,,,,,,,,,1059.0296920999826,1060.0511595999997,1057.6689670999767,1057.6689670999767,1057.6689670999767,1057.6689670999767,old_sceneIn_13.png,267,3.0,1.3495449000038207,,,072,00,2025-05-07_14h27.33.756,Surprise recog test,2023.1.3,60.00207606319196,
267,0,267,0,,,,,,,,,,,,,,,,,,,,,,,,,,,,,,,,,,1062.6116021999915,1063.6248526999843,1060.0511595999997,1060.0511595999997,1060.0511595999997,1060.0511595999997,new_fruit_28.png,268,3.0,2.563162000005832,,,072,00,2025-05-07_14h27.33.756,Surprise recog test,2023.1.3,60.00207606319196,
268,0,268,0,,,,,,,,,,,,,,,,,,,,,,,,,,,,,,,,,,1065.2557858999935,,1063.6248526999843,1063.6248526999843,1063.6248526999843,1063.6248526999843,new_stationery_16.png,269,4.0,1.6266322000010405,,,072,00,2025-05-07_14h27.33.756,Surprise recog test,2023.1.3,60.00207606319196,
269,0,269,0,,,,,,,,,,,,,,,,,,,,,,,,,,,,,,,,,,1068.2573730000004,,1066.2882651999826,1066.2882651999826,1066.2882651999826,1066.2882651999826,new_fruit_30.png,270,3.0,1.969072399981087,,,072,00,2025-05-07_14h27.33.756,Surprise recog test,2023.1.3,60.00207606319196,
270,0,270,0,,,,,,,,,,,,,,,,,,,,,,,,,,,,,,,,,,1072.3371926999826,1073.34928569998,1069.2862736999814,1069.2862736999814,1069.2862736999814,1069.2862736999814,new_sceneOut_38.png,271,4.0,3.051733999978751,,,072,00,2025-05-07_14h27.33.756,Surprise recog test,2023.1.3,60.00207606319196,
271,0,271,0,,,,,,,,,,,,,,,,,,,,,,,,,,,,,,,,,,1075.2597367999842,1076.2785594000015,1073.34928569998,1073.34928569998,1073.34928569998,1073.34928569998,new_sceneOut_40.png,272,4.0,1.9027048999851104,,,072,00,2025-05-07_14h27.33.756,Surprise recog test,2023.1.3,60.00207606319196,
272,0,272,0,,,,,,,,,,,,,,,,,,,,,,,,,,,,,,,,,,1077.1913146000006,1078.2176273999794,1076.2785594000015,1076.2785594000015,1076.2785594000015,1076.2785594000015,old_sceneIn_41.png,273,4.0,0.9138133000233211,,,072,00,2025-05-07_14h27.33.756,Surprise recog test,2023.1.3,60.00207606319196,
273,0,273,0,,,,,,,,,,,,,,,,,,,,,,,,,,,,,,,,,,1080.2227472999948,1081.2512088999792,1078.2176273999794,1078.2176273999794,1078.2176273999794,1078.2176273999794,old_sceneIn_5.png,274,5.0,2.0077561999787576,,,072,00,2025-05-07_14h27.33.756,Surprise recog test,2023.1.3,60.00207606319196,
274,0,274,0,,,,,,,,,,,,,,,,,,,,,,,,,,,,,,,,,,1082.9813624999952,1083.9910750999989,1081.2512088999792,1081.2512088999792,1081.2512088999792,1081.2512088999792,new_sceneIn_41.png,275,4.0,1.7315214999835007,,,072,00,2025-05-07_14h27.33.756,Surprise recog test,2023.1.3,60.00207606319196,
275,0,275,0,,,,,,,,,,,,,,,,,,,,,,,,,,,,,,,,,,1085.4000061999832,1086.4200678999769,1083.9910750999989,1083.9910750999989,1083.9910750999989,1083.9910750999989,old_fruit_27.png,276,3.0,1.404323700000532,,,072,00,2025-05-07_14h27.33.756,Surprise recog test,2023.1.3,60.00207606319196,
276,0,276,0,,,,,,,,,,,,,,,,,,,,,,,,,,,,,,,,,,1088.7501620999828,1089.7729650999827,1086.4200678999769,1086.4200678999769,1086.4200678999769,1086.4200678999769,old_stationery_49.png,277,2.0,2.331700800015824,,,072,00,2025-05-07_14h27.33.756,Surprise recog test,2023.1.3,60.00207606319196,
277,0,277,0,,,,,,,,,,,,,,,,,,,,,,,,,,,,,,,,,,1091.8883637999825,1092.9070002999797,1089.7729650999827,1089.7729650999827,1089.7729650999827,1089.7729650999827,new_sceneOut_47.png,278,4.0,2.1170974999840837,,,072,00,2025-05-07_14h27.33.756,Surprise recog test,2023.1.3,60.00207606319196,
278,0,278,0,,,,,,,,,,,,,,,,,,,,,,,,,,,,,,,,,,1094.4030826999806,1095.424569900002,1092.9070002999797,1092.9070002999797,1092.9070002999797,1092.9070002999797,new_fruit_17.png,279,3.0,1.4978998999868054,,,072,00,2025-05-07_14h27.33.756,Surprise recog test,2023.1.3,60.00207606319196,
279,0,279,0,,,,,,,,,,,,,,,,,,,,,,,,,,,,,,,,,,1097.4230141000007,1098.4488992999832,1095.424569900002,1095.424569900002,1095.424569900002,1095.424569900002,new_sceneOut_35.png,280,4.0,2.0005443999834824,,,072,00,2025-05-07_14h27.33.756,Surprise recog test,2023.1.3,60.00207606319196,
280,0,280,0,,,,,,,,,,,,,,,,,,,,,,,,,,,,,,,,,,1099.7195467999845,1100.7378536000033,1098.4488992999832,1098.4488992999832,1098.4488992999832,1098.4488992999832,new_fruit_32.png,281,4.0,1.2725802999921143,,,072,00,2025-05-07_14h27.33.756,Surprise recog test,2023.1.3,60.00207606319196,
281,0,281,0,,,,,,,,,,,,,,,,,,,,,,,,,,,,,,,,,,1102.6882756999985,1103.7192330999824,1100.7378536000033,1100.7378536000033,1100.7378536000033,1100.7378536000033,new_sceneOut_3.png,282,3.0,1.9464422000164632,,,072,00,2025-05-07_14h27.33.756,Surprise recog test,2023.1.3,60.00207606319196,
282,0,282,0,,,,,,,,,,,,,,,,,,,,,,,,,,,,,,,,,,1105.8852231999917,1106.9061522999837,1103.7192330999824,1103.7192330999824,1103.7192330999824,1103.7192330999824,new_fruit_21.png,283,3.0,2.165802999981679,,,072,00,2025-05-07_14h27.33.756,Surprise recog test,2023.1.3,60.00207606319196,
283,0,283,0,,,,,,,,,,,,,,,,,,,,,,,,,,,,,,,,,,1108.0171953999961,1109.0351247999934,1106.9061522999837,1106.9061522999837,1106.9061522999837,1106.9061522999837,old_sceneIn_2.png,284,3.0,1.1117642000026535,,,072,00,2025-05-07_14h27.33.756,Surprise recog test,2023.1.3,60.00207606319196,
284,0,284,0,,,,,,,,,,,,,,,,,,,,,,,,,,,,,,,,,,1110.694198399986,1111.7250616999809,1109.0351247999934,1109.0351247999934,1109.0351247999934,1109.0351247999934,old_fruit_49.png,285,4.0,1.6611202000058256,,,072,00,2025-05-07_14h27.33.756,Surprise recog test,2023.1.3,60.00207606319196,
285,0,285,0,,,,,,,,,,,,,,,,,,,,,,,,,,,,,,,,,,1113.269170399988,1114.2932669000002,1111.7250616999809,1111.7250616999809,1111.7250616999809,1111.7250616999809,new_sceneOut_17.png,286,3.0,1.5446126000024378,,,072,00,2025-05-07_14h27.33.756,Surprise recog test,2023.1.3,60.00207606319196,
286,0,286,0,,,,,,,,,,,,,,,,,,,,,,,,,,,,,,,,,,1116.2750635999837,1117.2968466999882,1114.2932669000002,1114.2932669000002,1114.2932669000002,1114.2932669000002,new_fruit_34.png,287,5.0,1.983405999984825,,,072,00,2025-05-07_14h27.33.756,Surprise recog test,2023.1.3,60.00207606319196,
287,0,287,0,,,,,,,,,,,,,,,,,,,,,,,,,,,,,,,,,,1119.0404124999768,1120.0608856999897,1117.2968466999882,1117.2968466999882,1117.2968466999882,1117.2968466999882,new_sceneIn_30.png,288,4.0,1.7454996000160463,,,072,00,2025-05-07_14h27.33.756,Surprise recog test,2023.1.3,60.00207606319196,
288,0,288,0,,,,,,,,,,,,,,,,,,,,,,,,,,,,,,,,,,1121.5664004999853,1122.5851750999864,1120.0608856999897,1120.0608856999897,1120.0608856999897,1120.0608856999897,new_sceneOut_46.png,289,4.0,1.5060272999980953,,,072,00,2025-05-07_14h27.33.756,Surprise recog test,2023.1.3,60.00207606319196,
289,0,289,0,,,,,,,,,,,,,,,,,,,,,,,,,,,,,,,,,,1123.8756425999745,1124.896444299986,1122.5851750999864,1122.5851750999864,1122.5851750999864,1122.5851750999864,new_sceneOut_24.png,290,3.0,1.2927297999849543,,,072,00,2025-05-07_14h27.33.756,Surprise recog test,2023.1.3,60.00207606319196,
290,0,290,0,,,,,,,,,,,,,,,,,,,,,,,,,,,,,,,,,,1127.945436799986,1128.9732707999938,1124.896444299986,1124.896444299986,1124.896444299986,1124.896444299986,old_sceneOut_29.png,291,4.0,3.0501268000225537,,,072,00,2025-05-07_14h27.33.756,Surprise recog test,2023.1.3,60.00207606319196,
291,0,291,0,,,,,,,,,,,,,,,,,,,,,,,,,,,,,,,,,,1130.1517480999755,1131.1745028999867,1128.9732707999938,1128.9732707999938,1128.9732707999938,1128.9732707999938,old_sceneOut_23.png,292,4.0,1.1799832000106107,,,072,00,2025-05-07_14h27.33.756,Surprise recog test,2023.1.3,60.00207606319196,
292,0,292,0,,,,,,,,,,,,,,,,,,,,,,,,,,,,,,,,,,1133.725019399979,1134.7487597999861,1131.1745028999867,1131.1745028999867,1131.1745028999867,1131.1745028999867,old_fruit_14.png,293,3.0,2.5503712000208907,,,072,00,2025-05-07_14h27.33.756,Surprise recog test,2023.1.3,60.00207606319196,
293,0,293,0,,,,,,,,,,,,,,,,,,,,,,,,,,,,,,,,,,1136.3783529999782,1137.3977893999836,1134.7487597999861,1134.7487597999861,1134.7487597999861,1134.7487597999861,old_sceneIn_9.png,294,3.0,1.6324087000102736,,,072,00,2025-05-07_14h27.33.756,Surprise recog test,2023.1.3,60.00207606319196,
294,0,294,0,,,,,,,,,,,,,,,,,,,,,,,,,,,,,,,,,,1138.558746099996,1139.5843278999964,1137.3977893999836,1137.3977893999836,1137.3977893999836,1137.3977893999836,new_fruit_14.png,295,3.0,1.1637484999955632,,,072,00,2025-05-07_14h27.33.756,Surprise recog test,2023.1.3,60.00207606319196,
295,0,295,0,,,,,,,,,,,,,,,,,,,,,,,,,,,,,,,,,,1141.3676503000024,,1139.5843278999964,1139.5843278999964,1139.5843278999964,1139.5843278999964,old_stationery_1.png,296,1.0,1.7846179000043776,,,072,00,2025-05-07_14h27.33.756,Surprise recog test,2023.1.3,60.00207606319196,
296,0,296,0,,,,,,,,,,,,,,,,,,,,,,,,,,,,,,,,,,1144.1021508999984,1145.1088372999802,1142.4046354999882,1142.4046354999882,1142.4046354999882,1142.4046354999882,new_fruit_41.png,297,3.0,1.7027168999775313,,,072,00,2025-05-07_14h27.33.756,Surprise recog test,2023.1.3,60.00207606319196,
297,0,297,0,,,,,,,,,,,,,,,,,,,,,,,,,,,,,,,,,,1146.6145889999752,1147.633027999982,1145.1088372999802,1145.1088372999802,1145.1088372999802,1145.1088372999802,new_fruit_15.png,298,3.0,1.5007622999837622,,,072,00,2025-05-07_14h27.33.756,Surprise recog test,2023.1.3,60.00207606319196,
298,0,298,0,,,,,,,,,,,,,,,,,,,,,,,,,,,,,,,,,,1149.9902691000025,1151.007674099994,1147.633027999982,1147.633027999982,1147.633027999982,1147.633027999982,old_sceneOut_15.png,299,4.0,2.35615219999454,,,072,00,2025-05-07_14h27.33.756,Surprise recog test,2023.1.3,60.00207606319196,
299,0,299,0,,,,,,,,,,,,,,,,,,,,,,,,,,,,,,,,,,1153.2507999999798,1154.2788037999999,1151.007674099994,1151.007674099994,1151.007674099994,1151.007674099994,old_stationery_46.png,300,2.0,2.241623100009747,,,072,00,2025-05-07_14h27.33.756,Surprise recog test,2023.1.3,60.00207606319196,
300,0,300,0,,,,,,,,,,,,,,,,,,,,,,,,,,,,,,,,,,1156.1154137999984,1157.1475274999975,1154.2788037999999,1154.2788037999999,1154.2788037999999,1154.2788037999999,old_sceneOut_7.png,301,5.0,1.8387954999925569,,,072,00,2025-05-07_14h27.33.756,Surprise recog test,2023.1.3,60.00207606319196,
301,0,301,0,,,,,,,,,,,,,,,,,,,,,,,,,,,,,,,,,,1158.986521099985,1160.017281599983,1157.1475274999975,1157.1475274999975,1157.1475274999975,1157.1475274999975,new_sceneIn_11.png,302,4.0,1.8418327000108548,,,072,00,2025-05-07_14h27.33.756,Surprise recog test,2023.1.3,60.00207606319196,
302,0,302,0,,,,,,,,,,,,,,,,,,,,,,,,,,,,,,,,,,1162.199947999994,1163.2149549000023,1160.017281599983,1160.017281599983,1160.017281599983,1160.017281599983,new_stationery_9.png,303,2.0,2.182972000009613,,,072,00,2025-05-07_14h27.33.756,Surprise recog test,2023.1.3,60.00207606319196,
303,0,303,0,,,,,,,,,,,,,,,,,,,,,,,,,,,,,,,,,,1164.9389561999997,1165.972236599977,1163.2149549000023,1163.2149549000023,1163.2149549000023,1163.2149549000023,new_fruit_26.png,304,2.0,1.7253414999868255,,,072,00,2025-05-07_14h27.33.756,Surprise recog test,2023.1.3,60.00207606319196,
304,0,304,0,,,,,,,,,,,,,,,,,,,,,,,,,,,,,,,,,,1167.729419099982,1168.7439691999753,1165.972236599977,1165.972236599977,1165.972236599977,1165.972236599977,old_stationery_29.png,305,1.0,1.7600933000212535,,,072,00,2025-05-07_14h27.33.756,Surprise recog test,2023.1.3,60.00207606319196,
305,0,305,0,,,,,,,,,,,,,,,,,,,,,,,,,,,,,,,,,,1170.0555858000007,1171.0637376999948,1168.7439691999753,1168.7439691999753,1168.7439691999753,1168.7439691999753,old_fruit_28.png,306,3.0,1.3065557000227273,,,072,00,2025-05-07_14h27.33.756,Surprise recog test,2023.1.3,60.00207606319196,
306,0,306,0,,,,,,,,,,,,,,,,,,,,,,,,,,,,,,,,,,1173.1808229000017,1174.2107377999928,1171.0637376999948,1171.0637376999948,1171.0637376999948,1171.0637376999948,old_sceneIn_19.png,307,4.0,2.1133111999952234,,,072,00,2025-05-07_14h27.33.756,Surprise recog test,2023.1.3,60.00207606319196,
307,0,307,0,,,,,,,,,,,,,,,,,,,,,,,,,,,,,,,,,,1175.5787226999819,,1174.2107377999928,1174.2107377999928,1174.2107377999928,1174.2107377999928,new_sceneIn_45.png,308,4.0,1.3694726999965496,,,072,00,2025-05-07_14h27.33.756,Surprise recog test,2023.1.3,60.00207606319196,
308,0,308,0,,,,,,,,,,,,,,,,,,,,,,,,,,,,,,,,,,1178.0370715000026,1179.0536662999948,1176.6010242999764,1176.6010242999764,1176.6010242999764,1176.6010242999764,new_sceneOut_12.png,309,3.0,1.4296267000027,,,072,00,2025-05-07_14h27.33.756,Surprise recog test,2023.1.3,60.00207606319196,
309,0,309,0,,,,,,,,,,,,,,,,,,,,,,,,,,,,,,,,,,1181.464003000001,1182.4859039000003,1179.0536662999948,1179.0536662999948,1179.0536662999948,1179.0536662999948,new_stationery_23.png,310,4.0,2.404093399993144,,,072,00,2025-05-07_14h27.33.756,Surprise recog test,2023.1.3,60.00207606319196,
310,0,310,0,,,,,,,,,,,,,,,,,,,,,,,,,,,,,,,,,,1184.1618753999937,1185.1874074999942,1182.4859039000003,1182.4859039000003,1182.4859039000003,1182.4859039000003,old_sceneOut_46.png,311,3.0,1.6789050999796018,,,072,00,2025-05-07_14h27.33.756,Surprise recog test,2023.1.3,60.00207606319196,
311,0,311,0,,,,,,,,,,,,,,,,,,,,,,,,,,,,,,,,,,1186.7593144999992,1187.7753538999823,1185.1874074999942,1185.1874074999942,1185.1874074999942,1185.1874074999942,new_sceneIn_12.png,312,3.0,1.5755353000131436,,,072,00,2025-05-07_14h27.33.756,Surprise recog test,2023.1.3,60.00207606319196,
312,0,312,0,,,,,,,,,,,,,,,,,,,,,,,,,,,,,,,,,,1190.7105655999912,1191.741576899978,1187.7753538999823,1187.7753538999823,1187.7753538999823,1187.7753538999823,new_stationery_14.png,313,5.0,2.9330897000036202,,,072,00,2025-05-07_14h27.33.756,Surprise recog test,2023.1.3,60.00207606319196,
313,0,313,0,,,,,,,,,,,,,,,,,,,,,,,,,,,,,,,,,,1193.6935929999745,,1191.741576899978,1191.741576899978,1191.741576899978,1191.741576899978,old_stationery_4.png,314,4.0,1.9536785000236705,,,072,00,2025-05-07_14h27.33.756,Surprise recog test,2023.1.3,60.00207606319196,
314,0,314,0,,,,,,,,,,,,,,,,,,,,,,,,,,,,,,,,,,1196.8449421999976,1197.8492160000023,1194.7254078999977,1194.7254078999977,1194.7254078999977,1194.7254078999977,new_sceneIn_34.png,315,4.0,2.1201935000135563,,,072,00,2025-05-07_14h27.33.756,Surprise recog test,2023.1.3,60.00207606319196,
315,0,315,0,,,,,,,,,,,,,,,,,,,,,,,,,,,,,,,,,,1199.5009446999757,1200.5262660000008,1197.8492160000023,1197.8492160000023,1197.8492160000023,1197.8492160000023,new_sceneOut_49.png,316,3.0,1.6468773999949917,,,072,00,2025-05-07_14h27.33.756,Surprise recog test,2023.1.3,60.00207606319196,
316,0,316,0,,,,,,,,,,,,,,,,,,,,,,,,,,,,,,,,,,1203.0701617999875,,1200.5262660000008,1200.5262660000008,1200.5262660000008,1200.5262660000008,new_fruit_10.png,317,4.0,2.5446443000109866,,,072,00,2025-05-07_14h27.33.756,Surprise recog test,2023.1.3,60.00207606319196,
317,0,317,0,,,,,,,,,,,,,,,,,,,,,,,,,,,,,,,,,,1206.0435119999747,1207.0663436999894,1204.0992638999887,1204.0992638999887,1204.0992638999887,1204.0992638999887,old_stationery_32.png,318,2.0,1.9461519000178669,,,072,00,2025-05-07_14h27.33.756,Surprise recog test,2023.1.3,60.00207606319196,
318,0,318,0,,,,,,,,,,,,,,,,,,,,,,,,,,,,,,,,,,1208.4929642999778,1209.523911199998,1207.0663436999894,1207.0663436999894,1207.0663436999894,1207.0663436999894,new_fruit_33.png,319,3.0,1.4283998000028078,,,072,00,2025-05-07_14h27.33.756,Surprise recog test,2023.1.3,60.00207606319196,
319,0,319,0,,,,,,,,,,,,,,,,,,,,,,,,,,,,,,,,,,1211.187302699982,1212.2081592999748,1209.523911199998,1209.523911199998,1209.523911199998,1209.523911199998,new_stationery_7.png,320,4.0,1.6652007999946363,,,072,00,2025-05-07_14h27.33.756,Surprise recog test,2023.1.3,60.00207606319196,
320,0,320,0,,,,,,,,,,,,,,,,,,,,,,,,,,,,,,,,,,1214.2921701000014,1215.3083503999806,1212.2081592999748,1212.2081592999748,1212.2081592999748,1212.2081592999748,old_stationery_30.png,321,2.0,2.0856118999945465,,,072,00,2025-05-07_14h27.33.756,Surprise recog test,2023.1.3,60.00207606319196,
321,0,321,0,,,,,,,,,,,,,,,,,,,,,,,,,,,,,,,,,,1218.5900601999892,1219.6035472999793,1215.3083503999806,1215.3083503999806,1215.3083503999806,1215.3083503999806,new_sceneIn_13.png,322,4.0,3.2847867000091355,,,072,00,2025-05-07_14h27.33.756,Surprise recog test,2023.1.3,60.00207606319196,
322,0,322,0,,,,,,,,,,,,,,,,,,,,,,,,,,,,,,,,,,1221.5145782999753,1222.5228139999963,1219.6035472999793,1219.6035472999793,1219.6035472999793,1219.6035472999793,new_stationery_37.png,323,4.0,1.9064558999962173,,,072,00,2025-05-07_14h27.33.756,Surprise recog test,2023.1.3,60.00207606319196,
323,0,323,0,,,,,,,,,,,,,,,,,,,,,,,,,,,,,,,,,,1224.1667454999988,1225.178447399987,1222.5228139999963,1222.5228139999963,1222.5228139999963,1222.5228139999963,old_stationery_7.png,324,1.0,1.632817800011253,,,072,00,2025-05-07_14h27.33.756,Surprise recog test,2023.1.3,60.00207606319196,
324,0,324,0,,,,,,,,,,,,,,,,,,,,,,,,,,,,,,,,,,1227.3572911999945,,1225.178447399987,1225.178447399987,1225.178447399987,1225.178447399987,new_stationery_32.png,325,4.0,2.1782107000180986,,,072,00,2025-05-07_14h27.33.756,Surprise recog test,2023.1.3,60.00207606319196,
325,0,325,0,,,,,,,,,,,,,,,,,,,,,,,,,,,,,,,,,,1230.1381657999882,1231.1569986999966,1228.381879099994,1228.381879099994,1228.381879099994,1228.381879099994,old_sceneOut_11.png,326,2.0,1.756790599989472,,,072,00,2025-05-07_14h27.33.756,Surprise recog test,2023.1.3,60.00207606319196,
326,0,326,0,,,,,,,,,,,,,,,,,,,,,,,,,,,,,,,,,,1233.0571470999857,1234.0659227999859,1231.1569986999966,1231.1569986999966,1231.1569986999966,1231.1569986999966,new_sceneIn_14.png,327,5.0,1.903602900012629,,,072,00,2025-05-07_14h27.33.756,Surprise recog test,2023.1.3,60.00207606319196,
327,0,327,0,,,,,,,,,,,,,,,,,,,,,,,,,,,,,,,,,,1236.3070787999895,1237.3291894999857,1234.0659227999859,1234.0659227999859,1234.0659227999859,1234.0659227999859,new_stationery_18.png,328,4.0,2.237475200003246,,,072,00,2025-05-07_14h27.33.756,Surprise recog test,2023.1.3,60.00207606319196,
328,0,328,0,,,,,,,,,,,,,,,,,,,,,,,,,,,,,,,,,,1239.016498699988,,1237.3291894999857,1237.3291894999857,1237.3291894999857,1237.3291894999857,new_stationery_4.png,329,4.0,1.6865799000079278,,,072,00,2025-05-07_14h27.33.756,Surprise recog test,2023.1.3,60.00207606319196,
329,0,329,0,,,,,,,,,,,,,,,,,,,,,,,,,,,,,,,,,,1241.5645960999827,1242.5842106999771,1240.0369288999937,1240.0369288999937,1240.0369288999937,1240.0369288999937,old_fruit_38.png,330,4.0,1.5188332999823615,,,072,00,2025-05-07_14h27.33.756,Surprise recog test,2023.1.3,60.00207606319196,
330,0,330,0,,,,,,,,,,,,,,,,,,,,,,,,,,,,,,,,,,1243.9371580999868,,1242.5842106999771,1242.5842106999771,1242.5842106999771,1242.5842106999771,new_sceneIn_27.png,331,4.0,1.3527538999915123,,,072,00,2025-05-07_14h27.33.756,Surprise recog test,2023.1.3,60.00207606319196,
331,0,331,0,,,,,,,,,,,,,,,,,,,,,,,,,,,,,,,,,,1246.3188980999985,1247.3332266999932,1244.9576975999807,1244.9576975999807,1244.9576975999807,1244.9576975999807,old_sceneIn_38.png,332,4.0,1.3557175000023562,,,072,00,2025-05-07_14h27.33.756,Surprise recog test,2023.1.3,60.00207606319196,
332,0,332,0,,,,,,,,,,,,,,,,,,,,,,,,,,,,,,,,,,1248.8028743999894,1249.8241076999984,1247.3332266999932,1247.3332266999932,1247.3332266999932,1247.3332266999932,old_sceneOut_31.png,333,3.0,1.47119769998244,,,072,00,2025-05-07_14h27.33.756,Surprise recog test,2023.1.3,60.00207606319196,
333,0,333,0,,,,,,,,,,,,,,,,,,,,,,,,,,,,,,,,,,1251.4155296999961,1252.4443765000033,1249.8241076999984,1249.8241076999984,1249.8241076999984,1249.8241076999984,old_sceneIn_33.png,334,4.0,1.5928309999872,,,072,00,2025-05-07_14h27.33.756,Surprise recog test,2023.1.3,60.00207606319196,
334,0,334,0,,,,,,,,,,,,,,,,,,,,,,,,,,,,,,,,,,1254.052077899978,1255.0800552,1252.4443765000033,1252.4443765000033,1252.4443765000033,1252.4443765000033,old_sceneOut_20.png,335,3.0,1.6086822000215761,,,072,00,2025-05-07_14h27.33.756,Surprise recog test,2023.1.3,60.00207606319196,
335,0,335,0,,,,,,,,,,,,,,,,,,,,,,,,,,,,,,,,,,1256.6023172999849,1257.6192210000008,1255.0800552,1255.0800552,1255.0800552,1255.0800552,new_sceneOut_37.png,336,4.0,1.5229104000027291,,,072,00,2025-05-07_14h27.33.756,Surprise recog test,2023.1.3,60.00207606319196,
336,0,336,0,,,,,,,,,,,,,,,,,,,,,,,,,,,,,,,,,,1258.6910372999846,1259.7153217000014,1257.6192210000008,1257.6192210000008,1257.6192210000008,1257.6192210000008,new_sceneIn_46.png,337,4.0,1.0655461000278592,,,072,00,2025-05-07_14h27.33.756,Surprise recog test,2023.1.3,60.00207606319196,
337,0,337,0,,,,,,,,,,,,,,,,,,,,,,,,,,,,,,,,,,1261.4553145999962,1262.4807658999925,1259.7153217000014,1259.7153217000014,1259.7153217000014,1259.7153217000014,old_fruit_45.png,338,2.0,1.7419577999971807,,,072,00,2025-05-07_14h27.33.756,Surprise recog test,2023.1.3,60.00207606319196,
338,0,338,0,,,,,,,,,,,,,,,,,,,,,,,,,,,,,,,,,,1264.185083599994,1265.2025792999775,1262.4807658999925,1262.4807658999925,1262.4807658999925,1262.4807658999925,new_sceneOut_16.png,339,4.0,1.7073567000043113,,,072,00,2025-05-07_14h27.33.756,Surprise recog test,2023.1.3,60.00207606319196,
339,0,339,0,,,,,,,,,,,,,,,,,,,,,,,,,,,,,,,,,,1267.2451970999828,1268.2699670000002,1265.2025792999775,1265.2025792999775,1265.2025792999775,1265.2025792999775,new_sceneIn_37.png,340,4.0,2.0423985999950673,,,072,00,2025-05-07_14h27.33.756,Surprise recog test,2023.1.3,60.00207606319196,
340,0,340,0,,,,,,,,,,,,,,,,,,,,,,,,,,,,,,,,,,1269.814581899991,1270.8419960999745,1268.2699670000002,1268.2699670000002,1268.2699670000002,1268.2699670000002,old_sceneOut_32.png,341,4.0,1.5450875999813434,,,072,00,2025-05-07_14h27.33.756,Surprise recog test,2023.1.3,60.00207606319196,
341,0,341,0,,,,,,,,,,,,,,,,,,,,,,,,,,,,,,,,,,1272.415011999983,1273.4402294999745,1270.8419960999745,1270.8419960999745,1270.8419960999745,1270.8419960999745,new_sceneIn_28.png,342,4.0,1.5750659000186715,,,072,00,2025-05-07_14h27.33.756,Surprise recog test,2023.1.3,60.00207606319196,
342,0,342,0,,,,,,,,,,,,,,,,,,,,,,,,,,,,,,,,,,1275.988819399994,1277.0120659999957,1273.4402294999745,1273.4402294999745,1273.4402294999745,1273.4402294999745,old_stationery_22.png,343,1.0,2.54671209998196,,,072,00,2025-05-07_14h27.33.756,Surprise recog test,2023.1.3,60.00207606319196,
343,0,343,0,,,,,,,,,,,,,,,,,,,,,,,,,,,,,,,,,,1280.2341457000002,,1277.0120659999957,1277.0120659999957,1277.0120659999957,1277.0120659999957,new_sceneIn_32.png,344,4.0,3.223061900003813,,,072,00,2025-05-07_14h27.33.756,Surprise recog test,2023.1.3,60.00207606319196,
344,0,344,0,,,,,,,,,,,,,,,,,,,,,,,,,,,,,,,,,,1282.777200099983,1283.802984799986,1281.2629954000004,1281.2629954000004,1281.2629954000004,1281.2629954000004,old_sceneIn_50.png,345,4.0,1.515988799976185,,,072,00,2025-05-07_14h27.33.756,Surprise recog test,2023.1.3,60.00207606319196,
345,0,345,0,,,,,,,,,,,,,,,,,,,,,,,,,,,,,,,,,,1285.2009227999952,1286.2207204999868,1283.802984799986,1283.802984799986,1283.802984799986,1283.802984799986,new_sceneIn_5.png,346,4.0,1.4005072999862023,,,072,00,2025-05-07_14h27.33.756,Surprise recog test,2023.1.3,60.00207606319196,
346,0,346,0,,,,,,,,,,,,,,,,,,,,,,,,,,,,,,,,,,1287.2219064999954,,1286.2207204999868,1286.2207204999868,1286.2207204999868,1286.2207204999868,old_sceneOut_17.png,347,4.0,0.9999179000151344,,,072,00,2025-05-07_14h27.33.756,Surprise recog test,2023.1.3,60.00207606319196,
347,0,347,0,,,,,,,,,,,,,,,,,,,,,,,,,,,,,,,,,,1289.935983399977,1290.947040799976,1288.2540998999903,1288.2540998999903,1288.2540998999903,1288.2540998999903,old_sceneIn_47.png,348,4.0,1.6820619000063743,,,072,00,2025-05-07_14h27.33.756,Surprise recog test,2023.1.3,60.00207606319196,
348,0,348,0,,,,,,,,,,,,,,,,,,,,,,,,,,,,,,,,,,1293.5661636999866,1294.5940356999927,1290.947040799976,1290.947040799976,1290.947040799976,1290.947040799976,old_sceneIn_49.png,349,4.0,2.615206099988427,,,072,00,2025-05-07_14h27.33.756,Surprise recog test,2023.1.3,60.00207606319196,
349,0,349,0,,,,,,,,,,,,,,,,,,,,,,,,,,,,,,,,,,1296.3734165999922,1297.3964444999874,1294.5940356999927,1294.5940356999927,1294.5940356999927,1294.5940356999927,old_sceneOut_41.png,350,3.0,1.7799894000054337,,,072,00,2025-05-07_14h27.33.756,Surprise recog test,2023.1.3,60.00207606319196,
350,0,350,0,,,,,,,,,,,,,,,,,,,,,,,,,,,,,,,,,,1298.4781238999858,1299.486761099979,1297.3964444999874,1297.3964444999874,1297.3964444999874,1297.3964444999874,old_sceneOut_28.png,351,3.0,1.0833377999952063,,,072,00,2025-05-07_14h27.33.756,Surprise recog test,2023.1.3,60.00207606319196,
351,0,351,0,,,,,,,,,,,,,,,,,,,,,,,,,,,,,,,,,,1301.0641957999906,1302.0844665999757,1299.486761099979,1299.486761099979,1299.486761099979,1299.486761099979,new_sceneIn_23.png,352,3.0,1.5722468000021763,,,072,00,2025-05-07_14h27.33.756,Surprise recog test,2023.1.3,60.00207606319196,
