trial_loop.thisRepN,trial_loop.thisTrialN,trial_loop.thisN,trial_loop.thisIndex,VAS_slider.started,VAS_text.started,VAS_notstressed_text.started,VAS_stressed_text.started,continue_input.started,continue_text.started,label0.started,label10.started,label20.started,label30.started,label40.started,label50.started,label60.started,label70.started,label80.started,label90.started,label100.started,VAS_slider.response,VAS_slider.rt,VAS_slider.history,Answer_VAS,continue_input.keys,instruction_text.started,continue_text_2.started,continue_input_2.started,continue_input_2.keys,continue_input_2.rt,continue_input_2.duration,example_text.started,example_slider_2.started,example_image.started,example_slider_2.response,example_slider_2.rt,fixcross.started,fixcross.stopped,front_square.started,stim_images.started,trial_inst_images.started,slider_images.started,thisImg,trial_count,slider_images.response,slider_images.rt,outro.started,participant,condition,date,expName,psychopyVersion,frameRate,
,,,,31.008180800003174,31.008180800003174,31.008180800003174,31.008180800003174,31.008180800003174,31.008180800003174,31.008180800003174,31.008180800003174,31.008180800003174,31.008180800003174,31.008180800003174,31.008180800003174,31.008180800003174,31.008180800003174,31.008180800003174,31.008180800003174,31.008180800003174,1.983333333333333,16.325146700000914,"[(1.983333333333333, 16.325146700000914)]",1.983333333333333,None,,,,,,,,,,,,,,,,,,,,,,,073,10,2025-05-06_13h59.11.696,Surprise recog test,2023.1.3,59.82618101343004,
,,,,,,,,,,,,,,,,,,,,,,,,,,47.36478120000538,47.36478120000538,47.36478120000538,space,29.71549270000105,None,,,,,,,,,,,,,,,,,073,10,2025-05-06_13h59.11.696,Surprise recog test,2023.1.3,59.82618101343004,
0,0,0,0,,,,,,,,,,,,,,,,,,,,,,,,,,,,,77.20940520000295,77.20940520000295,77.20940520000295,4.0,25.513744199997745,106.81095199999982,107.81858910000301,103.68192920000001,103.68192920000001,103.68192920000001,103.68192920000001,old_sceneIn_47.png,1,2.0,3.1272597999995924,,073,10,2025-05-06_13h59.11.696,Surprise recog test,2023.1.3,59.82618101343004,
1,0,1,0,,,,,,,,,,,,,,,,,,,,,,,,,,,,,,,,,,110.44472270000551,111.46316099999967,107.81858910000301,107.81858910000301,107.81858910000301,107.81858910000301,old_sceneOut_19.png,2,3.0,2.62175120000029,,073,10,2025-05-06_13h59.11.696,Surprise recog test,2023.1.3,59.82618101343004,
2,0,2,0,,,,,,,,,,,,,,,,,,,,,,,,,,,,,,,,,,113.85793030000059,114.8856367000044,111.46316099999967,111.46316099999967,111.46316099999967,111.46316099999967,new_stationery_16.png,3,2.0,2.394637100005639,,073,10,2025-05-06_13h59.11.696,Surprise recog test,2023.1.3,59.82618101343004,
3,0,3,0,,,,,,,,,,,,,,,,,,,,,,,,,,,,,,,,,,117.28965650000464,,114.8856367000044,114.8856367000044,114.8856367000044,114.8856367000044,new_fruit_21.png,4,2.0,2.4079832999996142,,073,10,2025-05-06_13h59.11.696,Surprise recog test,2023.1.3,59.82618101343004,
4,0,4,0,,,,,,,,,,,,,,,,,,,,,,,,,,,,,,,,,,120.7690184000021,121.78068950000306,118.31874880000396,118.31874880000396,118.31874880000396,118.31874880000396,old_sceneIn_16.png,5,4.0,2.4496950000029756,,073,10,2025-05-06_13h59.11.696,Surprise recog test,2023.1.3,59.82618101343004,
5,0,5,0,,,,,,,,,,,,,,,,,,,,,,,,,,,,,,,,,,124.99813560000621,126.02537690000463,121.78068950000306,121.78068950000306,121.78068950000306,121.78068950000306,old_fruit_14.png,6,1.0,3.2129876999970293,,073,10,2025-05-06_13h59.11.696,Surprise recog test,2023.1.3,59.82618101343004,
6,0,6,0,,,,,,,,,,,,,,,,,,,,,,,,,,,,,,,,,,127.88351170000533,128.91427520000434,126.02537690000463,126.02537690000463,126.02537690000463,126.02537690000463,new_fruit_35.png,7,2.0,1.8597249000013107,,073,10,2025-05-06_13h59.11.696,Surprise recog test,2023.1.3,59.82618101343004,
7,0,7,0,,,,,,,,,,,,,,,,,,,,,,,,,,,,,,,,,,130.16904030000296,131.18835500000569,128.91427520000434,128.91427520000434,128.91427520000434,128.91427520000434,old_sceneIn_15.png,8,2.0,1.2571891999978106,,073,10,2025-05-06_13h59.11.696,Surprise recog test,2023.1.3,59.82618101343004,
8,0,8,0,,,,,,,,,,,,,,,,,,,,,,,,,,,,,,,,,,133.3743289000049,134.39505980000104,131.18835500000569,131.18835500000569,131.18835500000569,131.18835500000569,old_sceneIn_46.png,9,2.0,2.18090349999693,,073,10,2025-05-06_13h59.11.696,Surprise recog test,2023.1.3,59.82618101343004,
9,0,9,0,,,,,,,,,,,,,,,,,,,,,,,,,,,,,,,,,,136.22424850000243,137.24379490000138,134.39505980000104,134.39505980000104,134.39505980000104,134.39505980000104,old_sceneOut_9.png,10,2.0,1.8265096999966772,,073,10,2025-05-06_13h59.11.696,Surprise recog test,2023.1.3,59.82618101343004,
10,0,10,0,,,,,,,,,,,,,,,,,,,,,,,,,,,,,,,,,,139.1604600999999,140.17986970000493,137.24379490000138,137.24379490000138,137.24379490000138,137.24379490000138,old_sceneIn_12.png,11,4.0,1.9104951999979676,,073,10,2025-05-06_13h59.11.696,Surprise recog test,2023.1.3,59.82618101343004,
11,0,11,0,,,,,,,,,,,,,,,,,,,,,,,,,,,,,,,,,,141.9401094000059,142.9524875000061,140.17986970000493,140.17986970000493,140.17986970000493,140.17986970000493,old_fruit_7.png,12,1.0,1.7503377000030014,,073,10,2025-05-06_13h59.11.696,Surprise recog test,2023.1.3,59.82618101343004,
12,0,12,0,,,,,,,,,,,,,,,,,,,,,,,,,,,,,,,,,,144.22803140000178,,142.9524875000061,142.9524875000061,142.9524875000061,142.9524875000061,old_fruit_23.png,13,1.0,1.2751079999943613,,073,10,2025-05-06_13h59.11.696,Surprise recog test,2023.1.3,59.82618101343004,
13,0,13,0,,,,,,,,,,,,,,,,,,,,,,,,,,,,,,,,,,147.40251960000023,148.43230680000124,145.25367779999942,145.25367779999942,145.25367779999942,145.25367779999942,new_stationery_23.png,14,3.0,2.1448989999989863,,073,10,2025-05-06_13h59.11.696,Surprise recog test,2023.1.3,59.82618101343004,
14,0,14,0,,,,,,,,,,,,,,,,,,,,,,,,,,,,,,,,,,150.58553940000274,151.61372839999967,148.43230680000124,148.43230680000124,148.43230680000124,148.43230680000124,new_sceneIn_36.png,15,3.0,2.1541403000010177,,073,10,2025-05-06_13h59.11.696,Surprise recog test,2023.1.3,59.82618101343004,
15,0,15,0,,,,,,,,,,,,,,,,,,,,,,,,,,,,,,,,,,153.281444799999,154.30196989999968,151.61372839999967,151.61372839999967,151.61372839999967,151.61372839999967,new_sceneOut_38.png,16,3.0,1.667773600005603,,073,10,2025-05-06_13h59.11.696,Surprise recog test,2023.1.3,59.82618101343004,
16,0,16,0,,,,,,,,,,,,,,,,,,,,,,,,,,,,,,,,,,156.22160840000288,,154.30196989999968,154.30196989999968,154.30196989999968,154.30196989999968,old_stationery_18.png,17,1.0,1.9181966000032844,,073,10,2025-05-06_13h59.11.696,Surprise recog test,2023.1.3,59.82618101343004,
17,0,17,0,,,,,,,,,,,,,,,,,,,,,,,,,,,,,,,,,,158.55473809999967,159.57069559999945,157.24366369999916,157.24366369999916,157.24366369999916,157.24366369999916,old_fruit_22.png,18,1.0,1.3050167000037618,,073,10,2025-05-06_13h59.11.696,Surprise recog test,2023.1.3,59.82618101343004,
18,0,18,0,,,,,,,,,,,,,,,,,,,,,,,,,,,,,,,,,,161.04018460000225,162.05902150000475,159.57069559999945,159.57069559999945,159.57069559999945,159.57069559999945,new_stationery_42.png,19,2.0,1.4666247999994084,,073,10,2025-05-06_13h59.11.696,Surprise recog test,2023.1.3,59.82618101343004,
19,0,19,0,,,,,,,,,,,,,,,,,,,,,,,,,,,,,,,,,,163.36607390000427,164.3830381000007,162.05902150000475,162.05902150000475,162.05902150000475,162.05902150000475,new_sceneOut_40.png,20,2.0,1.3093060000028345,,073,10,2025-05-06_13h59.11.696,Surprise recog test,2023.1.3,59.82618101343004,
20,0,20,0,,,,,,,,,,,,,,,,,,,,,,,,,,,,,,,,,,166.33256360000087,167.36011449999933,164.3830381000007,164.3830381000007,164.3830381000007,164.3830381000007,old_sceneOut_20.png,21,2.0,1.9442189000037615,,073,10,2025-05-06_13h59.11.696,Surprise recog test,2023.1.3,59.82618101343004,
21,0,21,0,,,,,,,,,,,,,,,,,,,,,,,,,,,,,,,,,,169.89732250000088,170.91536980000092,167.36011449999933,167.36011449999933,167.36011449999933,167.36011449999933,new_sceneOut_12.png,22,2.0,2.5358953999966616,,073,10,2025-05-06_13h59.11.696,Surprise recog test,2023.1.3,59.82618101343004,
22,0,22,0,,,,,,,,,,,,,,,,,,,,,,,,,,,,,,,,,,172.49196370000573,173.5123504000003,170.91536980000092,170.91536980000092,170.91536980000092,170.91536980000092,new_sceneOut_15.png,23,2.0,1.5756127999993623,,073,10,2025-05-06_13h59.11.696,Surprise recog test,2023.1.3,59.82618101343004,
23,0,23,0,,,,,,,,,,,,,,,,,,,,,,,,,,,,,,,,,,174.97991080000065,175.99637760000041,173.5123504000003,173.5123504000003,173.5123504000003,173.5123504000003,old_sceneOut_31.png,24,2.0,1.464595299999928,,073,10,2025-05-06_13h59.11.696,Surprise recog test,2023.1.3,59.82618101343004,
24,0,24,0,,,,,,,,,,,,,,,,,,,,,,,,,,,,,,,,,,177.49657370000205,178.52321980000124,175.99637760000041,175.99637760000041,175.99637760000041,175.99637760000041,old_sceneOut_39.png,25,2.0,1.4994465999989188,,073,10,2025-05-06_13h59.11.696,Surprise recog test,2023.1.3,59.82618101343004,
25,0,25,0,,,,,,,,,,,,,,,,,,,,,,,,,,,,,,,,,,180.4115110999992,181.43777240000054,178.52321980000124,178.52321980000124,178.52321980000124,178.52321980000124,new_sceneOut_43.png,26,2.0,1.8897778000027756,,073,10,2025-05-06_13h59.11.696,Surprise recog test,2023.1.3,59.82618101343004,
26,0,26,0,,,,,,,,,,,,,,,,,,,,,,,,,,,,,,,,,,183.5336213000046,184.54790599999978,181.43777240000054,181.43777240000054,181.43777240000054,181.43777240000054,new_stationery_41.png,27,2.0,2.0949143999969237,,073,10,2025-05-06_13h59.11.696,Surprise recog test,2023.1.3,59.82618101343004,
27,0,27,0,,,,,,,,,,,,,,,,,,,,,,,,,,,,,,,,,,186.67653630000132,187.69377190000523,184.54790599999978,184.54790599999978,184.54790599999978,184.54790599999978,old_sceneIn_41.png,28,2.0,2.123440600000322,,073,10,2025-05-06_13h59.11.696,Surprise recog test,2023.1.3,59.82618101343004,
28,0,28,0,,,,,,,,,,,,,,,,,,,,,,,,,,,,,,,,,,189.40771700000187,190.42477350000263,187.69377190000523,187.69377190000523,187.69377190000523,187.69377190000523,old_fruit_36.png,29,1.0,1.714763200005109,,073,10,2025-05-06_13h59.11.696,Surprise recog test,2023.1.3,59.82618101343004,
29,0,29,0,,,,,,,,,,,,,,,,,,,,,,,,,,,,,,,,,,192.63128130000405,193.65024529999937,190.42477350000263,190.42477350000263,190.42477350000263,190.42477350000263,new_stationery_36.png,30,3.0,2.205185899998469,,073,10,2025-05-06_13h59.11.696,Surprise recog test,2023.1.3,59.82618101343004,
30,0,30,0,,,,,,,,,,,,,,,,,,,,,,,,,,,,,,,,,,195.4473969000028,196.4687017000033,193.65024529999937,193.65024529999937,193.65024529999937,193.65024529999937,old_stationery_8.png,31,1.0,1.7993631999997888,,073,10,2025-05-06_13h59.11.696,Surprise recog test,2023.1.3,59.82618101343004,
31,0,31,0,,,,,,,,,,,,,,,,,,,,,,,,,,,,,,,,,,197.80603540000448,,196.4687017000033,196.4687017000033,196.4687017000033,196.4687017000033,old_fruit_37.png,32,1.0,1.3398121999998693,,073,10,2025-05-06_13h59.11.696,Surprise recog test,2023.1.3,59.82618101343004,
32,0,32,0,,,,,,,,,,,,,,,,,,,,,,,,,,,,,,,,,,202.72074609999981,203.74108669999987,198.84087379999983,198.84087379999983,198.84087379999983,198.84087379999983,new_sceneIn_31.png,33,2.0,3.8824462999982643,,073,10,2025-05-06_13h59.11.696,Surprise recog test,2023.1.3,59.82618101343004,
33,0,33,0,,,,,,,,,,,,,,,,,,,,,,,,,,,,,,,,,,205.8174766000011,206.84676920000493,203.74108669999987,203.74108669999987,203.74108669999987,203.74108669999987,old_stationery_33.png,34,1.0,2.0767293000026257,,073,10,2025-05-06_13h59.11.696,Surprise recog test,2023.1.3,59.82618101343004,
34,0,34,0,,,,,,,,,,,,,,,,,,,,,,,,,,,,,,,,,,208.4119559000028,209.4281820000033,206.84676920000493,206.84676920000493,206.84676920000493,206.84676920000493,old_stationery_49.png,35,1.0,1.56389830000262,,073,10,2025-05-06_13h59.11.696,Surprise recog test,2023.1.3,59.82618101343004,
35,0,35,0,,,,,,,,,,,,,,,,,,,,,,,,,,,,,,,,,,210.99044600000343,212.01706050000212,209.4281820000033,209.4281820000033,209.4281820000033,209.4281820000033,new_fruit_19.png,36,1.0,1.5634066999991774,,073,10,2025-05-06_13h59.11.696,Surprise recog test,2023.1.3,59.82618101343004,
36,0,36,0,,,,,,,,,,,,,,,,,,,,,,,,,,,,,,,,,,213.70263680000062,,212.01706050000212,212.01706050000212,212.01706050000212,212.01706050000212,old_sceneIn_34.png,37,2.0,1.6876083000024664,,073,10,2025-05-06_13h59.11.696,Surprise recog test,2023.1.3,59.82618101343004,
37,0,37,0,,,,,,,,,,,,,,,,,,,,,,,,,,,,,,,,,,217.05246780000016,218.07395280000492,214.7335361000005,214.7335361000005,214.7335361000005,214.7335361000005,new_stationery_47.png,38,3.0,2.3196478999961982,,073,10,2025-05-06_13h59.11.696,Surprise recog test,2023.1.3,59.82618101343004,
38,0,38,0,,,,,,,,,,,,,,,,,,,,,,,,,,,,,,,,,,220.51415680000355,221.53376710000157,218.07395280000492,218.07395280000492,218.07395280000492,218.07395280000492,old_sceneIn_17.png,39,2.0,2.4434786999991047,,073,10,2025-05-06_13h59.11.696,Surprise recog test,2023.1.3,59.82618101343004,
39,0,39,0,,,,,,,,,,,,,,,,,,,,,,,,,,,,,,,,,,223.98413350000192,225.00195710000116,221.53376710000157,221.53376710000157,221.53376710000157,221.53376710000157,new_fruit_13.png,40,2.0,2.4482779999962077,,073,10,2025-05-06_13h59.11.696,Surprise recog test,2023.1.3,59.82618101343004,
40,0,40,0,,,,,,,,,,,,,,,,,,,,,,,,,,,,,,,,,,226.5184253000043,227.54147580000426,225.00195710000116,225.00195710000116,225.00195710000116,225.00195710000116,new_sceneOut_48.png,41,2.0,1.5127319000021089,,073,10,2025-05-06_13h59.11.696,Surprise recog test,2023.1.3,59.82618101343004,
41,0,41,0,,,,,,,,,,,,,,,,,,,,,,,,,,,,,,,,,,230.4055068000016,231.42716940000537,227.54147580000426,227.54147580000426,227.54147580000426,227.54147580000426,new_fruit_29.png,42,3.0,2.8663961999991443,,073,10,2025-05-06_13h59.11.696,Surprise recog test,2023.1.3,59.82618101343004,
42,0,42,0,,,,,,,,,,,,,,,,,,,,,,,,,,,,,,,,,,233.6529714000062,,231.42716940000537,231.42716940000537,231.42716940000537,231.42716940000537,new_stationery_38.png,43,2.0,2.223602400001255,,073,10,2025-05-06_13h59.11.696,Surprise recog test,2023.1.3,59.82618101343004,
43,0,43,0,,,,,,,,,,,,,,,,,,,,,,,,,,,,,,,,,,236.2077688999998,237.22634060000564,234.67387260000396,234.67387260000396,234.67387260000396,234.67387260000396,new_sceneOut_1.png,44,3.0,1.5309582999980194,,073,10,2025-05-06_13h59.11.696,Surprise recog test,2023.1.3,59.82618101343004,
44,0,44,0,,,,,,,,,,,,,,,,,,,,,,,,,,,,,,,,,,239.2500304999994,240.2687664000041,237.22634060000564,237.22634060000564,237.22634060000564,237.22634060000564,old_stationery_11.png,45,2.0,2.0184280000030412,,073,10,2025-05-06_13h59.11.696,Surprise recog test,2023.1.3,59.82618101343004,
45,0,45,0,,,,,,,,,,,,,,,,,,,,,,,,,,,,,,,,,,242.3215612999993,243.33831120000104,240.2687664000041,240.2687664000041,240.2687664000041,240.2687664000041,new_fruit_49.png,46,3.0,2.0533652999947662,,073,10,2025-05-06_13h59.11.696,Surprise recog test,2023.1.3,59.82618101343004,
46,0,46,0,,,,,,,,,,,,,,,,,,,,,,,,,,,,,,,,,,244.93907749999926,245.95948689999932,243.33831120000104,243.33831120000104,243.33831120000104,243.33831120000104,old_sceneIn_26.png,47,3.0,1.6017089999950258,,073,10,2025-05-06_13h59.11.696,Surprise recog test,2023.1.3,59.82618101343004,
47,0,47,0,,,,,,,,,,,,,,,,,,,,,,,,,,,,,,,,,,247.9107057000001,248.93113620000076,245.95948689999932,245.95948689999932,245.95948689999932,245.95948689999932,old_fruit_8.png,48,1.0,1.9528636999966693,,073,10,2025-05-06_13h59.11.696,Surprise recog test,2023.1.3,59.82618101343004,
48,0,48,0,,,,,,,,,,,,,,,,,,,,,,,,,,,,,,,,,,252.24849399999948,253.2618072000041,248.93113620000076,248.93113620000076,248.93113620000076,248.93113620000076,new_sceneIn_16.png,49,3.0,3.3191340000048513,,073,10,2025-05-06_13h59.11.696,Surprise recog test,2023.1.3,59.82618101343004,
49,0,49,0,,,,,,,,,,,,,,,,,,,,,,,,,,,,,,,,,,255.92435100000148,256.95669890000136,253.2618072000041,253.2618072000041,253.2618072000041,253.2618072000041,new_sceneOut_41.png,50,4.0,2.6633849999998347,,073,10,2025-05-06_13h59.11.696,Surprise recog test,2023.1.3,59.82618101343004,
50,0,50,0,,,,,,,,,,,,,,,,,,,,,,,,,,,,,,,,,,258.9705660000036,259.9923568000013,256.95669890000136,256.95669890000136,256.95669890000136,256.95669890000136,old_stationery_37.png,51,2.0,2.0147964999996475,,073,10,2025-05-06_13h59.11.696,Surprise recog test,2023.1.3,59.82618101343004,
51,0,51,0,,,,,,,,,,,,,,,,,,,,,,,,,,,,,,,,,,261.5564602000013,262.5705645000053,259.9923568000013,259.9923568000013,259.9923568000013,259.9923568000013,old_fruit_12.png,52,1.0,1.5659367999978713,,073,10,2025-05-06_13h59.11.696,Surprise recog test,2023.1.3,59.82618101343004,
52,0,52,0,,,,,,,,,,,,,,,,,,,,,,,,,,,,,,,,,,264.4357522999999,265.4606982000041,262.5705645000053,262.5705645000053,262.5705645000053,262.5705645000053,new_sceneIn_4.png,53,4.0,1.864488799998071,,073,10,2025-05-06_13h59.11.696,Surprise recog test,2023.1.3,59.82618101343004,
53,0,53,0,,,,,,,,,,,,,,,,,,,,,,,,,,,,,,,,,,267.2734125000061,268.28179459999956,265.4606982000041,265.4606982000041,265.4606982000041,265.4606982000041,new_sceneIn_48.png,54,3.0,1.8112515000029816,,073,10,2025-05-06_13h59.11.696,Surprise recog test,2023.1.3,59.82618101343004,
54,0,54,0,,,,,,,,,,,,,,,,,,,,,,,,,,,,,,,,,,270.1221033000038,271.13733050000155,268.28179459999956,268.28179459999956,268.28179459999956,268.28179459999956,old_sceneOut_42.png,55,4.0,1.8350855000026058,,073,10,2025-05-06_13h59.11.696,Surprise recog test,2023.1.3,59.82618101343004,
55,0,55,0,,,,,,,,,,,,,,,,,,,,,,,,,,,,,,,,,,272.5776251000061,273.59616310000274,271.13733050000155,271.13733050000155,271.13733050000155,271.13733050000155,old_fruit_44.png,56,1.0,1.4350278999991133,,073,10,2025-05-06_13h59.11.696,Surprise recog test,2023.1.3,59.82618101343004,
56,0,56,0,,,,,,,,,,,,,,,,,,,,,,,,,,,,,,,,,,276.2751427000039,277.3087699000025,273.59616310000274,273.59616310000274,273.59616310000274,273.59616310000274,new_fruit_4.png,57,2.0,2.6773446000006516,,073,10,2025-05-06_13h59.11.696,Surprise recog test,2023.1.3,59.82618101343004,
57,0,57,0,,,,,,,,,,,,,,,,,,,,,,,,,,,,,,,,,,278.604702800003,279.6184534999993,277.3087699000025,277.3087699000025,277.3087699000025,277.3087699000025,old_stationery_27.png,58,2.0,1.3004856999978074,,073,10,2025-05-06_13h59.11.696,Surprise recog test,2023.1.3,59.82618101343004,
58,0,58,0,,,,,,,,,,,,,,,,,,,,,,,,,,,,,,,,,,281.1810203000059,282.2103725000052,279.6184534999993,279.6184534999993,279.6184534999993,279.6184534999993,new_stationery_10.png,59,1.0,1.5618009000027087,,073,10,2025-05-06_13h59.11.696,Surprise recog test,2023.1.3,59.82618101343004,
59,0,59,0,,,,,,,,,,,,,,,,,,,,,,,,,,,,,,,,,,284.732356600005,285.75843929999974,282.2103725000052,282.2103725000052,282.2103725000052,282.2103725000052,old_sceneIn_6.png,60,3.0,2.524069099999906,,073,10,2025-05-06_13h59.11.696,Surprise recog test,2023.1.3,59.82618101343004,
60,0,60,0,,,,,,,,,,,,,,,,,,,,,,,,,,,,,,,,,,287.56664940000337,288.59659430000465,285.75843929999974,285.75843929999974,285.75843929999974,285.75843929999974,new_fruit_33.png,61,2.0,1.8070609999995213,,073,10,2025-05-06_13h59.11.696,Surprise recog test,2023.1.3,59.82618101343004,
61,0,61,0,,,,,,,,,,,,,,,,,,,,,,,,,,,,,,,,,,290.6482754000026,291.6647912000044,288.59659430000465,288.59659430000465,288.59659430000465,288.59659430000465,old_sceneIn_30.png,62,3.0,2.0482001999989734,,073,10,2025-05-06_13h59.11.696,Surprise recog test,2023.1.3,59.82618101343004,
62,0,62,0,,,,,,,,,,,,,,,,,,,,,,,,,,,,,,,,,,293.36157169999933,294.37104080000427,291.6647912000044,291.6647912000044,291.6647912000044,291.6647912000044,old_fruit_3.png,63,2.0,1.6991779000018141,,073,10,2025-05-06_13h59.11.696,Surprise recog test,2023.1.3,59.82618101343004,
63,0,63,0,,,,,,,,,,,,,,,,,,,,,,,,,,,,,,,,,,296.1624329000042,297.1766892000014,294.37104080000427,294.37104080000427,294.37104080000427,294.37104080000427,old_stationery_48.png,64,1.0,1.7849803999997675,,073,10,2025-05-06_13h59.11.696,Surprise recog test,2023.1.3,59.82618101343004,
64,0,64,0,,,,,,,,,,,,,,,,,,,,,,,,,,,,,,,,,,299.05685390000144,,297.1766892000014,297.1766892000014,297.1766892000014,297.1766892000014,old_stationery_19.png,65,2.0,1.8750965000072028,,073,10,2025-05-06_13h59.11.696,Surprise recog test,2023.1.3,59.82618101343004,
65,0,65,0,,,,,,,,,,,,,,,,,,,,,,,,,,,,,,,,,,301.54468310000084,302.58046760000434,300.0780397000053,300.0780397000053,300.0780397000053,300.0780397000053,old_fruit_24.png,66,1.0,1.4626057999994373,,073,10,2025-05-06_13h59.11.696,Surprise recog test,2023.1.3,59.82618101343004,
66,0,66,0,,,,,,,,,,,,,,,,,,,,,,,,,,,,,,,,,,304.1093523000018,305.1232323000004,302.58046760000434,302.58046760000434,302.58046760000434,302.58046760000434,new_fruit_20.png,67,1.0,1.5301992000022437,,073,10,2025-05-06_13h59.11.696,Surprise recog test,2023.1.3,59.82618101343004,
67,0,67,0,,,,,,,,,,,,,,,,,,,,,,,,,,,,,,,,,,306.58735210000305,307.6108821000016,305.1232323000004,305.1232323000004,305.1232323000004,305.1232323000004,old_sceneIn_27.png,68,1.0,1.4649198000042816,,073,10,2025-05-06_13h59.11.696,Surprise recog test,2023.1.3,59.82618101343004,
68,0,68,0,,,,,,,,,,,,,,,,,,,,,,,,,,,,,,,,,,309.2093387999994,310.2333940000026,307.6108821000016,307.6108821000016,307.6108821000016,307.6108821000016,new_fruit_50.png,69,2.0,1.6006913999954122,,073,10,2025-05-06_13h59.11.696,Surprise recog test,2023.1.3,59.82618101343004,
69,0,69,0,,,,,,,,,,,,,,,,,,,,,,,,,,,,,,,,,,312.6310769000047,313.63712840000517,310.2333940000026,310.2333940000026,310.2333940000026,310.2333940000026,old_stationery_16.png,70,4.0,2.3994947999963188,,073,10,2025-05-06_13h59.11.696,Surprise recog test,2023.1.3,59.82618101343004,
70,0,70,0,,,,,,,,,,,,,,,,,,,,,,,,,,,,,,,,,,315.2097800000047,316.2419563000003,313.63712840000517,313.63712840000517,313.63712840000517,313.63712840000517,old_stationery_15.png,71,4.0,1.5686777000009897,,073,10,2025-05-06_13h59.11.696,Surprise recog test,2023.1.3,59.82618101343004,
71,0,71,0,,,,,,,,,,,,,,,,,,,,,,,,,,,,,,,,,,319.4083860000028,,316.2419563000003,316.2419563000003,316.2419563000003,316.2419563000003,new_stationery_24.png,72,3.0,3.1689476999963517,,073,10,2025-05-06_13h59.11.696,Surprise recog test,2023.1.3,59.82618101343004,
72,0,72,0,,,,,,,,,,,,,,,,,,,,,,,,,,,,,,,,,,321.7289970000056,322.75474220000615,320.42621710000094,320.42621710000094,320.42621710000094,320.42621710000094,old_sceneOut_21.png,73,3.0,1.2997236000010162,,073,10,2025-05-06_13h59.11.696,Surprise recog test,2023.1.3,59.82618101343004,
73,0,73,0,,,,,,,,,,,,,,,,,,,,,,,,,,,,,,,,,,324.658133200006,325.68070440000156,322.75474220000615,322.75474220000615,322.75474220000615,322.75474220000615,old_sceneIn_18.png,74,4.0,1.902071699994849,,073,10,2025-05-06_13h59.11.696,Surprise recog test,2023.1.3,59.82618101343004,
74,0,74,0,,,,,,,,,,,,,,,,,,,,,,,,,,,,,,,,,,327.31893670000136,328.344016300005,325.68070440000156,325.68070440000156,325.68070440000156,325.68070440000156,old_sceneOut_36.png,75,4.0,1.6387133000025642,,073,10,2025-05-06_13h59.11.696,Surprise recog test,2023.1.3,59.82618101343004,
75,0,75,0,,,,,,,,,,,,,,,,,,,,,,,,,,,,,,,,,,329.9962424000041,331.0203926000031,328.344016300005,328.344016300005,328.344016300005,328.344016300005,new_sceneOut_28.png,76,2.0,1.6533563000048161,,073,10,2025-05-06_13h59.11.696,Surprise recog test,2023.1.3,59.82618101343004,
76,0,76,0,,,,,,,,,,,,,,,,,,,,,,,,,,,,,,,,,,333.252911100004,,331.0203926000031,331.0203926000031,331.0203926000031,331.0203926000031,old_sceneIn_10.png,77,3.0,2.23668539999926,,073,10,2025-05-06_13h59.11.696,Surprise recog test,2023.1.3,59.82618101343004,
77,0,77,0,,,,,,,,,,,,,,,,,,,,,,,,,,,,,,,,,,335.9498365000036,336.9679778999998,334.2731440999996,334.2731440999996,334.2731440999996,334.2731440999996,old_sceneIn_42.png,78,2.0,1.672269900001993,,073,10,2025-05-06_13h59.11.696,Surprise recog test,2023.1.3,59.82618101343004,
78,0,78,0,,,,,,,,,,,,,,,,,,,,,,,,,,,,,,,,,,338.73252380000486,339.7523646000045,336.9679778999998,336.9679778999998,336.9679778999998,336.9679778999998,old_sceneOut_23.png,79,2.0,1.7659214999948745,,073,10,2025-05-06_13h59.11.696,Surprise recog test,2023.1.3,59.82618101343004,
79,0,79,0,,,,,,,,,,,,,,,,,,,,,,,,,,,,,,,,,,341.7205182000034,342.7357326000056,339.7523646000045,339.7523646000045,339.7523646000045,339.7523646000045,new_stationery_43.png,80,4.0,1.9683634000029997,,073,10,2025-05-06_13h59.11.696,Surprise recog test,2023.1.3,59.82618101343004,
80,0,80,0,,,,,,,,,,,,,,,,,,,,,,,,,,,,,,,,,,344.8261827000024,345.8428574999998,342.7357326000056,342.7357326000056,342.7357326000056,342.7357326000056,new_sceneIn_12.png,81,4.0,2.089742100004514,,073,10,2025-05-06_13h59.11.696,Surprise recog test,2023.1.3,59.82618101343004,
81,0,81,0,,,,,,,,,,,,,,,,,,,,,,,,,,,,,,,,,,348.38629819999915,349.4079445000025,345.8428574999998,345.8428574999998,345.8428574999998,345.8428574999998,old_stationery_17.png,82,3.0,2.544624300004216,,073,10,2025-05-06_13h59.11.696,Surprise recog test,2023.1.3,59.82618101343004,
82,0,82,0,,,,,,,,,,,,,,,,,,,,,,,,,,,,,,,,,,351.0037414000035,352.03108950000023,349.4079445000025,349.4079445000025,349.4079445000025,349.4079445000025,old_fruit_43.png,83,1.0,1.594369500002358,,073,10,2025-05-06_13h59.11.696,Surprise recog test,2023.1.3,59.82618101343004,
83,0,83,0,,,,,,,,,,,,,,,,,,,,,,,,,,,,,,,,,,353.57395380000526,354.5881226000056,352.03108950000023,352.03108950000023,352.03108950000023,352.03108950000023,old_fruit_9.png,84,1.0,1.5449407999985851,,073,10,2025-05-06_13h59.11.696,Surprise recog test,2023.1.3,59.82618101343004,
84,0,84,0,,,,,,,,,,,,,,,,,,,,,,,,,,,,,,,,,,356.62412649999897,357.6556462000008,354.5881226000056,354.5881226000056,354.5881226000056,354.5881226000056,new_sceneIn_34.png,85,2.0,2.031031599995913,,073,10,2025-05-06_13h59.11.696,Surprise recog test,2023.1.3,59.82618101343004,
85,0,85,0,,,,,,,,,,,,,,,,,,,,,,,,,,,,,,,,,,359.4941319999998,360.5242763999995,357.6556462000008,357.6556462000008,357.6556462000008,357.6556462000008,old_stationery_46.png,86,2.0,1.8364968999958364,,073,10,2025-05-06_13h59.11.696,Surprise recog test,2023.1.3,59.82618101343004,
86,0,86,0,,,,,,,,,,,,,,,,,,,,,,,,,,,,,,,,,,362.6402023000046,363.6621344000014,360.5242763999995,360.5242763999995,360.5242763999995,360.5242763999995,new_stationery_46.png,87,4.0,2.1163318999970215,,073,10,2025-05-06_13h59.11.696,Surprise recog test,2023.1.3,59.82618101343004,
87,0,87,0,,,,,,,,,,,,,,,,,,,,,,,,,,,,,,,,,,365.5386686999991,366.55098530000396,363.6621344000014,363.6621344000014,363.6621344000014,363.6621344000014,new_sceneIn_21.png,88,4.0,1.8802463000029093,,073,10,2025-05-06_13h59.11.696,Surprise recog test,2023.1.3,59.82618101343004,
88,0,88,0,,,,,,,,,,,,,,,,,,,,,,,,,,,,,,,,,,367.9318271000011,,366.55098530000396,366.55098530000396,366.55098530000396,366.55098530000396,new_fruit_28.png,89,2.0,1.3740716000029352,,073,10,2025-05-06_13h59.11.696,Surprise recog test,2023.1.3,59.82618101343004,
89,0,89,0,,,,,,,,,,,,,,,,,,,,,,,,,,,,,,,,,,370.33470410000155,371.3616686000023,368.96236730000237,368.96236730000237,368.96236730000237,368.96236730000237,new_fruit_1.png,90,2.0,1.3720369000002393,,073,10,2025-05-06_13h59.11.696,Surprise recog test,2023.1.3,59.82618101343004,
90,0,90,0,,,,,,,,,,,,,,,,,,,,,,,,,,,,,,,,,,373.5119752000028,374.537144599999,371.3616686000023,371.3616686000023,371.3616686000023,371.3616686000023,old_stationery_24.png,91,1.0,2.1496660000047996,,073,10,2025-05-06_13h59.11.696,Surprise recog test,2023.1.3,59.82618101343004,
91,0,91,0,,,,,,,,,,,,,,,,,,,,,,,,,,,,,,,,,,375.8961666000032,376.9102791000041,374.537144599999,374.537144599999,374.537144599999,374.537144599999,new_sceneOut_26.png,92,2.0,1.3596120000001974,,073,10,2025-05-06_13h59.11.696,Surprise recog test,2023.1.3,59.82618101343004,
92,0,92,0,,,,,,,,,,,,,,,,,,,,,,,,,,,,,,,,,,378.67884570000024,379.6956092000037,376.9102791000041,376.9102791000041,376.9102791000041,376.9102791000041,new_stationery_26.png,93,3.0,1.7643217999939225,,073,10,2025-05-06_13h59.11.696,Surprise recog test,2023.1.3,59.82618101343004,
93,0,93,0,,,,,,,,,,,,,,,,,,,,,,,,,,,,,,,,,,381.36047070000495,382.3923584000004,379.6956092000037,379.6956092000037,379.6956092000037,379.6956092000037,old_sceneIn_1.png,94,3.0,1.6602171000049566,,073,10,2025-05-06_13h59.11.696,Surprise recog test,2023.1.3,59.82618101343004,
94,0,94,0,,,,,,,,,,,,,,,,,,,,,,,,,,,,,,,,,,384.65747399999964,385.6792650999996,382.3923584000004,382.3923584000004,382.3923584000004,382.3923584000004,new_fruit_42.png,95,2.0,2.267848999996204,,073,10,2025-05-06_13h59.11.696,Surprise recog test,2023.1.3,59.82618101343004,
95,0,95,0,,,,,,,,,,,,,,,,,,,,,,,,,,,,,,,,,,388.2425929000019,389.26204860000144,385.6792650999996,385.6792650999996,385.6792650999996,385.6792650999996,old_sceneOut_24.png,96,4.0,2.5657302000035997,,073,10,2025-05-06_13h59.11.696,Surprise recog test,2023.1.3,59.82618101343004,
96,0,96,0,,,,,,,,,,,,,,,,,,,,,,,,,,,,,,,,,,392.2619726000048,393.28410599999916,389.26204860000144,389.26204860000144,389.26204860000144,389.26204860000144,new_fruit_24.png,97,4.0,2.9994934999995166,,073,10,2025-05-06_13h59.11.696,Surprise recog test,2023.1.3,59.82618101343004,
97,0,97,0,,,,,,,,,,,,,,,,,,,,,,,,,,,,,,,,,,395.0123784000025,396.03261490000295,393.28410599999916,393.28410599999916,393.28410599999916,393.28410599999916,old_fruit_1.png,98,2.0,1.7300608000005013,,073,10,2025-05-06_13h59.11.696,Surprise recog test,2023.1.3,59.82618101343004,
98,0,98,0,,,,,,,,,,,,,,,,,,,,,,,,,,,,,,,,,,398.1476184999992,399.16853110000375,396.03261490000295,396.03261490000295,396.03261490000295,396.03261490000295,new_fruit_46.png,99,3.0,2.115425799995137,,073,10,2025-05-06_13h59.11.696,Surprise recog test,2023.1.3,59.82618101343004,
99,0,99,0,,,,,,,,,,,,,,,,,,,,,,,,,,,,,,,,,,401.42647620000207,,399.16853110000375,399.16853110000375,399.16853110000375,399.16853110000375,old_sceneOut_30.png,100,2.0,2.256318100000499,,073,10,2025-05-06_13h59.11.696,Surprise recog test,2023.1.3,59.82618101343004,
100,0,100,0,,,,,,,,,,,,,,,,,,,,,,,,,,,,,,,,,,404.74927890000254,405.77707550000196,402.45104800000263,402.45104800000263,402.45104800000263,402.45104800000263,new_sceneOut_35.png,101,3.0,2.298251699998218,,073,10,2025-05-06_13h59.11.696,Surprise recog test,2023.1.3,59.82618101343004,
101,0,101,0,,,,,,,,,,,,,,,,,,,,,,,,,,,,,,,,,,407.9866364000045,409.01184490000014,405.77707550000196,405.77707550000196,405.77707550000196,405.77707550000196,old_fruit_4.png,102,2.0,2.210356399999,,073,10,2025-05-06_13h59.11.696,Surprise recog test,2023.1.3,59.82618101343004,
102,0,102,0,,,,,,,,,,,,,,,,,,,,,,,,,,,,,,,,,,410.8212569000025,411.85016480000195,409.01184490000014,409.01184490000014,409.01184490000014,409.01184490000014,old_stationery_40.png,103,1.0,1.8099293999985093,,073,10,2025-05-06_13h59.11.696,Surprise recog test,2023.1.3,59.82618101343004,
103,0,103,0,,,,,,,,,,,,,,,,,,,,,,,,,,,,,,,,,,413.9702663000062,,411.85016480000195,411.85016480000195,411.85016480000195,411.85016480000195,new_fruit_44.png,104,2.0,2.1228456999961054,,073,10,2025-05-06_13h59.11.696,Surprise recog test,2023.1.3,59.82618101343004,
104,0,104,0,,,,,,,,,,,,,,,,,,,,,,,,,,,,,,,,,,416.9193260000029,417.9362497000038,414.9966735000053,414.9966735000053,414.9966735000053,414.9966735000053,old_stationery_7.png,105,2.0,1.9244594999981928,,073,10,2025-05-06_13h59.11.696,Surprise recog test,2023.1.3,59.82618101343004,
105,0,105,0,,,,,,,,,,,,,,,,,,,,,,,,,,,,,,,,,,419.7876004999998,420.79508650000207,417.9362497000038,417.9362497000038,417.9362497000038,417.9362497000038,old_sceneOut_50.png,106,4.0,1.8485766999947373,,073,10,2025-05-06_13h59.11.696,Surprise recog test,2023.1.3,59.82618101343004,
106,0,106,0,,,,,,,,,,,,,,,,,,,,,,,,,,,,,,,,,,422.8735780999996,423.88226040000154,420.79508650000207,420.79508650000207,420.79508650000207,420.79508650000207,new_sceneIn_20.png,107,2.0,2.0748821000015596,,073,10,2025-05-06_13h59.11.696,Surprise recog test,2023.1.3,59.82618101343004,
107,0,107,0,,,,,,,,,,,,,,,,,,,,,,,,,,,,,,,,,,426.29730660000496,,423.88226040000154,423.88226040000154,423.88226040000154,423.88226040000154,old_sceneIn_37.png,108,2.0,2.410528799999156,,073,10,2025-05-06_13h59.11.696,Surprise recog test,2023.1.3,59.82618101343004,
108,0,108,0,,,,,,,,,,,,,,,,,,,,,,,,,,,,,,,,,,429.2060694000029,430.2300041000053,427.32288650000555,427.32288650000555,427.32288650000555,427.32288650000555,new_stationery_32.png,109,4.0,1.8786277000035625,,073,10,2025-05-06_13h59.11.696,Surprise recog test,2023.1.3,59.82618101343004,
109,0,109,0,,,,,,,,,,,,,,,,,,,,,,,,,,,,,,,,,,432.28254420000303,433.2886110000036,430.2300041000053,430.2300041000053,430.2300041000053,430.2300041000053,old_sceneIn_8.png,110,4.0,2.0538856999992277,,073,10,2025-05-06_13h59.11.696,Surprise recog test,2023.1.3,59.82618101343004,
110,0,110,0,,,,,,,,,,,,,,,,,,,,,,,,,,,,,,,,,,435.79388210000616,436.82228930000565,433.2886110000036,433.2886110000036,433.2886110000036,433.2886110000036,new_stationery_8.png,111,4.0,2.4994510000033188,,073,10,2025-05-06_13h59.11.696,Surprise recog test,2023.1.3,59.82618101343004,
111,0,111,0,,,,,,,,,,,,,,,,,,,,,,,,,,,,,,,,,,440.09764310000173,441.11214750000363,436.82228930000565,436.82228930000565,436.82228930000565,436.82228930000565,old_sceneOut_40.png,112,4.0,3.277003199997125,,073,10,2025-05-06_13h59.11.696,Surprise recog test,2023.1.3,59.82618101343004,
112,0,112,0,,,,,,,,,,,,,,,,,,,,,,,,,,,,,,,,,,443.28365530000156,444.3093035000056,441.11214750000363,441.11214750000363,441.11214750000363,441.11214750000363,old_stationery_10.png,113,5.0,2.1668668999991496,,073,10,2025-05-06_13h59.11.696,Surprise recog test,2023.1.3,59.82618101343004,
113,0,113,0,,,,,,,,,,,,,,,,,,,,,,,,,,,,,,,,,,446.4619664000056,,444.3093035000056,444.3093035000056,444.3093035000056,444.3093035000056,old_sceneOut_8.png,114,1.0,2.1532921999969403,,073,10,2025-05-06_13h59.11.696,Surprise recog test,2023.1.3,59.82618101343004,
114,0,114,0,,,,,,,,,,,,,,,,,,,,,,,,,,,,,,,,,,448.8010388000039,449.829622199999,447.4841044999994,447.4841044999994,447.4841044999994,447.4841044999994,new_fruit_23.png,115,2.0,1.312647200000356,,073,10,2025-05-06_13h59.11.696,Surprise recog test,2023.1.3,59.82618101343004,
115,0,115,0,,,,,,,,,,,,,,,,,,,,,,,,,,,,,,,,,,452.30070610000257,,449.829622199999,449.829622199999,449.829622199999,449.829622199999,new_stationery_4.png,116,2.0,2.4693040999991354,,073,10,2025-05-06_13h59.11.696,Surprise recog test,2023.1.3,59.82618101343004,
116,0,116,0,,,,,,,,,,,,,,,,,,,,,,,,,,,,,,,,,,454.9424705000056,455.9676097000047,453.3229206000033,453.3229206000033,453.3229206000033,453.3229206000033,old_fruit_26.png,117,2.0,1.616333099998883,,073,10,2025-05-06_13h59.11.696,Surprise recog test,2023.1.3,59.82618101343004,
117,0,117,0,,,,,,,,,,,,,,,,,,,,,,,,,,,,,,,,,,457.86000340000464,458.8858390000023,455.9676097000047,455.9676097000047,455.9676097000047,455.9676097000047,old_stationery_36.png,118,3.0,1.894153399996867,,073,10,2025-05-06_13h59.11.696,Surprise recog test,2023.1.3,59.82618101343004,
118,0,118,0,,,,,,,,,,,,,,,,,,,,,,,,,,,,,,,,,,460.47661430000153,461.50019050000265,458.8858390000023,458.8858390000023,458.8858390000023,458.8858390000023,old_fruit_33.png,119,1.0,1.5922905999977957,,073,10,2025-05-06_13h59.11.696,Surprise recog test,2023.1.3,59.82618101343004,
119,0,119,0,,,,,,,,,,,,,,,,,,,,,,,,,,,,,,,,,,463.40453150000394,464.4271007000061,461.50019050000265,461.50019050000265,461.50019050000265,461.50019050000265,new_stationery_13.png,120,2.0,1.9014754999952856,,073,10,2025-05-06_13h59.11.696,Surprise recog test,2023.1.3,59.82618101343004,
120,0,120,0,,,,,,,,,,,,,,,,,,,,,,,,,,,,,,,,,,466.77038690000336,467.7841408000022,464.4271007000061,464.4271007000061,464.4271007000061,464.4271007000061,old_stationery_23.png,121,3.0,2.3437813999989885,,073,10,2025-05-06_13h59.11.696,Surprise recog test,2023.1.3,59.82618101343004,
121,0,121,0,,,,,,,,,,,,,,,,,,,,,,,,,,,,,,,,,,470.22066520000226,471.23735999999917,467.7841408000022,467.7841408000022,467.7841408000022,467.7841408000022,old_stationery_5.png,122,2.0,2.4316010999973514,,073,10,2025-05-06_13h59.11.696,Surprise recog test,2023.1.3,59.82618101343004,
122,0,122,0,,,,,,,,,,,,,,,,,,,,,,,,,,,,,,,,,,473.0059817000001,474.03607050000574,471.23735999999917,471.23735999999917,471.23735999999917,471.23735999999917,new_sceneOut_3.png,123,2.0,1.7635467000000062,,073,10,2025-05-06_13h59.11.696,Surprise recog test,2023.1.3,59.82618101343004,
123,0,123,0,,,,,,,,,,,,,,,,,,,,,,,,,,,,,,,,,,475.43512570000166,476.4492262000058,474.03607050000574,474.03607050000574,474.03607050000574,474.03607050000574,new_stationery_50.png,124,3.0,1.3985261999987415,,073,10,2025-05-06_13h59.11.696,Surprise recog test,2023.1.3,59.82618101343004,
124,0,124,0,,,,,,,,,,,,,,,,,,,,,,,,,,,,,,,,,,478.3713624000011,479.382451700003,476.4492262000058,476.4492262000058,476.4492262000058,476.4492262000058,old_sceneIn_7.png,125,2.0,1.9230693999998039,,073,10,2025-05-06_13h59.11.696,Surprise recog test,2023.1.3,59.82618101343004,
125,0,125,0,,,,,,,,,,,,,,,,,,,,,,,,,,,,,,,,,,481.79302460000326,,479.382451700003,479.382451700003,479.382451700003,479.382451700003,new_sceneIn_2.png,126,4.0,2.408463899999333,,073,10,2025-05-06_13h59.11.696,Surprise recog test,2023.1.3,59.82618101343004,
126,0,126,0,,,,,,,,,,,,,,,,,,,,,,,,,,,,,,,,,,484.2842085000011,485.3001332999993,482.8213892999993,482.8213892999993,482.8213892999993,482.8213892999993,new_stationery_44.png,127,2.0,1.4629097000070033,,073,10,2025-05-06_13h59.11.696,Surprise recog test,2023.1.3,59.82618101343004,
127,0,127,0,,,,,,,,,,,,,,,,,,,,,,,,,,,,,,,,,,486.73090840000077,,485.3001332999993,485.3001332999993,485.3001332999993,485.3001332999993,old_sceneOut_37.png,128,2.0,1.4269983000049251,,073,10,2025-05-06_13h59.11.696,Surprise recog test,2023.1.3,59.82618101343004,
128,0,128,0,,,,,,,,,,,,,,,,,,,,,,,,,,,,,,,,,,489.0654282000032,,487.7633730000016,487.7633730000016,487.7633730000016,487.7633730000016,old_stationery_6.png,129,2.0,1.3016607999961707,,073,10,2025-05-06_13h59.11.696,Surprise recog test,2023.1.3,59.82618101343004,
129,0,129,0,,,,,,,,,,,,,,,,,,,,,,,,,,,,,,,,,,492.21237100000144,493.2386278000049,490.09862570000405,490.09862570000405,490.09862570000405,490.09862570000405,old_sceneIn_2.png,130,1.0,2.1171466000014334,,073,10,2025-05-06_13h59.11.696,Surprise recog test,2023.1.3,59.82618101343004,
130,0,130,0,,,,,,,,,,,,,,,,,,,,,,,,,,,,,,,,,,494.9280682000026,495.940059200002,493.2386278000049,493.2386278000049,493.2386278000049,493.2386278000049,old_sceneIn_45.png,131,1.0,1.6898922000036691,,073,10,2025-05-06_13h59.11.696,Surprise recog test,2023.1.3,59.82618101343004,
131,0,131,0,,,,,,,,,,,,,,,,,,,,,,,,,,,,,,,,,,497.3917952000047,498.42072460000054,495.940059200002,495.940059200002,495.940059200002,495.940059200002,old_fruit_48.png,132,1.0,1.4477111000014702,,073,10,2025-05-06_13h59.11.696,Surprise recog test,2023.1.3,59.82618101343004,
132,0,132,0,,,,,,,,,,,,,,,,,,,,,,,,,,,,,,,,,,500.70160630000464,501.72828570000274,498.42072460000054,498.42072460000054,498.42072460000054,498.42072460000054,old_sceneIn_28.png,133,1.0,2.2825951000049827,,073,10,2025-05-06_13h59.11.696,Surprise recog test,2023.1.3,59.82618101343004,
133,0,133,0,,,,,,,,,,,,,,,,,,,,,,,,,,,,,,,,,,504.16119099999923,,501.72828570000274,501.72828570000274,501.72828570000274,501.72828570000274,new_sceneOut_21.png,134,2.0,2.4367351999972016,,073,10,2025-05-06_13h59.11.696,Surprise recog test,2023.1.3,59.82618101343004,
134,0,134,0,,,,,,,,,,,,,,,,,,,,,,,,,,,,,,,,,,507.6685881000012,508.69518170000083,505.18529970000236,505.18529970000236,505.18529970000236,505.18529970000236,new_sceneIn_44.png,135,2.0,2.4804380999994464,,073,10,2025-05-06_13h59.11.696,Surprise recog test,2023.1.3,59.82618101343004,
135,0,135,0,,,,,,,,,,,,,,,,,,,,,,,,,,,,,,,,,,511.655772099999,512.6782376000046,508.69518170000083,508.69518170000083,508.69518170000083,508.69518170000083,new_stationery_30.png,136,2.0,2.963149399998656,,073,10,2025-05-06_13h59.11.696,Surprise recog test,2023.1.3,59.82618101343004,
136,0,136,0,,,,,,,,,,,,,,,,,,,,,,,,,,,,,,,,,,515.1669500000062,516.1810660000046,512.6782376000046,512.6782376000046,512.6782376000046,512.6782376000046,new_sceneOut_11.png,137,4.0,2.4892755999971996,,073,10,2025-05-06_13h59.11.696,Surprise recog test,2023.1.3,59.82618101343004,
137,0,137,0,,,,,,,,,,,,,,,,,,,,,,,,,,,,,,,,,,518.4800212000046,519.5014628999998,516.1810660000046,516.1810660000046,516.1810660000046,516.1810660000046,old_sceneOut_14.png,138,4.0,2.2977106000034837,,073,10,2025-05-06_13h59.11.696,Surprise recog test,2023.1.3,59.82618101343004,
138,0,138,0,,,,,,,,,,,,,,,,,,,,,,,,,,,,,,,,,,522.2751061000017,,519.5014628999998,519.5014628999998,519.5014628999998,519.5014628999998,new_sceneOut_23.png,139,4.0,2.7723939000061364,,073,10,2025-05-06_13h59.11.696,Surprise recog test,2023.1.3,59.82618101343004,
139,0,139,0,,,,,,,,,,,,,,,,,,,,,,,,,,,,,,,,,,525.2370377000043,526.2537594000023,523.306236700002,523.306236700002,523.306236700002,523.306236700002,old_sceneOut_1.png,140,2.0,1.932419499993557,,073,10,2025-05-06_13h59.11.696,Surprise recog test,2023.1.3,59.82618101343004,
140,0,140,0,,,,,,,,,,,,,,,,,,,,,,,,,,,,,,,,,,527.9282674999995,528.9486548999994,526.2537594000023,526.2537594000023,526.2537594000023,526.2537594000023,old_fruit_31.png,141,1.0,1.671486699997331,,073,10,2025-05-06_13h59.11.696,Surprise recog test,2023.1.3,59.82618101343004,
141,0,141,0,,,,,,,,,,,,,,,,,,,,,,,,,,,,,,,,,,530.7411002000008,531.7589384000021,528.9486548999994,528.9486548999994,528.9486548999994,528.9486548999994,new_stationery_21.png,142,3.0,1.793130400001246,,073,10,2025-05-06_13h59.11.696,Surprise recog test,2023.1.3,59.82618101343004,
142,0,142,0,,,,,,,,,,,,,,,,,,,,,,,,,,,,,,,,,,534.2925391000026,535.3035087000026,531.7589384000021,531.7589384000021,531.7589384000021,531.7589384000021,new_sceneOut_22.png,143,2.0,2.531264099998225,,073,10,2025-05-06_13h59.11.696,Surprise recog test,2023.1.3,59.82618101343004,
143,0,143,0,,,,,,,,,,,,,,,,,,,,,,,,,,,,,,,,,,536.8203565000003,,535.3035087000026,535.3035087000026,535.3035087000026,535.3035087000026,old_stationery_13.png,144,1.0,1.5122265000027255,,073,10,2025-05-06_13h59.11.696,Surprise recog test,2023.1.3,59.82618101343004,
144,0,144,0,,,,,,,,,,,,,,,,,,,,,,,,,,,,,,,,,,539.9375317000013,540.9455716000011,537.8541714000021,537.8541714000021,537.8541714000021,537.8541714000021,new_sceneOut_13.png,145,2.0,2.0819867000027443,,073,10,2025-05-06_13h59.11.696,Surprise recog test,2023.1.3,59.82618101343004,
145,0,145,0,,,,,,,,,,,,,,,,,,,,,,,,,,,,,,,,,,542.6936790000036,,540.9455716000011,540.9455716000011,540.9455716000011,540.9455716000011,new_sceneOut_44.png,146,4.0,1.7432950000002165,,073,10,2025-05-06_13h59.11.696,Surprise recog test,2023.1.3,59.82618101343004,
146,0,146,0,,,,,,,,,,,,,,,,,,,,,,,,,,,,,,,,,,545.4440834000052,546.4623814000006,543.7234520000056,543.7234520000056,543.7234520000056,543.7234520000056,new_sceneOut_30.png,147,2.0,1.7221726999996463,,073,10,2025-05-06_13h59.11.696,Surprise recog test,2023.1.3,59.82618101343004,
147,0,147,0,,,,,,,,,,,,,,,,,,,,,,,,,,,,,,,,,,549.5341792000036,550.5543386999998,546.4623814000006,546.4623814000006,546.4623814000006,546.4623814000006,old_sceneIn_25.png,148,3.0,3.073144099995261,,073,10,2025-05-06_13h59.11.696,Surprise recog test,2023.1.3,59.82618101343004,
148,0,148,0,,,,,,,,,,,,,,,,,,,,,,,,,,,,,,,,,,552.1519189000028,,550.5543386999998,550.5543386999998,550.5543386999998,550.5543386999998,old_sceneOut_11.png,149,2.0,1.5881159999989904,,073,10,2025-05-06_13h59.11.696,Surprise recog test,2023.1.3,59.82618101343004,
149,0,149,0,,,,,,,,,,,,,,,,,,,,,,,,,,,,,,,,,,554.906624700001,555.9318519000008,553.1718677000026,553.1718677000026,553.1718677000026,553.1718677000026,old_sceneOut_41.png,150,2.0,1.729923200000485,,073,10,2025-05-06_13h59.11.696,Surprise recog test,2023.1.3,59.82618101343004,
150,0,150,0,,,,,,,,,,,,,,,,,,,,,,,,,,,,,,,,,,557.5721766999995,,555.9318519000008,555.9318519000008,555.9318519000008,555.9318519000008,new_stationery_31.png,151,2.0,1.6418704000025173,,073,10,2025-05-06_13h59.11.696,Surprise recog test,2023.1.3,59.82618101343004,
151,0,151,0,,,,,,,,,,,,,,,,,,,,,,,,,,,,,,,,,,560.461970700002,561.479803400005,558.5945407000036,558.5945407000036,558.5945407000036,558.5945407000036,new_fruit_11.png,152,2.0,1.8646860000008019,,073,10,2025-05-06_13h59.11.696,Surprise recog test,2023.1.3,59.82618101343004,
152,0,152,0,,,,,,,,,,,,,,,,,,,,,,,,,,,,,,,,,,564.6336318000031,565.654566199999,561.479803400005,561.479803400005,561.479803400005,561.479803400005,old_sceneIn_44.png,153,2.0,3.149589599997853,,073,10,2025-05-06_13h59.11.696,Surprise recog test,2023.1.3,59.82618101343004,
153,0,153,0,,,,,,,,,,,,,,,,,,,,,,,,,,,,,,,,,,568.0861013000031,569.1085464000062,565.654566199999,565.654566199999,565.654566199999,565.654566199999,old_sceneIn_50.png,154,3.0,2.4315635999955703,,073,10,2025-05-06_13h59.11.696,Surprise recog test,2023.1.3,59.82618101343004,
154,0,154,0,,,,,,,,,,,,,,,,,,,,,,,,,,,,,,,,,,571.2302046000041,572.2466208000042,569.1085464000062,569.1085464000062,569.1085464000062,569.1085464000062,old_fruit_19.png,155,1.0,2.1179569000014453,,073,10,2025-05-06_13h59.11.696,Surprise recog test,2023.1.3,59.82618101343004,
155,0,155,0,,,,,,,,,,,,,,,,,,,,,,,,,,,,,,,,,,574.3717697000029,575.4018662000017,572.2466208000042,572.2466208000042,572.2466208000042,572.2466208000042,new_stationery_11.png,156,3.0,2.1265684999962104,,073,10,2025-05-06_13h59.11.696,Surprise recog test,2023.1.3,59.82618101343004,
156,0,156,0,,,,,,,,,,,,,,,,,,,,,,,,,,,,,,,,,,577.7484786000059,578.7704149000056,575.4018662000017,575.4018662000017,575.4018662000017,575.4018662000017,old_fruit_41.png,157,2.0,2.348570900001505,,073,10,2025-05-06_13h59.11.696,Surprise recog test,2023.1.3,59.82618101343004,
157,0,157,0,,,,,,,,,,,,,,,,,,,,,,,,,,,,,,,,,,581.0800334000014,582.1084333000035,578.7704149000056,578.7704149000056,578.7704149000056,578.7704149000056,new_fruit_9.png,158,2.0,2.3106275999962236,,073,10,2025-05-06_13h59.11.696,Surprise recog test,2023.1.3,59.82618101343004,
158,0,158,0,,,,,,,,,,,,,,,,,,,,,,,,,,,,,,,,,,584.580343600006,585.6048358000044,582.1084333000035,582.1084333000035,582.1084333000035,582.1084333000035,new_sceneIn_32.png,159,2.0,2.474507099999755,,073,10,2025-05-06_13h59.11.696,Surprise recog test,2023.1.3,59.82618101343004,
159,0,159,0,,,,,,,,,,,,,,,,,,,,,,,,,,,,,,,,,,589.4724362000052,590.4956253000055,585.6048358000044,585.6048358000044,585.6048358000044,585.6048358000044,old_fruit_25.png,160,2.0,3.867958800001361,,073,10,2025-05-06_13h59.11.696,Surprise recog test,2023.1.3,59.82618101343004,
160,0,160,0,,,,,,,,,,,,,,,,,,,,,,,,,,,,,,,,,,592.6920591000016,593.7125277000014,590.4956253000055,590.4956253000055,590.4956253000055,590.4956253000055,old_sceneOut_22.png,161,3.0,2.1917921000058413,,073,10,2025-05-06_13h59.11.696,Surprise recog test,2023.1.3,59.82618101343004,
161,0,161,0,,,,,,,,,,,,,,,,,,,,,,,,,,,,,,,,,,595.5263347,596.5545532000033,593.7125277000014,593.7125277000014,593.7125277000014,593.7125277000014,new_sceneOut_45.png,162,3.0,1.8143156000005547,,073,10,2025-05-06_13h59.11.696,Surprise recog test,2023.1.3,59.82618101343004,
162,0,162,0,,,,,,,,,,,,,,,,,,,,,,,,,,,,,,,,,,598.6782741000061,599.701017600004,596.5545532000033,596.5545532000033,596.5545532000033,596.5545532000033,old_sceneIn_48.png,163,2.0,2.125061699996877,,073,10,2025-05-06_13h59.11.696,Surprise recog test,2023.1.3,59.82618101343004,
163,0,163,0,,,,,,,,,,,,,,,,,,,,,,,,,,,,,,,,,,602.4228130000047,603.435959800001,599.701017600004,599.701017600004,599.701017600004,599.701017600004,new_fruit_45.png,164,4.0,2.7230678999985685,,073,10,2025-05-06_13h59.11.696,Surprise recog test,2023.1.3,59.82618101343004,
164,0,164,0,,,,,,,,,,,,,,,,,,,,,,,,,,,,,,,,,,606.0323197000034,607.0596590000059,603.435959800001,603.435959800001,603.435959800001,603.435959800001,new_stationery_5.png,165,3.0,2.5973998999979813,,073,10,2025-05-06_13h59.11.696,Surprise recog test,2023.1.3,59.82618101343004,
165,0,165,0,,,,,,,,,,,,,,,,,,,,,,,,,,,,,,,,,,608.7242058000047,609.7422477,607.0596590000059,607.0596590000059,607.0596590000059,607.0596590000059,new_stationery_2.png,166,1.0,1.6645271000015782,,073,10,2025-05-06_13h59.11.696,Surprise recog test,2023.1.3,59.82618101343004,
166,0,166,0,,,,,,,,,,,,,,,,,,,,,,,,,,,,,,,,,,612.469932,613.5005266000007,609.7422477,609.7422477,609.7422477,609.7422477,old_sceneIn_32.png,167,4.0,2.7281279000017093,,073,10,2025-05-06_13h59.11.696,Surprise recog test,2023.1.3,59.82618101343004,
167,0,167,0,,,,,,,,,,,,,,,,,,,,,,,,,,,,,,,,,,615.7976469999994,616.8131362000058,613.5005266000007,613.5005266000007,613.5005266000007,613.5005266000007,new_fruit_32.png,168,4.0,2.297225200003595,,073,10,2025-05-06_13h59.11.696,Surprise recog test,2023.1.3,59.82618101343004,
168,0,168,0,,,,,,,,,,,,,,,,,,,,,,,,,,,,,,,,,,618.4484592000008,619.4613539000056,616.8131362000058,616.8131362000058,616.8131362000058,616.8131362000058,old_fruit_5.png,169,1.0,1.6354110000029323,,073,10,2025-05-06_13h59.11.696,Surprise recog test,2023.1.3,59.82618101343004,
169,0,169,0,,,,,,,,,,,,,,,,,,,,,,,,,,,,,,,,,,621.957628600001,622.9798131999996,619.4613539000056,619.4613539000056,619.4613539000056,619.4613539000056,new_fruit_43.png,170,4.0,2.4916202000022167,,073,10,2025-05-06_13h59.11.696,Surprise recog test,2023.1.3,59.82618101343004,
170,0,170,0,,,,,,,,,,,,,,,,,,,,,,,,,,,,,,,,,,625.4020535000018,626.4230305000019,622.9798131999996,622.9798131999996,622.9798131999996,622.9798131999996,new_sceneOut_10.png,171,3.0,2.4240855000025476,,073,10,2025-05-06_13h59.11.696,Surprise recog test,2023.1.3,59.82618101343004,
171,0,171,0,,,,,,,,,,,,,,,,,,,,,,,,,,,,,,,,,,628.6828855999993,629.7091122000056,626.4230305000019,626.4230305000019,626.4230305000019,626.4230305000019,old_sceneIn_36.png,172,4.0,2.2600607000058517,,073,10,2025-05-06_13h59.11.696,Surprise recog test,2023.1.3,59.82618101343004,
172,0,172,0,,,,,,,,,,,,,,,,,,,,,,,,,,,,,,,,,,631.7350603000014,,629.7091122000056,629.7091122000056,629.7091122000056,629.7091122000056,new_sceneOut_27.png,173,4.0,2.0265924999985145,,073,10,2025-05-06_13h59.11.696,Surprise recog test,2023.1.3,59.82618101343004,
173,0,173,0,,,,,,,,,,,,,,,,,,,,,,,,,,,,,,,,,,634.7382729000019,635.7582815999995,632.7655416000052,632.7655416000052,632.7655416000052,632.7655416000052,old_sceneOut_18.png,174,4.0,1.9730101999957697,,073,10,2025-05-06_13h59.11.696,Surprise recog test,2023.1.3,59.82618101343004,
174,0,174,0,,,,,,,,,,,,,,,,,,,,,,,,,,,,,,,,,,638.5718624000001,,635.7582815999995,635.7582815999995,635.7582815999995,635.7582815999995,new_fruit_16.png,175,4.0,2.8087479999958305,,073,10,2025-05-06_13h59.11.696,Surprise recog test,2023.1.3,59.82618101343004,
175,0,175,0,,,,,,,,,,,,,,,,,,,,,,,,,,,,,,,,,,641.931728399999,642.9452233000047,639.5933025000049,639.5933025000049,639.5933025000049,639.5933025000049,new_stationery_20.png,176,4.0,2.333515099999204,,073,10,2025-05-06_13h59.11.696,Surprise recog test,2023.1.3,59.82618101343004,
176,0,176,0,,,,,,,,,,,,,,,,,,,,,,,,,,,,,,,,,,645.2505827999994,646.2760761000027,642.9452233000047,642.9452233000047,642.9452233000047,642.9452233000047,new_sceneIn_15.png,177,3.0,2.3010740000027,,073,10,2025-05-06_13h59.11.696,Surprise recog test,2023.1.3,59.82618101343004,
177,0,177,0,,,,,,,,,,,,,,,,,,,,,,,,,,,,,,,,,,648.7715312,649.798729400005,646.2760761000027,646.2760761000027,646.2760761000027,646.2760761000027,old_stationery_22.png,178,2.0,2.495574699998542,,073,10,2025-05-06_13h59.11.696,Surprise recog test,2023.1.3,59.82618101343004,
178,0,178,0,,,,,,,,,,,,,,,,,,,,,,,,,,,,,,,,,,651.5697293000048,652.5976500000033,649.798729400005,649.798729400005,649.798729400005,649.798729400005,old_stationery_4.png,179,1.0,1.7740391999977874,,073,10,2025-05-06_13h59.11.696,Surprise recog test,2023.1.3,59.82618101343004,
179,0,179,0,,,,,,,,,,,,,,,,,,,,,,,,,,,,,,,,,,654.282595100005,655.2872839000047,652.5976500000033,652.5976500000033,652.5976500000033,652.5976500000033,new_stationery_12.png,180,2.0,1.6850517999992007,,073,10,2025-05-06_13h59.11.696,Surprise recog test,2023.1.3,59.82618101343004,
180,0,180,0,,,,,,,,,,,,,,,,,,,,,,,,,,,,,,,,,,657.1596231000003,658.1894440000033,655.2872839000047,655.2872839000047,655.2872839000047,655.2872839000047,new_stationery_22.png,181,1.0,1.8679848999963724,,073,10,2025-05-06_13h59.11.696,Surprise recog test,2023.1.3,59.82618101343004,
181,0,181,0,,,,,,,,,,,,,,,,,,,,,,,,,,,,,,,,,,659.7478269000057,660.7743682,658.1894440000033,658.1894440000033,658.1894440000033,658.1894440000033,old_fruit_35.png,182,1.0,1.5596004999970319,,073,10,2025-05-06_13h59.11.696,Surprise recog test,2023.1.3,59.82618101343004,
182,0,182,0,,,,,,,,,,,,,,,,,,,,,,,,,,,,,,,,,,662.3960188000055,663.4145343000055,660.7743682,660.7743682,660.7743682,660.7743682,old_fruit_27.png,183,1.0,1.6237889999974868,,073,10,2025-05-06_13h59.11.696,Surprise recog test,2023.1.3,59.82618101343004,
183,0,183,0,,,,,,,,,,,,,,,,,,,,,,,,,,,,,,,,,,665.809192700006,666.8288386999993,663.4145343000055,663.4145343000055,663.4145343000055,663.4145343000055,old_sceneIn_23.png,184,3.0,2.3874438000057125,,073,10,2025-05-06_13h59.11.696,Surprise recog test,2023.1.3,59.82618101343004,
184,0,184,0,,,,,,,,,,,,,,,,,,,,,,,,,,,,,,,,,,668.9773385000008,669.985467999999,666.8288386999993,666.8288386999993,666.8288386999993,666.8288386999993,new_fruit_48.png,185,2.0,2.149483400004101,,073,10,2025-05-06_13h59.11.696,Surprise recog test,2023.1.3,59.82618101343004,
185,0,185,0,,,,,,,,,,,,,,,,,,,,,,,,,,,,,,,,,,671.582441700004,,669.985467999999,669.985467999999,669.985467999999,669.985467999999,old_stationery_20.png,186,1.0,1.5904188999993494,,073,10,2025-05-06_13h59.11.696,Surprise recog test,2023.1.3,59.82618101343004,
186,0,186,0,,,,,,,,,,,,,,,,,,,,,,,,,,,,,,,,,,674.3438163000028,675.3671300999995,672.6178270000019,672.6178270000019,672.6178270000019,672.6178270000019,old_fruit_20.png,187,2.0,1.7280255000005127,,073,10,2025-05-06_13h59.11.696,Surprise recog test,2023.1.3,59.82618101343004,
187,0,187,0,,,,,,,,,,,,,,,,,,,,,,,,,,,,,,,,,,677.7437855000026,678.7686757000047,675.3671300999995,675.3671300999995,675.3671300999995,675.3671300999995,new_stationery_6.png,188,4.0,2.3758576000036555,,073,10,2025-05-06_13h59.11.696,Surprise recog test,2023.1.3,59.82618101343004,
188,0,188,0,,,,,,,,,,,,,,,,,,,,,,,,,,,,,,,,,,680.7045392,681.7156933000006,678.7686757000047,678.7686757000047,678.7686757000047,678.7686757000047,new_sceneOut_5.png,189,3.0,1.9317862999960198,,073,10,2025-05-06_13h59.11.696,Surprise recog test,2023.1.3,59.82618101343004,
189,0,189,0,,,,,,,,,,,,,,,,,,,,,,,,,,,,,,,,,,683.765693100002,684.7800152000054,681.7156933000006,681.7156933000006,681.7156933000006,681.7156933000006,old_sceneOut_15.png,190,3.0,2.04812469999888,,073,10,2025-05-06_13h59.11.696,Surprise recog test,2023.1.3,59.82618101343004,
190,0,190,0,,,,,,,,,,,,,,,,,,,,,,,,,,,,,,,,,,686.555574500002,687.5792638999992,684.7800152000054,684.7800152000054,684.7800152000054,684.7800152000054,new_stationery_27.png,191,2.0,1.7705607000025338,,073,10,2025-05-06_13h59.11.696,Surprise recog test,2023.1.3,59.82618101343004,
191,0,191,0,,,,,,,,,,,,,,,,,,,,,,,,,,,,,,,,,,689.3047143000003,690.3312843000022,687.5792638999992,687.5792638999992,687.5792638999992,687.5792638999992,old_stationery_50.png,192,1.0,1.7273200999989058,,073,10,2025-05-06_13h59.11.696,Surprise recog test,2023.1.3,59.82618101343004,
192,0,192,0,,,,,,,,,,,,,,,,,,,,,,,,,,,,,,,,,,692.2895366000012,693.316883200001,690.3312843000022,690.3312843000022,690.3312843000022,690.3312843000022,old_sceneOut_47.png,193,3.0,1.9601591999962693,,073,10,2025-05-06_13h59.11.696,Surprise recog test,2023.1.3,59.82618101343004,
193,0,193,0,,,,,,,,,,,,,,,,,,,,,,,,,,,,,,,,,,695.2381823000032,696.2629852000027,693.316883200001,693.316883200001,693.316883200001,693.316883200001,new_stationery_17.png,194,2.0,1.9243428999980097,,073,10,2025-05-06_13h59.11.696,Surprise recog test,2023.1.3,59.82618101343004,
194,0,194,0,,,,,,,,,,,,,,,,,,,,,,,,,,,,,,,,,,698.3912605000005,699.4164601000011,696.2629852000027,696.2629852000027,696.2629852000027,696.2629852000027,old_stationery_38.png,195,3.0,2.1287278999952832,,073,10,2025-05-06_13h59.11.696,Surprise recog test,2023.1.3,59.82618101343004,
195,0,195,0,,,,,,,,,,,,,,,,,,,,,,,,,,,,,,,,,,701.0743590000056,,699.4164601000011,699.4164601000011,699.4164601000011,699.4164601000011,new_stationery_18.png,196,2.0,1.6562220999985584,,073,10,2025-05-06_13h59.11.696,Surprise recog test,2023.1.3,59.82618101343004,
196,0,196,0,,,,,,,,,,,,,,,,,,,,,,,,,,,,,,,,,,703.7499067000026,704.7790922000058,702.0923710000061,702.0923710000061,702.0923710000061,702.0923710000061,old_stationery_42.png,197,3.0,1.6522399000023142,,073,10,2025-05-06_13h59.11.696,Surprise recog test,2023.1.3,59.82618101343004,
197,0,197,0,,,,,,,,,,,,,,,,,,,,,,,,,,,,,,,,,,706.3451117000004,,704.7790922000058,704.7790922000058,704.7790922000058,704.7790922000058,old_stationery_14.png,198,1.0,1.567582299998321,,073,10,2025-05-06_13h59.11.696,Surprise recog test,2023.1.3,59.82618101343004,
198,0,198,0,,,,,,,,,,,,,,,,,,,,,,,,,,,,,,,,,,709.1617473000006,710.1803973999995,707.3678725999998,707.3678725999998,707.3678725999998,707.3678725999998,old_fruit_15.png,199,1.0,1.7823900999937905,,073,10,2025-05-06_13h59.11.696,Surprise recog test,2023.1.3,59.82618101343004,
199,0,199,0,,,,,,,,,,,,,,,,,,,,,,,,,,,,,,,,,,712.1296160999991,713.1477943999998,710.1803973999995,710.1803973999995,710.1803973999995,710.1803973999995,new_sceneOut_32.png,200,2.0,1.9513059000018984,,073,10,2025-05-06_13h59.11.696,Surprise recog test,2023.1.3,59.82618101343004,
200,0,200,0,,,,,,,,,,,,,,,,,,,,,,,,,,,,,,,,,,714.9949177000017,716.0222408000045,713.1477943999998,713.1477943999998,713.1477943999998,713.1477943999998,new_fruit_6.png,201,2.0,1.849136600001657,,073,10,2025-05-06_13h59.11.696,Surprise recog test,2023.1.3,59.82618101343004,
201,0,201,0,,,,,,,,,,,,,,,,,,,,,,,,,,,,,,,,,,718.3099214000031,719.3498118000061,716.0222408000045,716.0222408000045,716.0222408000045,716.0222408000045,new_fruit_47.png,202,4.0,2.2915518000008888,,073,10,2025-05-06_13h59.11.696,Surprise recog test,2023.1.3,59.82618101343004,
202,0,202,0,,,,,,,,,,,,,,,,,,,,,,,,,,,,,,,,,,721.7890589000017,722.8086293000015,719.3498118000061,719.3498118000061,719.3498118000061,719.3498118000061,new_sceneOut_2.png,203,3.0,2.443842799999402,,073,10,2025-05-06_13h59.11.696,Surprise recog test,2023.1.3,59.82618101343004,
203,0,203,0,,,,,,,,,,,,,,,,,,,,,,,,,,,,,,,,,,724.6077714000057,725.6282019999999,722.8086293000015,722.8086293000015,722.8086293000015,722.8086293000015,new_stationery_15.png,204,2.0,1.7973352999979397,,073,10,2025-05-06_13h59.11.696,Surprise recog test,2023.1.3,59.82618101343004,
204,0,204,0,,,,,,,,,,,,,,,,,,,,,,,,,,,,,,,,,,727.2104299000057,728.2297452000057,725.6282019999999,725.6282019999999,725.6282019999999,725.6282019999999,old_stationery_41.png,205,1.0,1.585381700002472,,073,10,2025-05-06_13h59.11.696,Surprise recog test,2023.1.3,59.82618101343004,
205,0,205,0,,,,,,,,,,,,,,,,,,,,,,,,,,,,,,,,,,730.1344240000035,731.1688600000052,728.2297452000057,728.2297452000057,728.2297452000057,728.2297452000057,old_stationery_12.png,206,1.0,1.9059076000048663,,073,10,2025-05-06_13h59.11.696,Surprise recog test,2023.1.3,59.82618101343004,
206,0,206,0,,,,,,,,,,,,,,,,,,,,,,,,,,,,,,,,,,733.4184241000039,,731.1688600000052,731.1688600000052,731.1688600000052,731.1688600000052,new_sceneIn_3.png,207,2.0,2.252301599997736,,073,10,2025-05-06_13h59.11.696,Surprise recog test,2023.1.3,59.82618101343004,
207,0,207,0,,,,,,,,,,,,,,,,,,,,,,,,,,,,,,,,,,736.3298964999994,737.3519633000033,734.4376180000036,734.4376180000036,734.4376180000036,734.4376180000036,new_fruit_7.png,208,1.0,1.888172899998608,,073,10,2025-05-06_13h59.11.696,Surprise recog test,2023.1.3,59.82618101343004,
208,0,208,0,,,,,,,,,,,,,,,,,,,,,,,,,,,,,,,,,,738.9993399000014,740.0181787000038,737.3519633000033,737.3519633000033,737.3519633000033,737.3519633000033,old_sceneOut_4.png,209,3.0,1.648157399999036,,073,10,2025-05-06_13h59.11.696,Surprise recog test,2023.1.3,59.82618101343004,
209,0,209,0,,,,,,,,,,,,,,,,,,,,,,,,,,,,,,,,,,741.7057440999997,742.7256945000045,740.0181787000038,740.0181787000038,740.0181787000038,740.0181787000038,new_sceneIn_26.png,210,3.0,1.689270700000634,,073,10,2025-05-06_13h59.11.696,Surprise recog test,2023.1.3,59.82618101343004,
210,0,210,0,,,,,,,,,,,,,,,,,,,,,,,,,,,,,,,,,,745.1126187000045,,742.7256945000045,742.7256945000045,742.7256945000045,742.7256945000045,new_sceneIn_10.png,211,3.0,2.3887744000021485,,073,10,2025-05-06_13h59.11.696,Surprise recog test,2023.1.3,59.82618101343004,
211,0,211,0,,,,,,,,,,,,,,,,,,,,,,,,,,,,,,,,,,747.9233995000031,748.947021400003,746.1292624000052,746.1292624000052,746.1292624000052,746.1292624000052,new_stationery_28.png,212,1.0,1.7900134999945294,,073,10,2025-05-06_13h59.11.696,Surprise recog test,2023.1.3,59.82618101343004,
212,0,212,0,,,,,,,,,,,,,,,,,,,,,,,,,,,,,,,,,,750.504351399999,751.5262780000048,748.947021400003,748.947021400003,748.947021400003,748.947021400003,new_stationery_35.png,213,1.0,1.5568372000052477,,073,10,2025-05-06_13h59.11.696,Surprise recog test,2023.1.3,59.82618101343004,
213,0,213,0,,,,,,,,,,,,,,,,,,,,,,,,,,,,,,,,,,753.901420000002,,751.5262780000048,751.5262780000048,751.5262780000048,751.5262780000048,new_sceneIn_13.png,214,4.0,2.3719074000036926,,073,10,2025-05-06_13h59.11.696,Surprise recog test,2023.1.3,59.82618101343004,
214,0,214,0,,,,,,,,,,,,,,,,,,,,,,,,,,,,,,,,,,756.8297203000038,757.8509336000061,754.9347708999994,754.9347708999994,754.9347708999994,754.9347708999994,new_sceneIn_11.png,215,2.0,1.8955055000042194,,073,10,2025-05-06_13h59.11.696,Surprise recog test,2023.1.3,59.82618101343004,
215,0,215,0,,,,,,,,,,,,,,,,,,,,,,,,,,,,,,,,,,759.5316325000022,760.5544681000029,757.8509336000061,757.8509336000061,757.8509336000061,757.8509336000061,new_sceneIn_30.png,216,1.0,1.681367000004684,,073,10,2025-05-06_13h59.11.696,Surprise recog test,2023.1.3,59.82618101343004,
216,0,216,0,,,,,,,,,,,,,,,,,,,,,,,,,,,,,,,,,,762.3564708000049,763.3633515000038,760.5544681000029,760.5544681000029,760.5544681000029,760.5544681000029,new_sceneOut_16.png,217,3.0,1.804654900006426,,073,10,2025-05-06_13h59.11.696,Surprise recog test,2023.1.3,59.82618101343004,
217,0,217,0,,,,,,,,,,,,,,,,,,,,,,,,,,,,,,,,,,765.6374956,766.6498137000017,763.3633515000038,763.3633515000038,763.3633515000038,763.3633515000038,new_sceneIn_38.png,218,2.0,2.266811499997857,,073,10,2025-05-06_13h59.11.696,Surprise recog test,2023.1.3,59.82618101343004,
218,0,218,0,,,,,,,,,,,,,,,,,,,,,,,,,,,,,,,,,,768.4499666000047,769.4677770000053,766.6498137000017,766.6498137000017,766.6498137000017,766.6498137000017,old_sceneIn_43.png,219,3.0,1.7947220999994897,,073,10,2025-05-06_13h59.11.696,Surprise recog test,2023.1.3,59.82618101343004,
219,0,219,0,,,,,,,,,,,,,,,,,,,,,,,,,,,,,,,,,,771.6028470000019,772.6221718000015,769.4677770000053,769.4677770000053,769.4677770000053,769.4677770000053,old_sceneIn_20.png,220,3.0,2.1303111000015633,,073,10,2025-05-06_13h59.11.696,Surprise recog test,2023.1.3,59.82618101343004,
220,0,220,0,,,,,,,,,,,,,,,,,,,,,,,,,,,,,,,,,,774.4602992,775.4883420000042,772.6221718000015,772.6221718000015,772.6221718000015,772.6221718000015,old_fruit_47.png,221,1.0,1.8341896000056295,,073,10,2025-05-06_13h59.11.696,Surprise recog test,2023.1.3,59.82618101343004,
221,0,221,0,,,,,,,,,,,,,,,,,,,,,,,,,,,,,,,,,,777.6163703000057,778.6323737000057,775.4883420000042,775.4883420000042,775.4883420000042,775.4883420000042,old_sceneOut_29.png,222,2.0,2.128669699995953,,073,10,2025-05-06_13h59.11.696,Surprise recog test,2023.1.3,59.82618101343004,
222,0,222,0,,,,,,,,,,,,,,,,,,,,,,,,,,,,,,,,,,780.3109736000042,781.3252839000052,778.6323737000057,778.6323737000057,778.6323737000057,778.6323737000057,old_fruit_16.png,223,1.0,1.6793774000034318,,073,10,2025-05-06_13h59.11.696,Surprise recog test,2023.1.3,59.82618101343004,
223,0,223,0,,,,,,,,,,,,,,,,,,,,,,,,,,,,,,,,,,783.3066198000015,784.3125737000009,781.3252839000052,781.3252839000052,781.3252839000052,781.3252839000052,old_fruit_13.png,224,2.0,1.9708901999983937,,073,10,2025-05-06_13h59.11.696,Surprise recog test,2023.1.3,59.82618101343004,
224,0,224,0,,,,,,,,,,,,,,,,,,,,,,,,,,,,,,,,,,786.0420856000055,787.0461824000013,784.3125737000009,784.3125737000009,784.3125737000009,784.3125737000009,old_stationery_43.png,225,2.0,1.7207293000028585,,073,10,2025-05-06_13h59.11.696,Surprise recog test,2023.1.3,59.82618101343004,
225,0,225,0,,,,,,,,,,,,,,,,,,,,,,,,,,,,,,,,,,788.4440776000047,789.4499453000026,787.0461824000013,787.0461824000013,787.0461824000013,787.0461824000013,old_fruit_10.png,226,1.0,1.387644000002183,,073,10,2025-05-06_13h59.11.696,Surprise recog test,2023.1.3,59.82618101343004,
226,0,226,0,,,,,,,,,,,,,,,,,,,,,,,,,,,,,,,,,,792.337294900004,793.364140800004,789.4499453000026,789.4499453000026,789.4499453000026,789.4499453000026,new_fruit_22.png,227,3.0,2.882603999998537,,073,10,2025-05-06_13h59.11.696,Surprise recog test,2023.1.3,59.82618101343004,
227,0,227,0,,,,,,,,,,,,,,,,,,,,,,,,,,,,,,,,,,795.155448700003,796.1866716000004,793.364140800004,793.364140800004,793.364140800004,793.364140800004,new_fruit_36.png,228,2.0,1.792534699998214,,073,10,2025-05-06_13h59.11.696,Surprise recog test,2023.1.3,59.82618101343004,
228,0,228,0,,,,,,,,,,,,,,,,,,,,,,,,,,,,,,,,,,798.3598108000006,799.3866141000035,796.1866716000004,796.1866716000004,796.1866716000004,796.1866716000004,new_stationery_34.png,229,3.0,2.172912500005623,,073,10,2025-05-06_13h59.11.696,Surprise recog test,2023.1.3,59.82618101343004,
229,0,229,0,,,,,,,,,,,,,,,,,,,,,,,,,,,,,,,,,,801.6122175000055,802.6332208000022,799.3866141000035,799.3866141000035,799.3866141000035,799.3866141000035,new_stationery_40.png,230,4.0,2.22698390000005,,073,10,2025-05-06_13h59.11.696,Surprise recog test,2023.1.3,59.82618101343004,
230,0,230,0,,,,,,,,,,,,,,,,,,,,,,,,,,,,,,,,,,804.7754180000047,805.7928593000033,802.6332208000022,802.6332208000022,802.6332208000022,802.6332208000022,old_stationery_34.png,231,3.0,2.1420034999973723,,073,10,2025-05-06_13h59.11.696,Surprise recog test,2023.1.3,59.82618101343004,
231,0,231,0,,,,,,,,,,,,,,,,,,,,,,,,,,,,,,,,,,807.1859920999996,808.2093262000053,805.7928593000033,805.7928593000033,805.7928593000033,805.7928593000033,new_fruit_10.png,232,3.0,1.3935630999985733,,073,10,2025-05-06_13h59.11.696,Surprise recog test,2023.1.3,59.82618101343004,
232,0,232,0,,,,,,,,,,,,,,,,,,,,,,,,,,,,,,,,,,809.809831700004,810.8319138000006,808.2093262000053,808.2093262000053,808.2093262000053,808.2093262000053,old_fruit_46.png,233,2.0,1.6009457999971346,,073,10,2025-05-06_13h59.11.696,Surprise recog test,2023.1.3,59.82618101343004,
233,0,233,0,,,,,,,,,,,,,,,,,,,,,,,,,,,,,,,,,,813.4754377999998,814.4940361000045,810.8319138000006,810.8319138000006,810.8319138000006,810.8319138000006,old_sceneOut_2.png,234,3.0,2.6448552000001655,,073,10,2025-05-06_13h59.11.696,Surprise recog test,2023.1.3,59.82618101343004,
234,0,234,0,,,,,,,,,,,,,,,,,,,,,,,,,,,,,,,,,,816.2980968000047,817.3209478999997,814.4940361000045,814.4940361000045,814.4940361000045,814.4940361000045,new_fruit_8.png,235,1.0,1.8017732000007527,,073,10,2025-05-06_13h59.11.696,Surprise recog test,2023.1.3,59.82618101343004,
235,0,235,0,,,,,,,,,,,,,,,,,,,,,,,,,,,,,,,,,,818.9217664000025,,817.3209478999997,817.3209478999997,817.3209478999997,817.3209478999997,new_sceneIn_28.png,236,1.0,1.603763400002208,,073,10,2025-05-06_13h59.11.696,Surprise recog test,2023.1.3,59.82618101343004,
236,0,236,0,,,,,,,,,,,,,,,,,,,,,,,,,,,,,,,,,,822.0264263999998,,819.9526910999994,819.9526910999994,819.9526910999994,819.9526910999994,new_sceneIn_42.png,237,3.0,2.071090199999162,,073,10,2025-05-06_13h59.11.696,Surprise recog test,2023.1.3,59.82618101343004,
237,0,237,0,,,,,,,,,,,,,,,,,,,,,,,,,,,,,,,,,,824.677462700005,,823.0534168000013,823.0534168000013,823.0534168000013,823.0534168000013,new_stationery_1.png,238,2.0,1.6260667999958969,,073,10,2025-05-06_13h59.11.696,Surprise recog test,2023.1.3,59.82618101343004,
238,0,238,0,,,,,,,,,,,,,,,,,,,,,,,,,,,,,,,,,,829.1292092000003,830.1325620000061,825.6972280000045,825.6972280000045,825.6972280000045,825.6972280000045,new_fruit_39.png,239,4.0,3.4264537999988534,,073,10,2025-05-06_13h59.11.696,Surprise recog test,2023.1.3,59.82618101343004,
239,0,239,0,,,,,,,,,,,,,,,,,,,,,,,,,,,,,,,,,,832.4002461000055,,830.1325620000061,830.1325620000061,830.1325620000061,830.1325620000061,new_sceneIn_9.png,240,4.0,2.2612226999990526,,073,10,2025-05-06_13h59.11.696,Surprise recog test,2023.1.3,59.82618101343004,
240,0,240,0,,,,,,,,,,,,,,,,,,,,,,,,,,,,,,,,,,835.3244836000013,836.3484643000047,833.4210938000033,833.4210938000033,833.4210938000033,833.4210938000033,old_sceneOut_48.png,241,4.0,1.8907355999981519,,073,10,2025-05-06_13h59.11.696,Surprise recog test,2023.1.3,59.82618101343004,
241,0,241,0,,,,,,,,,,,,,,,,,,,,,,,,,,,,,,,,,,838.7628660000046,839.7827437000014,836.3484643000047,836.3484643000047,836.3484643000047,836.3484643000047,new_fruit_40.png,242,2.0,2.4118110999988858,,073,10,2025-05-06_13h59.11.696,Surprise recog test,2023.1.3,59.82618101343004,
242,0,242,0,,,,,,,,,,,,,,,,,,,,,,,,,,,,,,,,,,841.840130800003,842.8429383000039,839.7827437000014,839.7827437000014,839.7827437000014,839.7827437000014,old_sceneOut_33.png,243,4.0,2.0557618999955594,,073,10,2025-05-06_13h59.11.696,Surprise recog test,2023.1.3,59.82618101343004,
243,0,243,0,,,,,,,,,,,,,,,,,,,,,,,,,,,,,,,,,,844.6024405999997,845.6297693000015,842.8429383000039,842.8429383000039,842.8429383000039,842.8429383000039,old_fruit_29.png,244,2.0,1.7549358999967808,,073,10,2025-05-06_13h59.11.696,Surprise recog test,2023.1.3,59.82618101343004,
244,0,244,0,,,,,,,,,,,,,,,,,,,,,,,,,,,,,,,,,,848.3771540000016,849.3889838000032,845.6297693000015,845.6297693000015,845.6297693000015,845.6297693000015,new_sceneIn_7.png,245,3.0,2.7459398999999394,,073,10,2025-05-06_13h59.11.696,Surprise recog test,2023.1.3,59.82618101343004,
245,0,245,0,,,,,,,,,,,,,,,,,,,,,,,,,,,,,,,,,,851.3294282999996,852.3551385000028,849.3889838000032,849.3889838000032,849.3889838000032,849.3889838000032,old_sceneIn_39.png,246,2.0,1.9385226000013063,,073,10,2025-05-06_13h59.11.696,Surprise recog test,2023.1.3,59.82618101343004,
246,0,246,0,,,,,,,,,,,,,,,,,,,,,,,,,,,,,,,,,,854.2612252000035,855.2850710000057,852.3551385000028,852.3551385000028,852.3551385000028,852.3551385000028,new_sceneIn_29.png,247,2.0,1.9106341999940923,,073,10,2025-05-06_13h59.11.696,Surprise recog test,2023.1.3,59.82618101343004,
247,0,247,0,,,,,,,,,,,,,,,,,,,,,,,,,,,,,,,,,,856.8258821000054,857.8424528000032,855.2850710000057,855.2850710000057,855.2850710000057,855.2850710000057,old_fruit_34.png,248,2.0,1.53969849999703,,073,10,2025-05-06_13h59.11.696,Surprise recog test,2023.1.3,59.82618101343004,
248,0,248,0,,,,,,,,,,,,,,,,,,,,,,,,,,,,,,,,,,859.0651754999999,860.0819639000038,857.8424528000032,857.8424528000032,857.8424528000032,857.8424528000032,old_sceneOut_35.png,249,3.0,1.2174168999990798,,073,10,2025-05-06_13h59.11.696,Surprise recog test,2023.1.3,59.82618101343004,
249,0,249,0,,,,,,,,,,,,,,,,,,,,,,,,,,,,,,,,,,861.8905006999994,,860.0819639000038,860.0819639000038,860.0819639000038,860.0819639000038,new_sceneOut_47.png,250,3.0,1.8088036999979522,,073,10,2025-05-06_13h59.11.696,Surprise recog test,2023.1.3,59.82618101343004,
250,0,250,0,,,,,,,,,,,,,,,,,,,,,,,,,,,,,,,,,,864.9067311000035,865.9200391000049,862.9259841000021,862.9259841000021,862.9259841000021,862.9259841000021,old_stationery_35.png,251,2.0,1.982739600003697,,073,10,2025-05-06_13h59.11.696,Surprise recog test,2023.1.3,59.82618101343004,
251,0,251,0,,,,,,,,,,,,,,,,,,,,,,,,,,,,,,,,,,868.0514113000027,869.0692639000044,865.9200391000049,865.9200391000049,865.9200391000049,865.9200391000049,old_sceneIn_38.png,252,3.0,2.130808000001707,,073,10,2025-05-06_13h59.11.696,Surprise recog test,2023.1.3,59.82618101343004,
252,0,252,0,,,,,,,,,,,,,,,,,,,,,,,,,,,,,,,,,,871.1000175000008,,869.0692639000044,869.0692639000044,869.0692639000044,869.0692639000044,new_sceneIn_17.png,253,4.0,2.024071500003629,,073,10,2025-05-06_13h59.11.696,Surprise recog test,2023.1.3,59.82618101343004,
253,0,253,0,,,,,,,,,,,,,,,,,,,,,,,,,,,,,,,,,,874.7161957999997,875.7353269000014,872.1192980000051,872.1192980000051,872.1192980000051,872.1192980000051,new_sceneIn_33.png,254,4.0,2.592209399997955,,073,10,2025-05-06_13h59.11.696,Surprise recog test,2023.1.3,59.82618101343004,
254,0,254,0,,,,,,,,,,,,,,,,,,,,,,,,,,,,,,,,,,877.0720115000004,,875.7353269000014,875.7353269000014,875.7353269000014,875.7353269000014,new_fruit_12.png,255,2.0,1.3382211999996798,,073,10,2025-05-06_13h59.11.696,Surprise recog test,2023.1.3,59.82618101343004,
255,0,255,0,,,,,,,,,,,,,,,,,,,,,,,,,,,,,,,,,,881.275321000001,,878.0922797000021,878.0922797000021,878.0922797000021,878.0922797000021,old_sceneOut_45.png,256,3.0,3.178693800000474,,073,10,2025-05-06_13h59.11.696,Surprise recog test,2023.1.3,59.82618101343004,
256,0,256,0,,,,,,,,,,,,,,,,,,,,,,,,,,,,,,,,,,883.8659900000057,884.8826579000015,882.3091926000052,882.3091926000052,882.3091926000052,882.3091926000052,new_fruit_2.png,257,1.0,1.5577216999954544,,073,10,2025-05-06_13h59.11.696,Surprise recog test,2023.1.3,59.82618101343004,
257,0,257,0,,,,,,,,,,,,,,,,,,,,,,,,,,,,,,,,,,886.5452691000028,,884.8826579000015,884.8826579000015,884.8826579000015,884.8826579000015,old_sceneOut_6.png,258,3.0,1.6562655000016093,,073,10,2025-05-06_13h59.11.696,Surprise recog test,2023.1.3,59.82618101343004,
258,0,258,0,,,,,,,,,,,,,,,,,,,,,,,,,,,,,,,,,,889.8778663000048,890.8994822000022,887.573496500001,887.573496500001,887.573496500001,887.573496500001,old_sceneOut_13.png,259,3.0,2.3046495000016876,,073,10,2025-05-06_13h59.11.696,Surprise recog test,2023.1.3,59.82618101343004,
259,0,259,0,,,,,,,,,,,,,,,,,,,,,,,,,,,,,,,,,,892.9485633000004,893.9663214000029,890.8994822000022,890.8994822000022,890.8994822000022,890.8994822000022,new_sceneOut_19.png,260,3.0,2.0493439999991097,,073,10,2025-05-06_13h59.11.696,Surprise recog test,2023.1.3,59.82618101343004,
260,0,260,0,,,,,,,,,,,,,,,,,,,,,,,,,,,,,,,,,,895.5541295000003,,893.9663214000029,893.9663214000029,893.9663214000029,893.9663214000029,new_sceneOut_49.png,261,3.0,1.5876321000032476,,073,10,2025-05-06_13h59.11.696,Surprise recog test,2023.1.3,59.82618101343004,
261,0,261,0,,,,,,,,,,,,,,,,,,,,,,,,,,,,,,,,,,899.4446822000027,900.4608124000006,896.5878766000023,896.5878766000023,896.5878766000023,896.5878766000023,new_sceneIn_8.png,262,4.0,2.8589761999974144,,073,10,2025-05-06_13h59.11.696,Surprise recog test,2023.1.3,59.82618101343004,
262,0,262,0,,,,,,,,,,,,,,,,,,,,,,,,,,,,,,,,,,902.3893659000023,903.4077174000049,900.4608124000006,900.4608124000006,900.4608124000006,900.4608124000006,old_sceneIn_11.png,263,2.0,1.9242264999993495,,073,10,2025-05-06_13h59.11.696,Surprise recog test,2023.1.3,59.82618101343004,
263,0,263,0,,,,,,,,,,,,,,,,,,,,,,,,,,,,,,,,,,905.0509466000003,906.0616147000037,903.4077174000049,903.4077174000049,903.4077174000049,903.4077174000049,old_stationery_26.png,264,2.0,1.6439797999992152,,073,10,2025-05-06_13h59.11.696,Surprise recog test,2023.1.3,59.82618101343004,
264,0,264,0,,,,,,,,,,,,,,,,,,,,,,,,,,,,,,,,,,907.9567214000053,908.9744907000058,906.0616147000037,906.0616147000037,906.0616147000037,906.0616147000037,old_stationery_21.png,265,4.0,1.8893016000001808,,073,10,2025-05-06_13h59.11.696,Surprise recog test,2023.1.3,59.82618101343004,
265,0,265,0,,,,,,,,,,,,,,,,,,,,,,,,,,,,,,,,,,910.6217713000005,911.6356919000027,908.9744907000058,908.9744907000058,908.9744907000058,908.9744907000058,old_stationery_44.png,266,2.0,1.6458045000035781,,073,10,2025-05-06_13h59.11.696,Surprise recog test,2023.1.3,59.82618101343004,
266,0,266,0,,,,,,,,,,,,,,,,,,,,,,,,,,,,,,,,,,913.8539705000003,914.8793036999996,911.6356919000027,911.6356919000027,911.6356919000027,911.6356919000027,new_stationery_37.png,267,4.0,2.211526099999901,,073,10,2025-05-06_13h59.11.696,Surprise recog test,2023.1.3,59.82618101343004,
267,0,267,0,,,,,,,,,,,,,,,,,,,,,,,,,,,,,,,,,,916.7001627999998,917.7086426000023,914.8793036999996,914.8793036999996,914.8793036999996,914.8793036999996,new_stationery_14.png,268,4.0,1.8215830999979516,,073,10,2025-05-06_13h59.11.696,Surprise recog test,2023.1.3,59.82618101343004,
268,0,268,0,,,,,,,,,,,,,,,,,,,,,,,,,,,,,,,,,,919.2167913000012,920.2306306000028,917.7086426000023,917.7086426000023,917.7086426000023,917.7086426000023,old_sceneIn_3.png,269,4.0,1.503552199996193,,073,10,2025-05-06_13h59.11.696,Surprise recog test,2023.1.3,59.82618101343004,
269,0,269,0,,,,,,,,,,,,,,,,,,,,,,,,,,,,,,,,,,922.1600304000021,923.1798247000042,920.2306306000028,920.2306306000028,920.2306306000028,920.2306306000028,old_stationery_31.png,270,1.0,1.9270329999999376,,073,10,2025-05-06_13h59.11.696,Surprise recog test,2023.1.3,59.82618101343004,
270,0,270,0,,,,,,,,,,,,,,,,,,,,,,,,,,,,,,,,,,925.5636329000044,926.5979394000024,923.1798247000042,923.1798247000042,923.1798247000042,923.1798247000042,old_sceneOut_43.png,271,2.0,2.3767903999978444,,073,10,2025-05-06_13h59.11.696,Surprise recog test,2023.1.3,59.82618101343004,
271,0,271,0,,,,,,,,,,,,,,,,,,,,,,,,,,,,,,,,,,928.1102644999992,929.1320569000018,926.5979394000024,926.5979394000024,926.5979394000024,926.5979394000024,new_sceneOut_50.png,272,3.0,1.514779199998884,,073,10,2025-05-06_13h59.11.696,Surprise recog test,2023.1.3,59.82618101343004,
272,0,272,0,,,,,,,,,,,,,,,,,,,,,,,,,,,,,,,,,,931.2759981000054,932.2866834000015,929.1320569000018,929.1320569000018,929.1320569000018,929.1320569000018,new_sceneIn_23.png,273,2.0,2.14585509999597,,073,10,2025-05-06_13h59.11.696,Surprise recog test,2023.1.3,59.82618101343004,
273,0,273,0,,,,,,,,,,,,,,,,,,,,,,,,,,,,,,,,,,934.1653925999999,935.1817780000056,932.2866834000015,932.2866834000015,932.2866834000015,932.2866834000015,old_sceneOut_28.png,274,2.0,1.8744076000002678,,073,10,2025-05-06_13h59.11.696,Surprise recog test,2023.1.3,59.82618101343004,
274,0,274,0,,,,,,,,,,,,,,,,,,,,,,,,,,,,,,,,,,937.5208381000048,,935.1817780000056,935.1817780000056,935.1817780000056,935.1817780000056,old_fruit_45.png,275,1.0,2.338163500004157,,073,10,2025-05-06_13h59.11.696,Surprise recog test,2023.1.3,59.82618101343004,
275,0,275,0,,,,,,,,,,,,,,,,,,,,,,,,,,,,,,,,,,940.6657934000032,941.6935004000043,938.5529091999997,938.5529091999997,938.5529091999997,938.5529091999997,old_sceneIn_22.png,276,2.0,2.113588600004732,,073,10,2025-05-06_13h59.11.696,Surprise recog test,2023.1.3,59.82618101343004,
276,0,276,0,,,,,,,,,,,,,,,,,,,,,,,,,,,,,,,,,,943.4329107000012,944.4499932000035,941.6935004000043,941.6935004000043,941.6935004000043,941.6935004000043,new_stationery_33.png,277,1.0,1.7416112999999314,,073,10,2025-05-06_13h59.11.696,Surprise recog test,2023.1.3,59.82618101343004,
277,0,277,0,,,,,,,,,,,,,,,,,,,,,,,,,,,,,,,,,,946.1379474999994,947.1590494000047,944.4499932000035,944.4499932000035,944.4499932000035,944.4499932000035,old_stationery_29.png,278,1.0,1.6837010999952327,,073,10,2025-05-06_13h59.11.696,Surprise recog test,2023.1.3,59.82618101343004,
278,0,278,0,,,,,,,,,,,,,,,,,,,,,,,,,,,,,,,,,,948.9214935000055,949.9359962000017,947.1590494000047,947.1590494000047,947.1590494000047,947.1590494000047,old_fruit_18.png,279,1.0,1.7642975999988266,,073,10,2025-05-06_13h59.11.696,Surprise recog test,2023.1.3,59.82618101343004,
279,0,279,0,,,,,,,,,,,,,,,,,,,,,,,,,,,,,,,,,,952.9594906999992,953.9823897000024,949.9359962000017,949.9359962000017,949.9359962000017,949.9359962000017,new_sceneOut_4.png,280,3.0,3.017639199999394,,073,10,2025-05-06_13h59.11.696,Surprise recog test,2023.1.3,59.82618101343004,
280,0,280,0,,,,,,,,,,,,,,,,,,,,,,,,,,,,,,,,,,955.7197551999998,,953.9823897000024,953.9823897000024,953.9823897000024,953.9823897000024,old_sceneOut_25.png,281,2.0,1.7382260999947903,,073,10,2025-05-06_13h59.11.696,Surprise recog test,2023.1.3,59.82618101343004,
281,0,281,0,,,,,,,,,,,,,,,,,,,,,,,,,,,,,,,,,,959.8580430000002,960.890645200001,956.7405140000046,956.7405140000046,956.7405140000046,956.7405140000046,new_sceneOut_36.png,282,2.0,3.1121667999977944,,073,10,2025-05-06_13h59.11.696,Surprise recog test,2023.1.3,59.82618101343004,
282,0,282,0,,,,,,,,,,,,,,,,,,,,,,,,,,,,,,,,,,963.686809400002,964.7033580000061,960.890645200001,960.890645200001,960.890645200001,960.890645200001,new_sceneOut_42.png,283,3.0,2.7981435999972746,,073,10,2025-05-06_13h59.11.696,Surprise recog test,2023.1.3,59.82618101343004,
283,0,283,0,,,,,,,,,,,,,,,,,,,,,,,,,,,,,,,,,,966.3753151000055,967.397641399999,964.7033580000061,964.7033580000061,964.7033580000061,964.7033580000061,old_fruit_11.png,284,1.0,1.669265099997574,,073,10,2025-05-06_13h59.11.696,Surprise recog test,2023.1.3,59.82618101343004,
284,0,284,0,,,,,,,,,,,,,,,,,,,,,,,,,,,,,,,,,,969.7794550000035,970.8001432000019,967.397641399999,967.397641399999,967.397641399999,967.397641399999,old_sceneOut_7.png,285,2.0,2.3839755000008154,,073,10,2025-05-06_13h59.11.696,Surprise recog test,2023.1.3,59.82618101343004,
285,0,285,0,,,,,,,,,,,,,,,,,,,,,,,,,,,,,,,,,,973.6365688000005,974.6590350000042,970.8001432000019,970.8001432000019,970.8001432000019,970.8001432000019,old_sceneIn_9.png,286,2.0,2.8394896000027074,,073,10,2025-05-06_13h59.11.696,Surprise recog test,2023.1.3,59.82618101343004,
286,0,286,0,,,,,,,,,,,,,,,,,,,,,,,,,,,,,,,,,,977.4140487000041,978.4351890000034,974.6590350000042,974.6590350000042,974.6590350000042,974.6590350000042,new_sceneIn_46.png,287,2.0,2.753674300001876,,073,10,2025-05-06_13h59.11.696,Surprise recog test,2023.1.3,59.82618101343004,
287,0,287,0,,,,,,,,,,,,,,,,,,,,,,,,,,,,,,,,,,982.793256900004,,978.4351890000034,978.4351890000034,978.4351890000034,978.4351890000034,old_sceneOut_17.png,288,3.0,4.358636999997543,,073,10,2025-05-06_13h59.11.696,Surprise recog test,2023.1.3,59.82618101343004,
288,0,288,0,,,,,,,,,,,,,,,,,,,,,,,,,,,,,,,,,,985.1689925000028,986.1878772000055,983.8252207000041,983.8252207000041,983.8252207000041,983.8252207000041,new_sceneIn_37.png,289,2.0,1.3430188999991515,,073,10,2025-05-06_13h59.11.696,Surprise recog test,2023.1.3,59.82618101343004,
289,0,289,0,,,,,,,,,,,,,,,,,,,,,,,,,,,,,,,,,,987.5448328000057,,986.1878772000055,986.1878772000055,986.1878772000055,986.1878772000055,old_sceneIn_13.png,290,2.0,1.357272400004149,,073,10,2025-05-06_13h59.11.696,Surprise recog test,2023.1.3,59.82618101343004,
290,0,290,0,,,,,,,,,,,,,,,,,,,,,,,,,,,,,,,,,,990.1298103000008,991.148689900001,988.5662819999998,988.5662819999998,988.5662819999998,988.5662819999998,old_fruit_40.png,291,1.0,1.5567593000014313,,073,10,2025-05-06_13h59.11.696,Surprise recog test,2023.1.3,59.82618101343004,
291,0,291,0,,,,,,,,,,,,,,,,,,,,,,,,,,,,,,,,,,993.3525487000006,994.3860502000025,991.148689900001,991.148689900001,991.148689900001,991.148689900001,new_sceneOut_20.png,292,4.0,2.205086299996765,,073,10,2025-05-06_13h59.11.696,Surprise recog test,2023.1.3,59.82618101343004,
292,0,292,0,,,,,,,,,,,,,,,,,,,,,,,,,,,,,,,,,,996.1403032000017,997.1704074000008,994.3860502000025,994.3860502000025,994.3860502000025,994.3860502000025,new_stationery_19.png,293,4.0,1.7567926999981864,,073,10,2025-05-06_13h59.11.696,Surprise recog test,2023.1.3,59.82618101343004,
293,0,293,0,,,,,,,,,,,,,,,,,,,,,,,,,,,,,,,,,,999.1495155000011,1000.1701325000031,997.1704074000008,997.1704074000008,997.1704074000008,997.1704074000008,new_sceneIn_27.png,294,4.0,1.976492399997369,,073,10,2025-05-06_13h59.11.696,Surprise recog test,2023.1.3,59.82618101343004,
294,0,294,0,,,,,,,,,,,,,,,,,,,,,,,,,,,,,,,,,,1002.217690700003,1003.2396153000009,1000.1701325000031,1000.1701325000031,1000.1701325000031,1000.1701325000031,old_sceneOut_32.png,295,3.0,2.049662100005662,,073,10,2025-05-06_13h59.11.696,Surprise recog test,2023.1.3,59.82618101343004,
295,0,295,0,,,,,,,,,,,,,,,,,,,,,,,,,,,,,,,,,,1005.6159897000034,1006.6327668000013,1003.2396153000009,1003.2396153000009,1003.2396153000009,1003.2396153000009,old_sceneIn_19.png,296,3.0,2.3772642000039923,,073,10,2025-05-06_13h59.11.696,Surprise recog test,2023.1.3,59.82618101343004,
296,0,296,0,,,,,,,,,,,,,,,,,,,,,,,,,,,,,,,,,,1008.379579600005,,1006.6327668000013,1006.6327668000013,1006.6327668000013,1006.6327668000013,old_sceneOut_16.png,297,3.0,1.7418892000059714,,073,10,2025-05-06_13h59.11.696,Surprise recog test,2023.1.3,59.82618101343004,
297,0,297,0,,,,,,,,,,,,,,,,,,,,,,,,,,,,,,,,,,1011.6038426000014,1012.6216763000048,1009.4177488999994,1009.4177488999994,1009.4177488999994,1009.4177488999994,new_stationery_29.png,298,4.0,2.190581299997575,,073,10,2025-05-06_13h59.11.696,Surprise recog test,2023.1.3,59.82618101343004,
298,0,298,0,,,,,,,,,,,,,,,,,,,,,,,,,,,,,,,,,,1015.1743079000007,1016.2027598999994,1012.6216763000048,1012.6216763000048,1012.6216763000048,1012.6216763000048,old_sceneIn_4.png,299,3.0,2.5476201999990735,,073,10,2025-05-06_13h59.11.696,Surprise recog test,2023.1.3,59.82618101343004,
299,0,299,0,,,,,,,,,,,,,,,,,,,,,,,,,,,,,,,,,,1017.8899903999991,1018.9208216000043,1016.2027598999994,1016.2027598999994,1016.2027598999994,1016.2027598999994,old_sceneOut_12.png,300,3.0,1.6878068000005442,,073,10,2025-05-06_13h59.11.696,Surprise recog test,2023.1.3,59.82618101343004,
300,0,300,0,,,,,,,,,,,,,,,,,,,,,,,,,,,,,,,,,,1020.5661164000048,1021.590211200004,1018.9208216000043,1018.9208216000043,1018.9208216000043,1018.9208216000043,new_sceneOut_34.png,301,4.0,1.6472614000012982,,073,10,2025-05-06_13h59.11.696,Surprise recog test,2023.1.3,59.82618101343004,
301,0,301,0,,,,,,,,,,,,,,,,,,,,,,,,,,,,,,,,,,1023.535638100002,1024.5542107,1021.590211200004,1021.590211200004,1021.590211200004,1021.590211200004,new_sceneIn_47.png,302,4.0,1.9467616000038106,,073,10,2025-05-06_13h59.11.696,Surprise recog test,2023.1.3,59.82618101343004,
302,0,302,0,,,,,,,,,,,,,,,,,,,,,,,,,,,,,,,,,,1026.2323216000004,1027.2642956000054,1024.5542107,1024.5542107,1024.5542107,1024.5542107,new_sceneIn_22.png,303,2.0,1.6792071999952896,,073,10,2025-05-06_13h59.11.696,Surprise recog test,2023.1.3,59.82618101343004,
303,0,303,0,,,,,,,,,,,,,,,,,,,,,,,,,,,,,,,,,,1028.7494714000059,1029.7742473000035,1027.2642956000054,1027.2642956000054,1027.2642956000054,1027.2642956000054,old_stationery_9.png,304,1.0,1.4863097000052221,,073,10,2025-05-06_13h59.11.696,Surprise recog test,2023.1.3,59.82618101343004,
304,0,304,0,,,,,,,,,,,,,,,,,,,,,,,,,,,,,,,,,,1031.2982846000014,,1029.7742473000035,1029.7742473000035,1029.7742473000035,1029.7742473000035,old_fruit_32.png,305,1.0,1.5237720000004629,,073,10,2025-05-06_13h59.11.696,Surprise recog test,2023.1.3,59.82618101343004,
305,0,305,0,,,,,,,,,,,,,,,,,,,,,,,,,,,,,,,,,,1034.3243382,1035.3478295000023,1032.3208333000002,1032.3208333000002,1032.3208333000002,1032.3208333000002,new_sceneIn_39.png,306,2.0,1.9988412999955472,,073,10,2025-05-06_13h59.11.696,Surprise recog test,2023.1.3,59.82618101343004,
306,0,306,0,,,,,,,,,,,,,,,,,,,,,,,,,,,,,,,,,,1037.0146182000026,1038.0358229000049,1035.3478295000023,1035.3478295000023,1035.3478295000023,1035.3478295000023,old_sceneOut_10.png,307,2.0,1.665922699998191,,073,10,2025-05-06_13h59.11.696,Surprise recog test,2023.1.3,59.82618101343004,
307,0,307,0,,,,,,,,,,,,,,,,,,,,,,,,,,,,,,,,,,1039.6697142000048,1040.6910048999998,1038.0358229000049,1038.0358229000049,1038.0358229000049,1038.0358229000049,new_sceneIn_43.png,308,3.0,1.6344172000026447,,073,10,2025-05-06_13h59.11.696,Surprise recog test,2023.1.3,59.82618101343004,
308,0,308,0,,,,,,,,,,,,,,,,,,,,,,,,,,,,,,,,,,1042.1741776000054,,1040.6910048999998,1040.6910048999998,1040.6910048999998,1040.6910048999998,old_sceneOut_44.png,309,3.0,1.4845522999967216,,073,10,2025-05-06_13h59.11.696,Surprise recog test,2023.1.3,59.82618101343004,
309,0,309,0,,,,,,,,,,,,,,,,,,,,,,,,,,,,,,,,,,1045.6455375000005,,1043.2072062000007,1043.2072062000007,1043.2072062000007,1043.2072062000007,new_sceneIn_18.png,310,4.0,2.439486000002944,,073,10,2025-05-06_13h59.11.696,Surprise recog test,2023.1.3,59.82618101343004,
310,0,310,0,,,,,,,,,,,,,,,,,,,,,,,,,,,,,,,,,,1049.5611561000042,1050.5808321000004,1046.6631565999996,1046.6631565999996,1046.6631565999996,1046.6631565999996,new_sceneOut_9.png,311,4.0,2.8880705000046873,,073,10,2025-05-06_13h59.11.696,Surprise recog test,2023.1.3,59.82618101343004,
311,0,311,0,,,,,,,,,,,,,,,,,,,,,,,,,,,,,,,,,,1053.2726498000047,1054.289687700002,1050.5808321000004,1050.5808321000004,1050.5808321000004,1050.5808321000004,new_sceneIn_40.png,312,4.0,2.6931665999945835,,073,10,2025-05-06_13h59.11.696,Surprise recog test,2023.1.3,59.82618101343004,
312,0,312,0,,,,,,,,,,,,,,,,,,,,,,,,,,,,,,,,,,1056.9969545000058,1058.0261156000051,1054.289687700002,1054.289687700002,1054.289687700002,1054.289687700002,new_sceneOut_6.png,313,3.0,2.702971399994567,,073,10,2025-05-06_13h59.11.696,Surprise recog test,2023.1.3,59.82618101343004,
313,0,313,0,,,,,,,,,,,,,,,,,,,,,,,,,,,,,,,,,,1059.675409800002,1060.6994522000023,1058.0261156000051,1058.0261156000051,1058.0261156000051,1058.0261156000051,new_sceneOut_46.png,314,2.0,1.6544781000047806,,073,10,2025-05-06_13h59.11.696,Surprise recog test,2023.1.3,59.82618101343004,
314,0,314,0,,,,,,,,,,,,,,,,,,,,,,,,,,,,,,,,,,1062.7199920999992,1063.7417662000007,1060.6994522000023,1060.6994522000023,1060.6994522000023,1060.6994522000023,new_sceneIn_24.png,315,2.0,2.0208392000058666,,073,10,2025-05-06_13h59.11.696,Surprise recog test,2023.1.3,59.82618101343004,
315,0,315,0,,,,,,,,,,,,,,,,,,,,,,,,,,,,,,,,,,1065.440194499999,1066.4606828000033,1063.7417662000007,1063.7417662000007,1063.7417662000007,1063.7417662000007,new_sceneOut_37.png,316,4.0,1.6999895999979344,,073,10,2025-05-06_13h59.11.696,Surprise recog test,2023.1.3,59.82618101343004,
316,0,316,0,,,,,,,,,,,,,,,,,,,,,,,,,,,,,,,,,,1068.3658638000052,1069.398839900001,1066.4606828000033,1066.4606828000033,1066.4606828000033,1066.4606828000033,new_stationery_25.png,317,4.0,1.9070217999978922,,073,10,2025-05-06_13h59.11.696,Surprise recog test,2023.1.3,59.82618101343004,
317,0,317,0,,,,,,,,,,,,,,,,,,,,,,,,,,,,,,,,,,1071.4921699000042,1072.5151910999994,1069.398839900001,1069.398839900001,1069.398839900001,1069.398839900001,new_sceneOut_39.png,318,3.0,2.0958841999963624,,073,10,2025-05-06_13h59.11.696,Surprise recog test,2023.1.3,59.82618101343004,
318,0,318,0,,,,,,,,,,,,,,,,,,,,,,,,,,,,,,,,,,1074.1271252000006,1075.147388199999,1072.5151910999994,1072.5151910999994,1072.5151910999994,1072.5151910999994,old_fruit_30.png,319,1.0,1.6131804999968153,,073,10,2025-05-06_13h59.11.696,Surprise recog test,2023.1.3,59.82618101343004,
319,0,319,0,,,,,,,,,,,,,,,,,,,,,,,,,,,,,,,,,,1077.2598567000023,1078.2830146000051,1075.147388199999,1075.147388199999,1075.147388199999,1075.147388199999,old_stationery_45.png,320,4.0,2.112208099999407,,073,10,2025-05-06_13h59.11.696,Surprise recog test,2023.1.3,59.82618101343004,
320,0,320,0,,,,,,,,,,,,,,,,,,,,,,,,,,,,,,,,,,1080.136747000004,1081.1457732000054,1078.2830146000051,1078.2830146000051,1078.2830146000051,1078.2830146000051,old_sceneOut_46.png,321,3.0,1.8535850000043865,,073,10,2025-05-06_13h59.11.696,Surprise recog test,2023.1.3,59.82618101343004,
321,0,321,0,,,,,,,,,,,,,,,,,,,,,,,,,,,,,,,,,,1082.7643615000052,1083.781036100001,1081.1457732000054,1081.1457732000054,1081.1457732000054,1081.1457732000054,new_sceneIn_41.png,322,2.0,1.6150953999967896,,073,10,2025-05-06_13h59.11.696,Surprise recog test,2023.1.3,59.82618101343004,
322,0,322,0,,,,,,,,,,,,,,,,,,,,,,,,,,,,,,,,,,1085.3316578000013,1086.3647434000013,1083.781036100001,1083.781036100001,1083.781036100001,1083.781036100001,old_sceneIn_14.png,323,2.0,1.5458007999986876,,073,10,2025-05-06_13h59.11.696,Surprise recog test,2023.1.3,59.82618101343004,
323,0,323,0,,,,,,,,,,,,,,,,,,,,,,,,,,,,,,,,,,1088.486065600002,1089.5109108000033,1086.3647434000013,1086.3647434000013,1086.3647434000013,1086.3647434000013,new_sceneIn_25.png,324,3.0,2.1246067999964,,073,10,2025-05-06_13h59.11.696,Surprise recog test,2023.1.3,59.82618101343004,
324,0,324,0,,,,,,,,,,,,,,,,,,,,,,,,,,,,,,,,,,1091.2325497000056,,1089.5109108000033,1089.5109108000033,1089.5109108000033,1089.5109108000033,new_fruit_26.png,325,2.0,1.724270599996089,,073,10,2025-05-06_13h59.11.696,Surprise recog test,2023.1.3,59.82618101343004,
325,0,325,0,,,,,,,,,,,,,,,,,,,,,,,,,,,,,,,,,,1094.4855519000048,,1092.2649598999997,1092.2649598999997,1092.2649598999997,1092.2649598999997,new_stationery_45.png,326,2.0,2.220895300000848,,073,10,2025-05-06_13h59.11.696,Surprise recog test,2023.1.3,59.82618101343004,
326,0,326,0,,,,,,,,,,,,,,,,,,,,,,,,,,,,,,,,,,1097.6913630000054,1098.7185098000045,1095.515184200005,1095.515184200005,1095.515184200005,1095.515184200005,old_sceneOut_26.png,327,2.0,2.175693899996986,,073,10,2025-05-06_13h59.11.696,Surprise recog test,2023.1.3,59.82618101343004,
327,0,327,0,,,,,,,,,,,,,,,,,,,,,,,,,,,,,,,,,,1100.5997860000061,1101.6186450000023,1098.7185098000045,1098.7185098000045,1098.7185098000045,1098.7185098000045,new_fruit_15.png,328,2.0,1.8826477999973577,,073,10,2025-05-06_13h59.11.696,Surprise recog test,2023.1.3,59.82618101343004,
328,0,328,0,,,,,,,,,,,,,,,,,,,,,,,,,,,,,,,,,,1103.8032915000003,1104.8248269000032,1101.6186450000023,1101.6186450000023,1101.6186450000023,1101.6186450000023,new_fruit_41.png,329,4.0,2.1838543999983813,,073,10,2025-05-06_13h59.11.696,Surprise recog test,2023.1.3,59.82618101343004,
329,0,329,0,,,,,,,,,,,,,,,,,,,,,,,,,,,,,,,,,,1106.6999386000025,1107.7300088000047,1104.8248269000032,1104.8248269000032,1104.8248269000032,1104.8248269000032,new_sceneIn_45.png,330,4.0,1.8761828999995487,,073,10,2025-05-06_13h59.11.696,Surprise recog test,2023.1.3,59.82618101343004,
330,0,330,0,,,,,,,,,,,,,,,,,,,,,,,,,,,,,,,,,,1109.532454799999,1110.5686594,1107.7300088000047,1107.7300088000047,1107.7300088000047,1107.7300088000047,new_stationery_48.png,331,3.0,1.8035681000037584,,073,10,2025-05-06_13h59.11.696,Surprise recog test,2023.1.3,59.82618101343004,
331,0,331,0,,,,,,,,,,,,,,,,,,,,,,,,,,,,,,,,,,1112.7480569000036,1113.7695850000018,1110.5686594,1110.5686594,1110.5686594,1110.5686594,new_sceneOut_17.png,332,4.0,2.182985799998278,,073,10,2025-05-06_13h59.11.696,Surprise recog test,2023.1.3,59.82618101343004,
332,0,332,0,,,,,,,,,,,,,,,,,,,,,,,,,,,,,,,,,,1115.5046770000044,1116.537898100003,1113.7695850000018,1113.7695850000018,1113.7695850000018,1113.7695850000018,new_fruit_30.png,333,1.0,1.7360331999952905,,073,10,2025-05-06_13h59.11.696,Surprise recog test,2023.1.3,59.82618101343004,
333,0,333,0,,,,,,,,,,,,,,,,,,,,,,,,,,,,,,,,,,1118.000867499999,1119.012837400005,1116.537898100003,1116.537898100003,1116.537898100003,1116.537898100003,old_stationery_1.png,334,1.0,1.4641189999965718,,073,10,2025-05-06_13h59.11.696,Surprise recog test,2023.1.3,59.82618101343004,
334,0,334,0,,,,,,,,,,,,,,,,,,,,,,,,,,,,,,,,,,1120.380663200005,1121.4006754000002,1119.012837400005,1119.012837400005,1119.012837400005,1119.012837400005,new_fruit_25.png,335,1.0,1.3646559999979218,,073,10,2025-05-06_13h59.11.696,Surprise recog test,2023.1.3,59.82618101343004,
335,0,335,0,,,,,,,,,,,,,,,,,,,,,,,,,,,,,,,,,,1123.1728980000044,1124.1919254000022,1121.4006754000002,1121.4006754000002,1121.4006754000002,1121.4006754000002,new_fruit_14.png,336,2.0,1.7718038000020897,,073,10,2025-05-06_13h59.11.696,Surprise recog test,2023.1.3,59.82618101343004,
336,0,336,0,,,,,,,,,,,,,,,,,,,,,,,,,,,,,,,,,,1125.9340515000004,1126.953571900005,1124.1919254000022,1124.1919254000022,1124.1919254000022,1124.1919254000022,old_fruit_2.png,337,1.0,1.7442264999990584,,073,10,2025-05-06_13h59.11.696,Surprise recog test,2023.1.3,59.82618101343004,
337,0,337,0,,,,,,,,,,,,,,,,,,,,,,,,,,,,,,,,,,1128.9246045000036,1129.9323358000038,1126.953571900005,1126.953571900005,1126.953571900005,1126.953571900005,new_sceneOut_31.png,338,1.0,1.9712002000014763,,073,10,2025-05-06_13h59.11.696,Surprise recog test,2023.1.3,59.82618101343004,
338,0,338,0,,,,,,,,,,,,,,,,,,,,,,,,,,,,,,,,,,1131.6357085000054,1132.6657517999993,1129.9323358000038,1129.9323358000038,1129.9323358000038,1129.9323358000038,old_stationery_47.png,339,1.0,1.6988454999955138,,073,10,2025-05-06_13h59.11.696,Surprise recog test,2023.1.3,59.82618101343004,
339,0,339,0,,,,,,,,,,,,,,,,,,,,,,,,,,,,,,,,,,1134.0418898999997,1135.0605849000058,1132.6657517999993,1132.6657517999993,1132.6657517999993,1132.6657517999993,old_sceneOut_34.png,340,2.0,1.377576599996246,,073,10,2025-05-06_13h59.11.696,Surprise recog test,2023.1.3,59.82618101343004,
340,0,340,0,,,,,,,,,,,,,,,,,,,,,,,,,,,,,,,,,,1136.4410095000057,1137.4542580000052,1135.0605849000058,1135.0605849000058,1135.0605849000058,1135.0605849000058,old_fruit_49.png,341,1.0,1.3806059999988065,,073,10,2025-05-06_13h59.11.696,Surprise recog test,2023.1.3,59.82618101343004,
341,0,341,0,,,,,,,,,,,,,,,,,,,,,,,,,,,,,,,,,,1138.7546511000037,,1137.4542580000052,1137.4542580000052,1137.4542580000052,1137.4542580000052,new_fruit_37.png,342,1.0,1.294656699996267,,073,10,2025-05-06_13h59.11.696,Surprise recog test,2023.1.3,59.82618101343004,
342,0,342,0,,,,,,,,,,,,,,,,,,,,,,,,,,,,,,,,,,1141.3577994000007,,1139.7763895000026,1139.7763895000026,1139.7763895000026,1139.7763895000026,new_sceneOut_7.png,343,3.0,1.5765509000048041,,073,10,2025-05-06_13h59.11.696,Surprise recog test,2023.1.3,59.82618101343004,
343,0,343,0,,,,,,,,,,,,,,,,,,,,,,,,,,,,,,,,,,1143.7831188000055,1144.8072879000028,1142.376601200005,1142.376601200005,1142.376601200005,1142.376601200005,new_stationery_7.png,344,3.0,1.4017184000040288,,073,10,2025-05-06_13h59.11.696,Surprise recog test,2023.1.3,59.82618101343004,
344,0,344,0,,,,,,,,,,,,,,,,,,,,,,,,,,,,,,,,,,1146.353863000004,1147.3770530000038,1144.8072879000028,1144.8072879000028,1144.8072879000028,1144.8072879000028,new_fruit_31.png,345,2.0,1.5478474000046845,,073,10,2025-05-06_13h59.11.696,Surprise recog test,2023.1.3,59.82618101343004,
345,0,345,0,,,,,,,,,,,,,,,,,,,,,,,,,,,,,,,,,,1150.078698199999,1151.092123800001,1147.3770530000038,1147.3770530000038,1147.3770530000038,1147.3770530000038,new_sceneIn_35.png,346,4.0,2.7006879999971716,,073,10,2025-05-06_13h59.11.696,Surprise recog test,2023.1.3,59.82618101343004,
346,0,346,0,,,,,,,,,,,,,,,,,,,,,,,,,,,,,,,,,,1152.9518148999996,,1151.092123800001,1151.092123800001,1151.092123800001,1151.092123800001,new_sceneIn_5.png,347,4.0,1.8592589000036241,,073,10,2025-05-06_13h59.11.696,Surprise recog test,2023.1.3,59.82618101343004,
347,0,347,0,,,,,,,,,,,,,,,,,,,,,,,,,,,,,,,,,,1155.9655018000049,1156.9862572999991,1153.9825801000043,1153.9825801000043,1153.9825801000043,1153.9825801000043,old_stationery_30.png,348,2.0,1.983597100006591,,073,10,2025-05-06_13h59.11.696,Surprise recog test,2023.1.3,59.82618101343004,
348,0,348,0,,,,,,,,,,,,,,,,,,,,,,,,,,,,,,,,,,1158.4493598000045,1159.470289900004,1156.9862572999991,1156.9862572999991,1156.9862572999991,1156.9862572999991,old_sceneOut_27.png,349,3.0,1.463935500003572,,073,10,2025-05-06_13h59.11.696,Surprise recog test,2023.1.3,59.82618101343004,
349,0,349,0,,,,,,,,,,,,,,,,,,,,,,,,,,,,,,,,,,1161.0671150000053,1162.091327000002,1159.470289900004,1159.470289900004,1159.470289900004,1159.470289900004,old_sceneIn_21.png,350,3.0,1.5951293999969494,,073,10,2025-05-06_13h59.11.696,Surprise recog test,2023.1.3,59.82618101343004,
350,0,350,0,,,,,,,,,,,,,,,,,,,,,,,,,,,,,,,,,,1163.8983176000038,1164.924647300002,1162.091327000002,1162.091327000002,1162.091327000002,1162.091327000002,new_sceneIn_1.png,351,2.0,1.808480799998506,,073,10,2025-05-06_13h59.11.696,Surprise recog test,2023.1.3,59.82618101343004,
351,0,351,0,,,,,,,,,,,,,,,,,,,,,,,,,,,,,,,,,,1166.5781797000018,,1164.924647300002,1164.924647300002,1164.924647300002,1164.924647300002,old_fruit_39.png,352,1.0,1.6528932000001078,,073,10,2025-05-06_13h59.11.696,Surprise recog test,2023.1.3,59.82618101343004,
352,0,352,0,,,,,,,,,,,,,,,,,,,,,,,,,,,,,,,,,,1169.9651512000055,,1167.6097326000017,1167.6097326000017,1167.6097326000017,1167.6097326000017,new_stationery_3.png,353,4.0,2.356967799998529,,073,10,2025-05-06_13h59.11.696,Surprise recog test,2023.1.3,59.82618101343004,
353,0,353,0,,,,,,,,,,,,,,,,,,,,,,,,,,,,,,,,,,1172.6404747000051,1173.6554661000046,1170.9948041000025,1170.9948041000025,1170.9948041000025,1170.9948041000025,new_fruit_38.png,354,4.0,1.6470980000012787,,073,10,2025-05-06_13h59.11.696,Surprise recog test,2023.1.3,59.82618101343004,
354,0,354,0,,,,,,,,,,,,,,,,,,,,,,,,,,,,,,,,,,1175.5824939000013,1176.6023281000016,1173.6554661000046,1173.6554661000046,1173.6554661000046,1173.6554661000046,new_sceneOut_18.png,355,4.0,1.9215609000020777,,073,10,2025-05-06_13h59.11.696,Surprise recog test,2023.1.3,59.82618101343004,
