trial_loop.thisRepN,trial_loop.thisTrialN,trial_loop.thisN,trial_loop.thisIndex,VAS_slider.started,VAS_text.started,VAS_notstressed_text.started,VAS_stressed_text.started,continue_input.started,continue_text.started,label0.started,label10.started,label20.started,label30.started,label40.started,label50.started,label60.started,label70.started,label80.started,label90.started,label100.started,VAS_slider.response,VAS_slider.rt,VAS_slider.history,Answer_VAS,continue_input.keys,instruction_text.started,continue_text_2.started,continue_input_2.started,continue_input_2.keys,continue_input_2.rt,continue_input_2.duration,example_text.started,example_slider_2.started,example_image.started,example_slider_2.response,example_slider_2.rt,fixcross.started,fixcross.stopped,front_square.started,stim_images.started,trial_inst_images.started,slider_images.started,slider_images.stopped,thisImg,trial_count,slider_images.response,slider_images.rt,outro.started,participant,condition,date,expName,psychopyVersion,frameRate,
,,,,977.7902504000813,977.7902504000813,977.7902504000813,977.7902504000813,977.7902504000813,977.7902504000813,977.7902504000813,977.7902504000813,977.7902504000813,977.7902504000813,977.7902504000813,977.7902504000813,977.7902504000813,977.7902504000813,977.7902504000813,977.7902504000813,977.7902504000813,1.9722222222222223,18.15765810001176,"[(1.9722222222222223, 18.15765810001176)]",1.9722222222222223,None,,,,,,,,,,,,,,,,,,,,,,,,074,00,2025-05-23_14h50.35.857,Surprise recog test,2023.1.3,59.819452917354916,
,,,,,,,,,,,,,,,,,,,,,,,,,,995.9779831999913,995.9779831999913,995.9779831999913,space,40.580596299958415,None,,,,,,,,,,,,,,,,,,074,00,2025-05-23_14h50.35.857,Surprise recog test,2023.1.3,59.819452917354916,
0,0,0,0,,,,,,,,,,,,,,,,,,,,,,,,,,,,,1036.6867827000096,1036.6867827000096,1036.6867827000096,5.0,12.50097569997888,1055.1352423999924,1050.1469407000113,1050.1469407000113,1050.1469407000113,1050.1469407000113,1050.1469407000113,1055.1217900000047,new_sceneOut_18.png,1,None,None,,074,00,2025-05-23_14h50.35.857,Surprise recog test,2023.1.3,59.819452917354916,
1,0,1,0,,,,,,,,,,,,,,,,,,,,,,,,,,,,,,,,,,1057.9617163999937,1058.9723480000393,1056.15071419999,1056.15071419999,1056.15071419999,1056.15071419999,,old_fruit_43.png,2,1.0,1.8092474000295624,,074,00,2025-05-23_14h50.35.857,Surprise recog test,2023.1.3,59.819452917354916,
2,0,2,0,,,,,,,,,,,,,,,,,,,,,,,,,,,,,,,,,,1061.787548399996,1062.8069098000415,1058.9723480000393,1058.9723480000393,1058.9723480000393,1058.9723480000393,,new_sceneOut_50.png,3,4.0,2.80459489999339,,074,00,2025-05-23_14h50.35.857,Surprise recog test,2023.1.3,59.819452917354916,
3,0,3,0,,,,,,,,,,,,,,,,,,,,,,,,,,,,,,,,,,1065.0242751999758,1066.0369246000191,1062.8069098000415,1062.8069098000415,1062.8069098000415,1062.8069098000415,,new_sceneIn_8.png,4,4.0,2.2169092000694945,,074,00,2025-05-23_14h50.35.857,Surprise recog test,2023.1.3,59.819452917354916,
4,0,4,0,,,,,,,,,,,,,,,,,,,,,,,,,,,,,,,,,,1068.0844874000177,1069.106430200045,1066.0369246000191,1066.0369246000191,1066.0369246000191,1066.0369246000191,,old_fruit_40.png,5,1.0,2.048205600003712,,074,00,2025-05-23_14h50.35.857,Surprise recog test,2023.1.3,59.819452917354916,
5,0,5,0,,,,,,,,,,,,,,,,,,,,,,,,,,,,,,,,,,1071.190414700075,1072.2084205000428,1069.106430200045,1069.106430200045,1069.106430200045,1069.106430200045,,new_stationery_39.png,6,4.0,2.085100100026466,,074,00,2025-05-23_14h50.35.857,Surprise recog test,2023.1.3,59.819452917354916,
6,0,6,0,,,,,,,,,,,,,,,,,,,,,,,,,,,,,,,,,,1075.0561817000853,1076.079428200028,1072.2084205000428,1072.2084205000428,1072.2084205000428,1072.2084205000428,,old_stationery_1.png,7,4.0,2.844288000022061,,074,00,2025-05-23_14h50.35.857,Surprise recog test,2023.1.3,59.819452917354916,
7,0,7,0,,,,,,,,,,,,,,,,,,,,,,,,,,,,,,,,,,1079.2218469000654,,1076.079428200028,1076.079428200028,1076.079428200028,1076.079428200028,,old_sceneOut_20.png,8,4.0,3.143093000049703,,074,00,2025-05-23_14h50.35.857,Surprise recog test,2023.1.3,59.819452917354916,
8,0,8,0,,,,,,,,,,,,,,,,,,,,,,,,,,,,,,,,,,1083.8677743000444,1084.8930998999858,1080.2522083000513,1080.2522083000513,1080.2522083000513,1080.2522083000513,,new_fruit_11.png,9,2.0,3.6126762999920174,,074,00,2025-05-23_14h50.35.857,Surprise recog test,2023.1.3,59.819452917354916,
9,0,9,0,,,,,,,,,,,,,,,,,,,,,,,,,,,,,,,,,,1087.3664207999827,1088.3911028000293,1084.8930998999858,1084.8930998999858,1084.8930998999858,1084.8930998999858,,new_sceneIn_20.png,10,4.0,2.475128800026141,,074,00,2025-05-23_14h50.35.857,Surprise recog test,2023.1.3,59.819452917354916,
10,0,10,0,,,,,,,,,,,,,,,,,,,,,,,,,,,,,,,,,,1090.6942588000093,1091.7079394999892,1088.3911028000293,1088.3911028000293,1088.3911028000293,1088.3911028000293,,new_stationery_6.png,11,4.0,2.302148799994029,,074,00,2025-05-23_14h50.35.857,Surprise recog test,2023.1.3,59.819452917354916,
11,0,11,0,,,,,,,,,,,,,,,,,,,,,,,,,,,,,,,,,,1093.09280079999,1094.1190074000042,1091.7079394999892,1091.7079394999892,1091.7079394999892,1091.7079394999892,,new_sceneIn_32.png,12,4.0,1.3856514000799507,,074,00,2025-05-23_14h50.35.857,Surprise recog test,2023.1.3,59.819452917354916,
12,0,12,0,,,,,,,,,,,,,,,,,,,,,,,,,,,,,,,,,,1096.31598449999,1097.3363147000782,1094.1190074000042,1094.1190074000042,1094.1190074000042,1094.1190074000042,,old_sceneIn_34.png,13,2.0,2.192980899941176,,074,00,2025-05-23_14h50.35.857,Surprise recog test,2023.1.3,59.819452917354916,
13,0,13,0,,,,,,,,,,,,,,,,,,,,,,,,,,,,,,,,,,1098.9768227000022,1100.0023033000762,1097.3363147000782,1097.3363147000782,1097.3363147000782,1097.3363147000782,,old_fruit_12.png,14,1.0,1.6412943999748677,,074,00,2025-05-23_14h50.35.857,Surprise recog test,2023.1.3,59.819452917354916,
14,0,14,0,,,,,,,,,,,,,,,,,,,,,,,,,,,,,,,,,,1102.118450900074,1103.1417838999769,1100.0023033000762,1100.0023033000762,1100.0023033000762,1100.0023033000762,,old_sceneIn_1.png,15,4.0,2.1155976000009105,,074,00,2025-05-23_14h50.35.857,Surprise recog test,2023.1.3,59.819452917354916,
15,0,15,0,,,,,,,,,,,,,,,,,,,,,,,,,,,,,,,,,,1104.2703472999856,1105.2913861999987,1103.1417838999769,1103.1417838999769,1103.1417838999769,1103.1417838999769,,new_stationery_48.png,16,4.0,1.130012199981138,,074,00,2025-05-23_14h50.35.857,Surprise recog test,2023.1.3,59.819452917354916,
16,0,16,0,,,,,,,,,,,,,,,,,,,,,,,,,,,,,,,,,,1107.8538208000828,1108.8810941000702,1105.2913861999987,1105.2913861999987,1105.2913861999987,1105.2913861999987,,old_stationery_50.png,17,3.0,2.5640078999567777,,074,00,2025-05-23_14h50.35.857,Surprise recog test,2023.1.3,59.819452917354916,
17,0,17,0,,,,,,,,,,,,,,,,,,,,,,,,,,,,,,,,,,1110.785410600016,1111.8163978999946,1108.8810941000702,1108.8810941000702,1108.8810941000702,1108.8810941000702,,new_sceneOut_41.png,18,4.0,1.9064302999759093,,074,00,2025-05-23_14h50.35.857,Surprise recog test,2023.1.3,59.819452917354916,
18,0,18,0,,,,,,,,,,,,,,,,,,,,,,,,,,,,,,,,,,1112.9318773000268,,1111.8163978999946,1111.8163978999946,1111.8163978999946,1111.8163978999946,,new_sceneOut_36.png,19,4.0,1.118013999890536,,074,00,2025-05-23_14h50.35.857,Surprise recog test,2023.1.3,59.819452917354916,
19,0,19,0,,,,,,,,,,,,,,,,,,,,,,,,,,,,,,,,,,1115.9205045000417,1116.9465057000052,1113.9641082000453,1113.9641082000453,1113.9641082000453,1113.9641082000453,,old_sceneOut_9.png,20,3.0,1.9572926999535412,,074,00,2025-05-23_14h50.35.857,Surprise recog test,2023.1.3,59.819452917354916,
20,0,20,0,,,,,,,,,,,,,,,,,,,,,,,,,,,,,,,,,,1118.6179571000393,1119.6301324000815,1116.9465057000052,1116.9465057000052,1116.9465057000052,1116.9465057000052,,new_stationery_7.png,21,4.0,1.6655966999242082,,074,00,2025-05-23_14h50.35.857,Surprise recog test,2023.1.3,59.819452917354916,
21,0,21,0,,,,,,,,,,,,,,,,,,,,,,,,,,,,,,,,,,1121.7640577000566,1122.7800309000304,1119.6301324000815,1119.6301324000815,1119.6301324000815,1119.6301324000815,,old_sceneOut_50.png,22,4.0,2.1318602999672294,,074,00,2025-05-23_14h50.35.857,Surprise recog test,2023.1.3,59.819452917354916,
22,0,22,0,,,,,,,,,,,,,,,,,,,,,,,,,,,,,,,,,,1125.3497440000065,1126.3728702000808,1122.7800309000304,1122.7800309000304,1122.7800309000304,1122.7800309000304,,new_stationery_43.png,23,4.0,2.5647975000320002,,074,00,2025-05-23_14h50.35.857,Surprise recog test,2023.1.3,59.819452917354916,
23,0,23,0,,,,,,,,,,,,,,,,,,,,,,,,,,,,,,,,,,1128.3854101999896,1129.4134955999907,1126.3728702000808,1126.3728702000808,1126.3728702000808,1126.3728702000808,,new_fruit_47.png,24,4.0,2.011649899999611,,074,00,2025-05-23_14h50.35.857,Surprise recog test,2023.1.3,59.819452917354916,
24,0,24,0,,,,,,,,,,,,,,,,,,,,,,,,,,,,,,,,,,1130.2876856999937,1131.31264680007,1129.4134955999907,1129.4134955999907,1129.4134955999907,1129.4134955999907,,new_sceneIn_38.png,25,4.0,0.8755303000798449,,074,00,2025-05-23_14h50.35.857,Surprise recog test,2023.1.3,59.819452917354916,
25,0,25,0,,,,,,,,,,,,,,,,,,,,,,,,,,,,,,,,,,1132.54604070005,1133.5543686000165,1131.31264680007,1131.31264680007,1131.31264680007,1131.31264680007,,old_fruit_17.png,26,4.0,1.2268137999344617,,074,00,2025-05-23_14h50.35.857,Surprise recog test,2023.1.3,59.819452917354916,
26,0,26,0,,,,,,,,,,,,,,,,,,,,,,,,,,,,,,,,,,1134.935159399989,,1133.5543686000165,1133.5543686000165,1133.5543686000165,1133.5543686000165,,old_fruit_36.png,27,1.0,1.3745407999958843,,074,00,2025-05-23_14h50.35.857,Surprise recog test,2023.1.3,59.819452917354916,
27,0,27,0,,,,,,,,,,,,,,,,,,,,,,,,,,,,,,,,,,1137.9084837000119,1138.93203060003,1135.9648139000637,1135.9648139000637,1135.9648139000637,1135.9648139000637,,new_fruit_27.png,28,2.0,1.9461836999980733,,074,00,2025-05-23_14h50.35.857,Surprise recog test,2023.1.3,59.819452917354916,
28,0,28,0,,,,,,,,,,,,,,,,,,,,,,,,,,,,,,,,,,1140.5075217999984,1141.544406000059,1138.93203060003,1138.93203060003,1138.93203060003,1138.93203060003,,new_stationery_30.png,29,4.0,1.577137100044638,,074,00,2025-05-23_14h50.35.857,Surprise recog test,2023.1.3,59.819452917354916,
29,0,29,0,,,,,,,,,,,,,,,,,,,,,,,,,,,,,,,,,,1142.5108386999927,1143.5289753000252,1141.544406000059,1141.544406000059,1141.544406000059,1141.544406000059,,old_stationery_2.png,30,4.0,0.9694960000924766,,074,00,2025-05-23_14h50.35.857,Surprise recog test,2023.1.3,59.819452917354916,
30,0,30,0,,,,,,,,,,,,,,,,,,,,,,,,,,,,,,,,,,1146.5423883000622,1147.5613847000059,1143.5289753000252,1143.5289753000252,1143.5289753000252,1143.5289753000252,,old_stationery_31.png,31,4.0,3.008231799933128,,074,00,2025-05-23_14h50.35.857,Surprise recog test,2023.1.3,59.819452917354916,
31,0,31,0,,,,,,,,,,,,,,,,,,,,,,,,,,,,,,,,,,1150.7545045000734,1151.7681451999815,1147.5613847000059,1147.5613847000059,1147.5613847000059,1147.5613847000059,,old_fruit_21.png,32,3.0,3.19663469993975,,074,00,2025-05-23_14h50.35.857,Surprise recog test,2023.1.3,59.819452917354916,
32,0,32,0,,,,,,,,,,,,,,,,,,,,,,,,,,,,,,,,,,1153.8301122999983,1154.8391273000743,1151.7681451999815,1151.7681451999815,1151.7681451999815,1151.7681451999815,,new_fruit_21.png,33,1.0,2.056920300005004,,074,00,2025-05-23_14h50.35.857,Surprise recog test,2023.1.3,59.819452917354916,
33,0,33,0,,,,,,,,,,,,,,,,,,,,,,,,,,,,,,,,,,1156.3517586999806,,1154.8391273000743,1154.8391273000743,1154.8391273000743,1154.8391273000743,,new_sceneIn_16.png,34,4.0,1.5080595000181347,,074,00,2025-05-23_14h50.35.857,Surprise recog test,2023.1.3,59.819452917354916,
34,0,34,0,,,,,,,,,,,,,,,,,,,,,,,,,,,,,,,,,,1158.9248856999911,1159.9560942000244,1157.388207299984,1157.388207299984,1157.388207299984,1157.388207299984,,old_sceneOut_41.png,35,4.0,1.5375950000016019,,074,00,2025-05-23_14h50.35.857,Surprise recog test,2023.1.3,59.819452917354916,
35,0,35,0,,,,,,,,,,,,,,,,,,,,,,,,,,,,,,,,,,1163.3137534999987,1164.343248900026,1159.9560942000244,1159.9560942000244,1159.9560942000244,1159.9560942000244,,new_fruit_25.png,36,4.0,3.357688199961558,,074,00,2025-05-23_14h50.35.857,Surprise recog test,2023.1.3,59.819452917354916,
36,0,36,0,,,,,,,,,,,,,,,,,,,,,,,,,,,,,,,,,,1165.2153765000403,1166.2432761000236,1164.343248900026,1164.343248900026,1164.343248900026,1164.343248900026,,old_stationery_7.png,37,4.0,0.8736703000031412,,074,00,2025-05-23_14h50.35.857,Surprise recog test,2023.1.3,59.819452917354916,
37,0,37,0,,,,,,,,,,,,,,,,,,,,,,,,,,,,,,,,,,1168.099036199972,1169.1318242000416,1166.2432761000236,1166.2432761000236,1166.2432761000236,1166.2432761000236,,new_fruit_26.png,38,2.0,1.857402199995704,,074,00,2025-05-23_14h50.35.857,Surprise recog test,2023.1.3,59.819452917354916,
38,0,38,0,,,,,,,,,,,,,,,,,,,,,,,,,,,,,,,,,,1170.4859179999912,1171.5169338000705,1169.1318242000416,1169.1318242000416,1169.1318242000416,1169.1318242000416,,new_fruit_31.png,39,2.0,1.3569129999959841,,074,00,2025-05-23_14h50.35.857,Surprise recog test,2023.1.3,59.819452917354916,
39,0,39,0,,,,,,,,,,,,,,,,,,,,,,,,,,,,,,,,,,1172.7136815000558,1173.7272255000426,1171.5169338000705,1171.5169338000705,1171.5169338000705,1171.5169338000705,,new_stationery_14.png,40,4.0,1.1989947999827564,,074,00,2025-05-23_14h50.35.857,Surprise recog test,2023.1.3,59.819452917354916,
40,0,40,0,,,,,,,,,,,,,,,,,,,,,,,,,,,,,,,,,,1174.5070019999985,1175.532698700088,1173.7272255000426,1173.7272255000426,1173.7272255000426,1173.7272255000426,,old_sceneOut_19.png,41,4.0,0.781237700022757,,074,00,2025-05-23_14h50.35.857,Surprise recog test,2023.1.3,59.819452917354916,
41,0,41,0,,,,,,,,,,,,,,,,,,,,,,,,,,,,,,,,,,1176.3466109000146,1177.3625947000692,1175.532698700088,1175.532698700088,1175.532698700088,1175.532698700088,,new_stationery_11.png,42,4.0,0.8157885000109673,,074,00,2025-05-23_14h50.35.857,Surprise recog test,2023.1.3,59.819452917354916,
42,0,42,0,,,,,,,,,,,,,,,,,,,,,,,,,,,,,,,,,,1178.8106831000187,1179.8260003000032,1177.3625947000692,1177.3625947000692,1177.3625947000692,1177.3625947000692,,old_fruit_30.png,43,1.0,1.4459105000132695,,074,00,2025-05-23_14h50.35.857,Surprise recog test,2023.1.3,59.819452917354916,
43,0,43,0,,,,,,,,,,,,,,,,,,,,,,,,,,,,,,,,,,1181.066272999975,1182.0832154999953,1179.8260003000032,1179.8260003000032,1179.8260003000032,1179.8260003000032,,new_sceneOut_35.png,44,4.0,1.2361992000369355,,074,00,2025-05-23_14h50.35.857,Surprise recog test,2023.1.3,59.819452917354916,
44,0,44,0,,,,,,,,,,,,,,,,,,,,,,,,,,,,,,,,,,1182.797003600048,1183.8121696000453,1182.0832154999953,1182.0832154999953,1182.0832154999953,1182.0832154999953,,old_stationery_21.png,45,4.0,0.7128729000687599,,074,00,2025-05-23_14h50.35.857,Surprise recog test,2023.1.3,59.819452917354916,
45,0,45,0,,,,,,,,,,,,,,,,,,,,,,,,,,,,,,,,,,1185.8070668000728,1186.8280843000393,1183.8121696000453,1183.8121696000453,1183.8121696000453,1183.8121696000453,,new_fruit_42.png,46,4.0,1.9840544000035152,,074,00,2025-05-23_14h50.35.857,Surprise recog test,2023.1.3,59.819452917354916,
46,0,46,0,,,,,,,,,,,,,,,,,,,,,,,,,,,,,,,,,,1188.6161645000102,1189.6441779000452,1186.8280843000393,1186.8280843000393,1186.8280843000393,1186.8280843000393,,old_sceneIn_12.png,47,4.0,1.7889043000759557,,074,00,2025-05-23_14h50.35.857,Surprise recog test,2023.1.3,59.819452917354916,
47,0,47,0,,,,,,,,,,,,,,,,,,,,,,,,,,,,,,,,,,1191.4853308000602,1192.5172470000107,1189.6441779000452,1189.6441779000452,1189.6441779000452,1189.6441779000452,,old_sceneOut_42.png,48,4.0,1.84155200002715,,074,00,2025-05-23_14h50.35.857,Surprise recog test,2023.1.3,59.819452917354916,
48,0,48,0,,,,,,,,,,,,,,,,,,,,,,,,,,,,,,,,,,1193.4423248000676,1194.463435600046,1192.5172470000107,1192.5172470000107,1192.5172470000107,1192.5172470000107,,new_sceneOut_4.png,49,4.0,0.9274504000786692,,074,00,2025-05-23_14h50.35.857,Surprise recog test,2023.1.3,59.819452917354916,
49,0,49,0,,,,,,,,,,,,,,,,,,,,,,,,,,,,,,,,,,1196.5660535000497,1197.573005000013,1194.463435600046,1194.463435600046,1194.463435600046,1194.463435600046,,old_sceneIn_23.png,50,4.0,2.0973520999541506,,074,00,2025-05-23_14h50.35.857,Surprise recog test,2023.1.3,59.819452917354916,
50,0,50,0,,,,,,,,,,,,,,,,,,,,,,,,,,,,,,,,,,1198.4173735000659,1199.4416837000754,1197.573005000013,1197.573005000013,1197.573005000013,1197.573005000013,,new_stationery_24.png,51,4.0,0.8400592999532819,,074,00,2025-05-23_14h50.35.857,Surprise recog test,2023.1.3,59.819452917354916,
51,0,51,0,,,,,,,,,,,,,,,,,,,,,,,,,,,,,,,,,,1200.2093809000216,1201.2337379000382,1199.4416837000754,1199.4416837000754,1199.4416837000754,1199.4416837000754,,new_sceneOut_47.png,52,4.0,0.7693178000627086,,074,00,2025-05-23_14h50.35.857,Surprise recog test,2023.1.3,59.819452917354916,
52,0,52,0,,,,,,,,,,,,,,,,,,,,,,,,,,,,,,,,,,1202.084371300065,1203.10939160001,1201.2337379000382,1201.2337379000382,1201.2337379000382,1201.2337379000382,,new_sceneOut_3.png,53,4.0,0.8518537000054494,,074,00,2025-05-23_14h50.35.857,Surprise recog test,2023.1.3,59.819452917354916,
53,0,53,0,,,,,,,,,,,,,,,,,,,,,,,,,,,,,,,,,,1203.688497300027,1204.7073085000739,1203.10939160001,1203.10939160001,1203.10939160001,1203.10939160001,,old_stationery_6.png,54,4.0,0.5774195999838412,,074,00,2025-05-23_14h50.35.857,Surprise recog test,2023.1.3,59.819452917354916,
54,0,54,0,,,,,,,,,,,,,,,,,,,,,,,,,,,,,,,,,,1205.7254374000477,1206.7334558999864,1204.7073085000739,1204.7073085000739,1204.7073085000739,1204.7073085000739,,new_stationery_44.png,55,4.0,1.0197418000316247,,074,00,2025-05-23_14h50.35.857,Surprise recog test,2023.1.3,59.819452917354916,
55,0,55,0,,,,,,,,,,,,,,,,,,,,,,,,,,,,,,,,,,1207.719140500063,1208.7443433000008,1206.7334558999864,1206.7334558999864,1206.7334558999864,1206.7334558999864,,old_stationery_17.png,56,4.0,0.9806792000308633,,074,00,2025-05-23_14h50.35.857,Surprise recog test,2023.1.3,59.819452917354916,
56,0,56,0,,,,,,,,,,,,,,,,,,,,,,,,,,,,,,,,,,1210.5359824000625,1211.565987400012,1208.7443433000008,1208.7443433000008,1208.7443433000008,1208.7443433000008,,old_fruit_23.png,57,2.0,1.793480799999088,,074,00,2025-05-23_14h50.35.857,Surprise recog test,2023.1.3,59.819452917354916,
57,0,57,0,,,,,,,,,,,,,,,,,,,,,,,,,,,,,,,,,,1212.785562200006,1213.8108727000654,1211.565987400012,1211.565987400012,1211.565987400012,1211.565987400012,,new_stationery_1.png,58,4.0,1.2223574999952689,,074,00,2025-05-23_14h50.35.857,Surprise recog test,2023.1.3,59.819452917354916,
58,0,58,0,,,,,,,,,,,,,,,,,,,,,,,,,,,,,,,,,,1214.6264467000728,1215.6476155000273,1213.8108727000654,1213.8108727000654,1213.8108727000654,1213.8108727000654,,old_sceneOut_32.png,59,4.0,0.8166296000126749,,074,00,2025-05-23_14h50.35.857,Surprise recog test,2023.1.3,59.819452917354916,
59,0,59,0,,,,,,,,,,,,,,,,,,,,,,,,,,,,,,,,,,1216.5421855000313,1217.5697719000746,1215.6476155000273,1215.6476155000273,1215.6476155000273,1215.6476155000273,,old_sceneIn_3.png,60,4.0,0.8966849000426009,,074,00,2025-05-23_14h50.35.857,Surprise recog test,2023.1.3,59.819452917354916,
60,0,60,0,,,,,,,,,,,,,,,,,,,,,,,,,,,,,,,,,,1218.187051200075,,1217.5697719000746,1217.5697719000746,1217.5697719000746,1217.5697719000746,,new_stationery_28.png,61,4.0,0.6195046999491751,,074,00,2025-05-23_14h50.35.857,Surprise recog test,2023.1.3,59.819452917354916,
61,0,61,0,,,,,,,,,,,,,,,,,,,,,,,,,,,,,,,,,,1220.0188936999766,1221.0273076000158,1219.224094800069,1219.224094800069,1219.224094800069,1219.224094800069,,new_stationery_34.png,62,4.0,0.7904652000870556,,074,00,2025-05-23_14h50.35.857,Surprise recog test,2023.1.3,59.819452917354916,
62,0,62,0,,,,,,,,,,,,,,,,,,,,,,,,,,,,,,,,,,1222.806105100084,1223.823325400008,1221.0273076000158,1221.0273076000158,1221.0273076000158,1221.0273076000158,,old_fruit_34.png,63,2.0,1.7743825999787077,,074,00,2025-05-23_14h50.35.857,Surprise recog test,2023.1.3,59.819452917354916,
63,0,63,0,,,,,,,,,,,,,,,,,,,,,,,,,,,,,,,,,,1226.3388330000453,1227.352073200047,1223.823325400008,1223.823325400008,1223.823325400008,1223.823325400008,,old_sceneOut_15.png,64,4.0,2.517693500034511,,074,00,2025-05-23_14h50.35.857,Surprise recog test,2023.1.3,59.819452917354916,
64,0,64,0,,,,,,,,,,,,,,,,,,,,,,,,,,,,,,,,,,1228.0174712999724,1229.0394251000835,1227.352073200047,1227.352073200047,1227.352073200047,1227.352073200047,,new_sceneOut_7.png,65,4.0,0.6654428999172524,,074,00,2025-05-23_14h50.35.857,Surprise recog test,2023.1.3,59.819452917354916,
65,0,65,0,,,,,,,,,,,,,,,,,,,,,,,,,,,,,,,,,,1230.919301200076,1231.9500580000458,1229.0394251000835,1229.0394251000835,1229.0394251000835,1229.0394251000835,,old_fruit_37.png,66,1.0,1.87830630003009,,074,00,2025-05-23_14h50.35.857,Surprise recog test,2023.1.3,59.819452917354916,
66,0,66,0,,,,,,,,,,,,,,,,,,,,,,,,,,,,,,,,,,1232.9710798000451,1233.9983782999916,1231.9500580000458,1231.9500580000458,1231.9500580000458,1231.9500580000458,,new_sceneIn_17.png,67,4.0,1.0209791000233963,,074,00,2025-05-23_14h50.35.857,Surprise recog test,2023.1.3,59.819452917354916,
67,0,67,0,,,,,,,,,,,,,,,,,,,,,,,,,,,,,,,,,,1234.849293300067,1235.8693633000366,1233.9983782999916,1233.9983782999916,1233.9983782999916,1233.9983782999916,,new_stationery_16.png,68,4.0,0.8511262000538409,,074,00,2025-05-23_14h50.35.857,Surprise recog test,2023.1.3,59.819452917354916,
68,0,68,0,,,,,,,,,,,,,,,,,,,,,,,,,,,,,,,,,,1236.7664471999742,1237.774846300017,1235.8693633000366,1235.8693633000366,1235.8693633000366,1235.8693633000366,,new_stationery_9.png,69,4.0,0.900381900020875,,074,00,2025-05-23_14h50.35.857,Surprise recog test,2023.1.3,59.819452917354916,
69,0,69,0,,,,,,,,,,,,,,,,,,,,,,,,,,,,,,,,,,1239.8933828000445,1240.9202610000502,1237.774846300017,1237.774846300017,1237.774846300017,1237.774846300017,,new_fruit_6.png,70,3.0,2.1134068000828847,,074,00,2025-05-23_14h50.35.857,Surprise recog test,2023.1.3,59.819452917354916,
70,0,70,0,,,,,,,,,,,,,,,,,,,,,,,,,,,,,,,,,,1241.8125052000396,1242.8415433000773,1240.9202610000502,1240.9202610000502,1240.9202610000502,1240.9202610000502,,old_sceneOut_29.png,71,4.0,0.8936293999431655,,074,00,2025-05-23_14h50.35.857,Surprise recog test,2023.1.3,59.819452917354916,
71,0,71,0,,,,,,,,,,,,,,,,,,,,,,,,,,,,,,,,,,1243.4625331000425,1244.4868597000604,1242.8415433000773,1242.8415433000773,1242.8415433000773,1242.8415433000773,,new_stationery_17.png,72,4.0,0.6221237001009285,,074,00,2025-05-23_14h50.35.857,Surprise recog test,2023.1.3,59.819452917354916,
72,0,72,0,,,,,,,,,,,,,,,,,,,,,,,,,,,,,,,,,,1246.6254354000557,1247.6410568000283,1244.4868597000604,1244.4868597000604,1244.4868597000604,1244.4868597000604,,new_fruit_10.png,73,4.0,2.140623399987817,,074,00,2025-05-23_14h50.35.857,Surprise recog test,2023.1.3,59.819452917354916,
73,0,73,0,,,,,,,,,,,,,,,,,,,,,,,,,,,,,,,,,,1248.435158599983,1249.455358600011,1247.6410568000283,1247.6410568000283,1247.6410568000283,1247.6410568000283,,old_sceneIn_32.png,74,4.0,0.7946706999791786,,074,00,2025-05-23_14h50.35.857,Surprise recog test,2023.1.3,59.819452917354916,
74,0,74,0,,,,,,,,,,,,,,,,,,,,,,,,,,,,,,,,,,1250.335491099977,1251.3675080999965,1249.455358600011,1249.455358600011,1249.455358600011,1249.455358600011,,new_sceneIn_29.png,75,4.0,0.877371700014919,,074,00,2025-05-23_14h50.35.857,Surprise recog test,2023.1.3,59.819452917354916,
75,0,75,0,,,,,,,,,,,,,,,,,,,,,,,,,,,,,,,,,,1254.0416878000833,1255.0680584000656,1251.3675080999965,1251.3675080999965,1251.3675080999965,1251.3675080999965,,old_sceneOut_43.png,76,4.0,2.6768411999801174,,074,00,2025-05-23_14h50.35.857,Surprise recog test,2023.1.3,59.819452917354916,
76,0,76,0,,,,,,,,,,,,,,,,,,,,,,,,,,,,,,,,,,1256.6359292999841,,1255.0680584000656,1255.0680584000656,1255.0680584000656,1255.0680584000656,,old_fruit_16.png,77,1.0,1.57219850004185,,074,00,2025-05-23_14h50.35.857,Surprise recog test,2023.1.3,59.819452917354916,
77,0,77,0,,,,,,,,,,,,,,,,,,,,,,,,,,,,,,,,,,1258.936304599978,1259.9408884000732,1257.6567818999756,1257.6567818999756,1257.6567818999756,1257.6567818999756,,old_fruit_33.png,78,1.0,1.2743005000520498,,074,00,2025-05-23_14h50.35.857,Surprise recog test,2023.1.3,59.819452917354916,
78,0,78,0,,,,,,,,,,,,,,,,,,,,,,,,,,,,,,,,,,1261.8239381000167,,1259.9408884000732,1259.9408884000732,1259.9408884000732,1259.9408884000732,,old_sceneOut_11.png,79,4.0,1.8809435999719426,,074,00,2025-05-23_14h50.35.857,Surprise recog test,2023.1.3,59.819452917354916,
79,0,79,0,,,,,,,,,,,,,,,,,,,,,,,,,,,,,,,,,,1264.0423979000188,,1262.8513355000177,1262.8513355000177,1262.8513355000177,1262.8513355000177,,new_stationery_18.png,80,4.0,1.1903907000087202,,074,00,2025-05-23_14h50.35.857,Surprise recog test,2023.1.3,59.819452917354916,
80,0,80,0,,,,,,,,,,,,,,,,,,,,,,,,,,,,,,,,,,1265.6715412000194,1266.690235499991,1265.073145900038,1265.073145900038,1265.073145900038,1265.073145900038,,new_sceneOut_24.png,81,4.0,0.5985546000301838,,074,00,2025-05-23_14h50.35.857,Surprise recog test,2023.1.3,59.819452917354916,
81,0,81,0,,,,,,,,,,,,,,,,,,,,,,,,,,,,,,,,,,1267.4249894000823,1268.449597000028,1266.690235499991,1266.690235499991,1266.690235499991,1266.690235499991,,new_sceneIn_36.png,82,4.0,0.7317560999654233,,074,00,2025-05-23_14h50.35.857,Surprise recog test,2023.1.3,59.819452917354916,
82,0,82,0,,,,,,,,,,,,,,,,,,,,,,,,,,,,,,,,,,1269.0882876000833,1270.112671900075,1268.449597000028,1268.449597000028,1268.449597000028,1268.449597000028,,new_sceneOut_31.png,83,4.0,0.6408716000150889,,074,00,2025-05-23_14h50.35.857,Surprise recog test,2023.1.3,59.819452917354916,
83,0,83,0,,,,,,,,,,,,,,,,,,,,,,,,,,,,,,,,,,1270.6985944000771,,1270.112671900075,1270.112671900075,1270.112671900075,1270.112671900075,,old_sceneIn_30.png,84,4.0,0.5876417000545189,,074,00,2025-05-23_14h50.35.857,Surprise recog test,2023.1.3,59.819452917354916,
84,0,84,0,,,,,,,,,,,,,,,,,,,,,,,,,,,,,,,,,,1272.783380900044,,1271.7305083000101,1271.7305083000101,1271.7305083000101,1271.7305083000101,,old_sceneOut_3.png,85,4.0,1.0540750999934971,,074,00,2025-05-23_14h50.35.857,Surprise recog test,2023.1.3,59.819452917354916,
85,0,85,0,,,,,,,,,,,,,,,,,,,,,,,,,,,,,,,,,,1276.6493706000037,1277.6547527000075,1273.811911100056,1273.811911100056,1273.811911100056,1273.811911100056,,new_fruit_41.png,86,2.0,2.83317740005441,,074,00,2025-05-23_14h50.35.857,Surprise recog test,2023.1.3,59.819452917354916,
86,0,86,0,,,,,,,,,,,,,,,,,,,,,,,,,,,,,,,,,,1278.96645539999,1279.985489099985,1277.6547527000075,1277.6547527000075,1277.6547527000075,1277.6547527000075,,new_sceneIn_50.png,87,4.0,1.3085297000361606,,074,00,2025-05-23_14h50.35.857,Surprise recog test,2023.1.3,59.819452917354916,
87,0,87,0,,,,,,,,,,,,,,,,,,,,,,,,,,,,,,,,,,1280.566287200083,1281.5852138000773,1279.985489099985,1279.985489099985,1279.985489099985,1279.985489099985,,new_sceneIn_46.png,88,4.0,0.5823051000479609,,074,00,2025-05-23_14h50.35.857,Surprise recog test,2023.1.3,59.819452917354916,
88,0,88,0,,,,,,,,,,,,,,,,,,,,,,,,,,,,,,,,,,1282.4076244999887,,1281.5852138000773,1281.5852138000773,1281.5852138000773,1281.5852138000773,,old_stationery_13.png,89,4.0,0.8211955999722704,,074,00,2025-05-23_14h50.35.857,Surprise recog test,2023.1.3,59.819452917354916,
89,0,89,0,,,,,,,,,,,,,,,,,,,,,,,,,,,,,,,,,,1285.2032829000382,1286.2183163000736,1283.4287363999756,1283.4287363999756,1283.4287363999756,1283.4287363999756,,new_fruit_3.png,90,4.0,1.7693983999779448,,074,00,2025-05-23_14h50.35.857,Surprise recog test,2023.1.3,59.819452917354916,
90,0,90,0,,,,,,,,,,,,,,,,,,,,,,,,,,,,,,,,,,1286.9475365000544,1287.9634826000547,1286.2183163000736,1286.2183163000736,1286.2183163000736,1286.2183163000736,,old_stationery_32.png,91,4.0,0.7295109999831766,,074,00,2025-05-23_14h50.35.857,Surprise recog test,2023.1.3,59.819452917354916,
91,0,91,0,,,,,,,,,,,,,,,,,,,,,,,,,,,,,,,,,,1288.7092850999907,1289.7154668000294,1287.9634826000547,1287.9634826000547,1287.9634826000547,1287.9634826000547,,old_sceneIn_2.png,92,4.0,0.7385396999306977,,074,00,2025-05-23_14h50.35.857,Surprise recog test,2023.1.3,59.819452917354916,
92,0,92,0,,,,,,,,,,,,,,,,,,,,,,,,,,,,,,,,,,1292.0454344999744,1293.0495942999842,1289.7154668000294,1289.7154668000294,1289.7154668000294,1289.7154668000294,,old_fruit_3.png,93,3.0,2.3225505999289453,,074,00,2025-05-23_14h50.35.857,Surprise recog test,2023.1.3,59.819452917354916,
93,0,93,0,,,,,,,,,,,,,,,,,,,,,,,,,,,,,,,,,,1294.6641798000783,1295.6720396999735,1293.0495942999842,1293.0495942999842,1293.0495942999842,1293.0495942999842,,new_fruit_19.png,94,4.0,1.6075193999568,,074,00,2025-05-23_14h50.35.857,Surprise recog test,2023.1.3,59.819452917354916,
94,0,94,0,,,,,,,,,,,,,,,,,,,,,,,,,,,,,,,,,,1296.3989238999784,1297.4034437000519,1295.6720396999735,1295.6720396999735,1295.6720396999735,1295.6720396999735,,old_sceneOut_12.png,95,4.0,0.7191534999292344,,074,00,2025-05-23_14h50.35.857,Surprise recog test,2023.1.3,59.819452917354916,
95,0,95,0,,,,,,,,,,,,,,,,,,,,,,,,,,,,,,,,,,1298.1336806999752,1299.1419430000242,1297.4034437000519,1297.4034437000519,1297.4034437000519,1297.4034437000519,,old_stationery_38.png,96,4.0,0.719818500103429,,074,00,2025-05-23_14h50.35.857,Surprise recog test,2023.1.3,59.819452917354916,
96,0,96,0,,,,,,,,,,,,,,,,,,,,,,,,,,,,,,,,,,1299.7874552999856,,1299.1419430000242,1299.1419430000242,1299.1419430000242,1299.1419430000242,,old_stationery_30.png,97,4.0,0.6427961000008509,,074,00,2025-05-23_14h50.35.857,Surprise recog test,2023.1.3,59.819452917354916,
97,0,97,0,,,,,,,,,,,,,,,,,,,,,,,,,,,,,,,,,,1301.4700089000398,1302.4770669999998,1300.8073013999965,1300.8073013999965,1300.8073013999965,1300.8073013999965,,old_stationery_4.png,98,4.0,0.6567346000811085,,074,00,2025-05-23_14h50.35.857,Surprise recog test,2023.1.3,59.819452917354916,
98,0,98,0,,,,,,,,,,,,,,,,,,,,,,,,,,,,,,,,,,1303.2415856000734,,1302.4770669999998,1302.4770669999998,1302.4770669999998,1302.4770669999998,,new_sceneIn_2.png,99,4.0,0.761604500003159,,074,00,2025-05-23_14h50.35.857,Surprise recog test,2023.1.3,59.819452917354916,
99,0,99,0,,,,,,,,,,,,,,,,,,,,,,,,,,,,,,,,,,1305.1486329999752,1306.1649638999952,1304.2583071000408,1304.2583071000408,1304.2583071000408,1304.2583071000408,,new_fruit_1.png,100,4.0,0.8811943000182509,,074,00,2025-05-23_14h50.35.857,Surprise recog test,2023.1.3,59.819452917354916,
100,0,100,0,,,,,,,,,,,,,,,,,,,,,,,,,,,,,,,,,,1306.7219356000423,1307.7331393000204,1306.1649638999952,1306.1649638999952,1306.1649638999952,1306.1649638999952,,new_sceneIn_35.png,101,4.0,0.5525710999500006,,074,00,2025-05-23_14h50.35.857,Surprise recog test,2023.1.3,59.819452917354916,
101,0,101,0,,,,,,,,,,,,,,,,,,,,,,,,,,,,,,,,,,1308.2921299000736,1309.3000975999748,1307.7331393000204,1307.7331393000204,1307.7331393000204,1307.7331393000204,,old_stationery_39.png,102,4.0,0.5515584000386298,,074,00,2025-05-23_14h50.35.857,Surprise recog test,2023.1.3,59.819452917354916,
102,0,102,0,,,,,,,,,,,,,,,,,,,,,,,,,,,,,,,,,,1309.826768900035,1310.8321759999963,1309.3000975999748,1309.3000975999748,1309.3000975999748,1309.3000975999748,,old_sceneIn_35.png,103,4.0,0.5185950000304729,,074,00,2025-05-23_14h50.35.857,Surprise recog test,2023.1.3,59.819452917354916,
103,0,103,0,,,,,,,,,,,,,,,,,,,,,,,,,,,,,,,,,,1311.661656600074,1312.6702538999962,1310.8321759999963,1310.8321759999963,1310.8321759999963,1310.8321759999963,,new_sceneOut_10.png,104,4.0,0.8210698000621051,,074,00,2025-05-23_14h50.35.857,Surprise recog test,2023.1.3,59.819452917354916,
104,0,104,0,,,,,,,,,,,,,,,,,,,,,,,,,,,,,,,,,,1313.3819365000818,,1312.6702538999962,1312.6702538999962,1312.6702538999962,1312.6702538999962,,new_sceneOut_23.png,105,4.0,0.70540970005095,,074,00,2025-05-23_14h50.35.857,Surprise recog test,2023.1.3,59.819452917354916,
105,0,105,0,,,,,,,,,,,,,,,,,,,,,,,,,,,,,,,,,,1315.0683870000066,,1314.4014433000702,1314.4014433000702,1314.4014433000702,1314.4014433000702,,new_stationery_36.png,106,4.0,0.6604792999569327,,074,00,2025-05-23_14h50.35.857,Surprise recog test,2023.1.3,59.819452917354916,
106,0,106,0,,,,,,,,,,,,,,,,,,,,,,,,,,,,,,,,,,1316.6991140000755,1317.7078847000375,1316.090890099993,1316.090890099993,1316.090890099993,1316.090890099993,,old_sceneOut_6.png,107,4.0,0.6070362000027671,,074,00,2025-05-23_14h50.35.857,Surprise recog test,2023.1.3,59.819452917354916,
107,0,107,0,,,,,,,,,,,,,,,,,,,,,,,,,,,,,,,,,,1318.3505650999723,1319.3576587000862,1317.7078847000375,1317.7078847000375,1317.7078847000375,1317.7078847000375,,old_stationery_44.png,108,4.0,0.6363904000027105,,074,00,2025-05-23_14h50.35.857,Surprise recog test,2023.1.3,59.819452917354916,
108,0,108,0,,,,,,,,,,,,,,,,,,,,,,,,,,,,,,,,,,1319.9685730000492,1320.9760962000582,1319.3576587000862,1319.3576587000862,1319.3576587000862,1319.3576587000862,,new_stationery_20.png,109,4.0,0.6043605000013486,,074,00,2025-05-23_14h50.35.857,Surprise recog test,2023.1.3,59.819452917354916,
109,0,109,0,,,,,,,,,,,,,,,,,,,,,,,,,,,,,,,,,,1321.7514107000316,1322.7600455000065,1320.9760962000582,1320.9760962000582,1320.9760962000582,1320.9760962000582,,old_sceneOut_7.png,110,4.0,0.7717104000039399,,074,00,2025-05-23_14h50.35.857,Surprise recog test,2023.1.3,59.819452917354916,
110,0,110,0,,,,,,,,,,,,,,,,,,,,,,,,,,,,,,,,,,1326.1604327000678,,1322.7600455000065,1322.7600455000065,1322.7600455000065,1322.7600455000065,,new_fruit_39.png,111,3.0,3.3929755999706686,,074,00,2025-05-23_14h50.35.857,Surprise recog test,2023.1.3,59.819452917354916,
111,0,111,0,,,,,,,,,,,,,,,,,,,,,,,,,,,,,,,,,,1328.3059688999783,1329.3186767000007,1327.181213199976,1327.181213199976,1327.181213199976,1327.181213199976,,old_sceneIn_13.png,112,4.0,1.120225900085643,,074,00,2025-05-23_14h50.35.857,Surprise recog test,2023.1.3,59.819452917354916,
112,0,112,0,,,,,,,,,,,,,,,,,,,,,,,,,,,,,,,,,,1330.2505852000322,1331.2693976000883,1329.3186767000007,1329.3186767000007,1329.3186767000007,1329.3186767000007,,new_sceneIn_13.png,113,4.0,0.9302110000280663,,074,00,2025-05-23_14h50.35.857,Surprise recog test,2023.1.3,59.819452917354916,
113,0,113,0,,,,,,,,,,,,,,,,,,,,,,,,,,,,,,,,,,1332.805054700002,1333.8209599000402,1331.2693976000883,1331.2693976000883,1331.2693976000883,1331.2693976000883,,old_fruit_45.png,114,1.0,1.528194399899803,,074,00,2025-05-23_14h50.35.857,Surprise recog test,2023.1.3,59.819452917354916,
114,0,114,0,,,,,,,,,,,,,,,,,,,,,,,,,,,,,,,,,,1335.0310850000242,1336.0366781000048,1333.8209599000402,1333.8209599000402,1333.8209599000402,1333.8209599000402,,new_stationery_26.png,115,4.0,1.207260899944231,,074,00,2025-05-23_14h50.35.857,Surprise recog test,2023.1.3,59.819452917354916,
115,0,115,0,,,,,,,,,,,,,,,,,,,,,,,,,,,,,,,,,,1336.760718000005,1337.79340580001,1336.0366781000048,1336.0366781000048,1336.0366781000048,1336.0366781000048,,new_stationery_32.png,116,4.0,0.718111400026828,,074,00,2025-05-23_14h50.35.857,Surprise recog test,2023.1.3,59.819452917354916,
116,0,116,0,,,,,,,,,,,,,,,,,,,,,,,,,,,,,,,,,,1339.4598493999802,1340.4759554000339,1337.79340580001,1337.79340580001,1337.79340580001,1337.79340580001,,old_sceneOut_28.png,117,4.0,1.6680207999888808,,074,00,2025-05-23_14h50.35.857,Surprise recog test,2023.1.3,59.819452917354916,
117,0,117,0,,,,,,,,,,,,,,,,,,,,,,,,,,,,,,,,,,1341.1665997999953,1342.1791197999846,1340.4759554000339,1340.4759554000339,1340.4759554000339,1340.4759554000339,,new_stationery_19.png,118,4.0,0.6898224999895319,,074,00,2025-05-23_14h50.35.857,Surprise recog test,2023.1.3,59.819452917354916,
118,0,118,0,,,,,,,,,,,,,,,,,,,,,,,,,,,,,,,,,,1342.8206455999753,1343.8352066000225,1342.1791197999846,1342.1791197999846,1342.1791197999846,1342.1791197999846,,new_sceneOut_48.png,119,4.0,0.6412136000581086,,074,00,2025-05-23_14h50.35.857,Surprise recog test,2023.1.3,59.819452917354916,
119,0,119,0,,,,,,,,,,,,,,,,,,,,,,,,,,,,,,,,,,1344.8912932000821,,1343.8352066000225,1343.8352066000225,1343.8352066000225,1343.8352066000225,,new_stationery_29.png,120,4.0,1.0558514998992905,,074,00,2025-05-23_14h50.35.857,Surprise recog test,2023.1.3,59.819452917354916,
120,0,120,0,,,,,,,,,,,,,,,,,,,,,,,,,,,,,,,,,,1348.8182518000249,1349.8307218999835,1345.9109722999856,1345.9109722999856,1345.9109722999856,1345.9109722999856,,new_fruit_44.png,121,3.0,2.903119400027208,,074,00,2025-05-23_14h50.35.857,Surprise recog test,2023.1.3,59.819452917354916,
121,0,121,0,,,,,,,,,,,,,,,,,,,,,,,,,,,,,,,,,,1350.7674647000385,1351.7820379000623,1349.8307218999835,1349.8307218999835,1349.8307218999835,1349.8307218999835,,new_sceneIn_23.png,122,4.0,0.9317352999933064,,074,00,2025-05-23_14h50.35.857,Surprise recog test,2023.1.3,59.819452917354916,
122,0,122,0,,,,,,,,,,,,,,,,,,,,,,,,,,,,,,,,,,1352.5435611000285,1353.55307740008,1351.7820379000623,1351.7820379000623,1351.7820379000623,1351.7820379000623,,new_sceneOut_16.png,123,4.0,0.7550318000139669,,074,00,2025-05-23_14h50.35.857,Surprise recog test,2023.1.3,59.819452917354916,
123,0,123,0,,,,,,,,,,,,,,,,,,,,,,,,,,,,,,,,,,1354.0750785000855,1355.0880935000023,1353.55307740008,1353.55307740008,1353.55307740008,1353.55307740008,,new_sceneOut_42.png,124,4.0,0.5191415000008419,,074,00,2025-05-23_14h50.35.857,Surprise recog test,2023.1.3,59.819452917354916,
124,0,124,0,,,,,,,,,,,,,,,,,,,,,,,,,,,,,,,,,,1356.5478644000832,1357.5562767999945,1355.0880935000023,1355.0880935000023,1355.0880935000023,1355.0880935000023,,new_stationery_46.png,125,4.0,1.4533202999737114,,074,00,2025-05-23_14h50.35.857,Surprise recog test,2023.1.3,59.819452917354916,
125,0,125,0,,,,,,,,,,,,,,,,,,,,,,,,,,,,,,,,,,1359.271560800029,,1357.5562767999945,1357.5562767999945,1357.5562767999945,1357.5562767999945,,new_fruit_43.png,126,4.0,1.7124127000570297,,074,00,2025-05-23_14h50.35.857,Surprise recog test,2023.1.3,59.819452917354916,
126,0,126,0,,,,,,,,,,,,,,,,,,,,,,,,,,,,,,,,,,1361.0758050000295,1362.1013931999914,1360.2959917000262,1360.2959917000262,1360.2959917000262,1360.2959917000262,,old_sceneOut_44.png,127,4.0,0.7764897999586537,,074,00,2025-05-23_14h50.35.857,Surprise recog test,2023.1.3,59.819452917354916,
127,0,127,0,,,,,,,,,,,,,,,,,,,,,,,,,,,,,,,,,,1364.305457700044,1365.3100361999823,1362.1013931999914,1362.1013931999914,1362.1013931999914,1362.1013931999914,,new_fruit_46.png,128,3.0,2.198961599962786,,074,00,2025-05-23_14h50.35.857,Surprise recog test,2023.1.3,59.819452917354916,
128,0,128,0,,,,,,,,,,,,,,,,,,,,,,,,,,,,,,,,,,1366.1571507999906,1367.1779025000287,1365.3100361999823,1365.3100361999823,1365.3100361999823,1365.3100361999823,,new_sceneOut_38.png,129,4.0,0.8369793000165373,,074,00,2025-05-23_14h50.35.857,Surprise recog test,2023.1.3,59.819452917354916,
129,0,129,0,,,,,,,,,,,,,,,,,,,,,,,,,,,,,,,,,,1367.8251166000264,1368.8297199000372,1367.1779025000287,1367.1779025000287,1367.1779025000287,1367.1779025000287,,old_sceneOut_25.png,130,4.0,0.6455762000987306,,074,00,2025-05-23_14h50.35.857,Surprise recog test,2023.1.3,59.819452917354916,
130,0,130,0,,,,,,,,,,,,,,,,,,,,,,,,,,,,,,,,,,1369.401715700049,1370.4341122000478,1368.8297199000372,1368.8297199000372,1368.8297199000372,1368.8297199000372,,old_sceneOut_45.png,131,4.0,0.5680935999844223,,074,00,2025-05-23_14h50.35.857,Surprise recog test,2023.1.3,59.819452917354916,
131,0,131,0,,,,,,,,,,,,,,,,,,,,,,,,,,,,,,,,,,1371.0301637999946,,1370.4341122000478,1370.4341122000478,1370.4341122000478,1370.4341122000478,,old_stationery_28.png,132,4.0,0.5994986000005156,,074,00,2025-05-23_14h50.35.857,Surprise recog test,2023.1.3,59.819452917354916,
132,0,132,0,,,,,,,,,,,,,,,,,,,,,,,,,,,,,,,,,,1374.1500494000502,,1372.0649789000163,1372.0649789000163,1372.0649789000163,1372.0649789000163,,old_fruit_26.png,133,3.0,2.088634500047192,,074,00,2025-05-23_14h50.35.857,Surprise recog test,2023.1.3,59.819452917354916,
133,0,133,0,,,,,,,,,,,,,,,,,,,,,,,,,,,,,,,,,,1376.1757563999854,1377.1886609999929,1375.1690621000016,1375.1690621000016,1375.1690621000016,1375.1690621000016,,new_stationery_8.png,134,4.0,1.002606000052765,,074,00,2025-05-23_14h50.35.857,Surprise recog test,2023.1.3,59.819452917354916,
134,0,134,0,,,,,,,,,,,,,,,,,,,,,,,,,,,,,,,,,,1377.7333274000557,1378.751779000042,1377.1886609999929,1377.1886609999929,1377.1886609999929,1377.1886609999929,,new_sceneIn_30.png,135,4.0,0.5355679000495002,,074,00,2025-05-23_14h50.35.857,Surprise recog test,2023.1.3,59.819452917354916,
135,0,135,0,,,,,,,,,,,,,,,,,,,,,,,,,,,,,,,,,,1379.2912907000864,1380.3099004999967,1378.751779000042,1378.751779000042,1378.751779000042,1378.751779000042,,old_sceneOut_40.png,136,4.0,0.5402336000697687,,074,00,2025-05-23_14h50.35.857,Surprise recog test,2023.1.3,59.819452917354916,
136,0,136,0,,,,,,,,,,,,,,,,,,,,,,,,,,,,,,,,,,1382.1061752000824,,1380.3099004999967,1380.3099004999967,1380.3099004999967,1380.3099004999967,,old_fruit_47.png,137,4.0,1.7908911000704393,,074,00,2025-05-23_14h50.35.857,Surprise recog test,2023.1.3,59.819452917354916,
137,0,137,0,,,,,,,,,,,,,,,,,,,,,,,,,,,,,,,,,,1383.7468374000164,1384.768730300013,1383.134336200077,1383.134336200077,1383.134336200077,1383.134336200077,,old_sceneIn_31.png,138,4.0,0.6088736000237986,,074,00,2025-05-23_14h50.35.857,Surprise recog test,2023.1.3,59.819452917354916,
138,0,138,0,,,,,,,,,,,,,,,,,,,,,,,,,,,,,,,,,,1386.904781899997,1387.9267561000306,1384.768730300013,1384.768730300013,1384.768730300013,1384.768730300013,,old_fruit_41.png,139,2.0,2.1351802999852225,,074,00,2025-05-23_14h50.35.857,Surprise recog test,2023.1.3,59.819452917354916,
139,0,139,0,,,,,,,,,,,,,,,,,,,,,,,,,,,,,,,,,,1389.2928985999897,1390.3082099000458,1387.9267561000306,1387.9267561000306,1387.9267561000306,1387.9267561000306,,new_sceneIn_3.png,140,4.0,1.3611639000009745,,074,00,2025-05-23_14h50.35.857,Surprise recog test,2023.1.3,59.819452917354916,
140,0,140,0,,,,,,,,,,,,,,,,,,,,,,,,,,,,,,,,,,1390.8726673000492,1391.8918794000056,1390.3082099000458,1390.3082099000458,1390.3082099000458,1390.3082099000458,,old_sceneIn_49.png,141,4.0,0.5660258000716567,,074,00,2025-05-23_14h50.35.857,Surprise recog test,2023.1.3,59.819452917354916,
141,0,141,0,,,,,,,,,,,,,,,,,,,,,,,,,,,,,,,,,,1392.6412259000354,1393.6555378000485,1391.8918794000056,1391.8918794000056,1391.8918794000056,1391.8918794000056,,new_sceneIn_24.png,142,4.0,0.7499612999381498,,074,00,2025-05-23_14h50.35.857,Surprise recog test,2023.1.3,59.819452917354916,
142,0,142,0,,,,,,,,,,,,,,,,,,,,,,,,,,,,,,,,,,1397.033671900048,1398.0514093000675,1393.6555378000485,1393.6555378000485,1393.6555378000485,1393.6555378000485,,new_fruit_29.png,143,4.0,3.377374100033194,,074,00,2025-05-23_14h50.35.857,Surprise recog test,2023.1.3,59.819452917354916,
143,0,143,0,,,,,,,,,,,,,,,,,,,,,,,,,,,,,,,,,,1398.8224197999807,1399.8412697999738,1398.0514093000675,1398.0514093000675,1398.0514093000675,1398.0514093000675,,new_stationery_2.png,144,4.0,0.773475099937059,,074,00,2025-05-23_14h50.35.857,Surprise recog test,2023.1.3,59.819452917354916,
144,0,144,0,,,,,,,,,,,,,,,,,,,,,,,,,,,,,,,,,,1400.766008000006,1401.7830360999797,1399.8412697999738,1399.8412697999738,1399.8412697999738,1399.8412697999738,,new_sceneIn_7.png,145,4.0,0.9193358999909833,,074,00,2025-05-23_14h50.35.857,Surprise recog test,2023.1.3,59.819452917354916,
145,0,145,0,,,,,,,,,,,,,,,,,,,,,,,,,,,,,,,,,,1402.2506012000376,1403.2741906000301,1401.7830360999797,1401.7830360999797,1401.7830360999797,1401.7830360999797,,new_sceneIn_26.png,146,4.0,0.4658927000127733,,074,00,2025-05-23_14h50.35.857,Surprise recog test,2023.1.3,59.819452917354916,
146,0,146,0,,,,,,,,,,,,,,,,,,,,,,,,,,,,,,,,,,1403.8506751999957,1404.8725513999816,1403.2741906000301,1403.2741906000301,1403.2741906000301,1403.2741906000301,,new_sceneOut_17.png,147,4.0,0.5755890998989344,,074,00,2025-05-23_14h50.35.857,Surprise recog test,2023.1.3,59.819452917354916,
147,0,147,0,,,,,,,,,,,,,,,,,,,,,,,,,,,,,,,,,,1405.5033410000615,1406.5149291000562,1404.8725513999816,1404.8725513999816,1404.8725513999816,1404.8725513999816,,new_stationery_4.png,148,4.0,0.6328526999568567,,074,00,2025-05-23_14h50.35.857,Surprise recog test,2023.1.3,59.819452917354916,
148,0,148,0,,,,,,,,,,,,,,,,,,,,,,,,,,,,,,,,,,1406.949570500059,1407.9773261999944,1406.5149291000562,1406.5149291000562,1406.5149291000562,1406.5149291000562,,new_stationery_42.png,149,4.0,0.43055819999426603,,074,00,2025-05-23_14h50.35.857,Surprise recog test,2023.1.3,59.819452917354916,
149,0,149,0,,,,,,,,,,,,,,,,,,,,,,,,,,,,,,,,,,1409.4676076000324,1410.4974934000056,1407.9773261999944,1407.9773261999944,1407.9773261999944,1407.9773261999944,,old_fruit_10.png,150,1.0,1.49275790003594,,074,00,2025-05-23_14h50.35.857,Surprise recog test,2023.1.3,59.819452917354916,
150,0,150,0,,,,,,,,,,,,,,,,,,,,,,,,,,,,,,,,,,1411.402402000036,1412.4190772000002,1410.4974934000056,1410.4974934000056,1410.4974934000056,1410.4974934000056,,new_sceneIn_45.png,151,4.0,0.9072537999600172,,074,00,2025-05-23_14h50.35.857,Surprise recog test,2023.1.3,59.819452917354916,
151,0,151,0,,,,,,,,,,,,,,,,,,,,,,,,,,,,,,,,,,1413.0577380000614,1414.0855863000033,1412.4190772000002,1412.4190772000002,1412.4190772000002,1412.4190772000002,,old_sceneIn_7.png,152,4.0,0.633091599913314,,074,00,2025-05-23_14h50.35.857,Surprise recog test,2023.1.3,59.819452917354916,
152,0,152,0,,,,,,,,,,,,,,,,,,,,,,,,,,,,,,,,,,1414.7134551000781,1415.7224038999993,1414.0855863000033,1414.0855863000033,1414.0855863000033,1414.0855863000033,,new_sceneOut_19.png,153,4.0,0.628713299985975,,074,00,2025-05-23_14h50.35.857,Surprise recog test,2023.1.3,59.819452917354916,
153,0,153,0,,,,,,,,,,,,,,,,,,,,,,,,,,,,,,,,,,1416.282395599992,1417.3012462999905,1415.7224038999993,1415.7224038999993,1415.7224038999993,1415.7224038999993,,old_sceneOut_23.png,154,4.0,0.5567282000556588,,074,00,2025-05-23_14h50.35.857,Surprise recog test,2023.1.3,59.819452917354916,
154,0,154,0,,,,,,,,,,,,,,,,,,,,,,,,,,,,,,,,,,1417.8408310000086,1418.8573646000586,1417.3012462999905,1417.3012462999905,1417.3012462999905,1417.3012462999905,,old_sceneIn_24.png,155,4.0,0.5413126000203192,,074,00,2025-05-23_14h50.35.857,Surprise recog test,2023.1.3,59.819452917354916,
155,0,155,0,,,,,,,,,,,,,,,,,,,,,,,,,,,,,,,,,,1420.6912969000405,1421.7171328000259,1418.8573646000586,1418.8573646000586,1418.8573646000586,1418.8573646000586,,old_sceneIn_15.png,156,4.0,1.8298061999958009,,074,00,2025-05-23_14h50.35.857,Surprise recog test,2023.1.3,59.819452917354916,
156,0,156,0,,,,,,,,,,,,,,,,,,,,,,,,,,,,,,,,,,1424.8700028000167,1425.880857800017,1421.7171328000259,1421.7171328000259,1421.7171328000259,1421.7171328000259,,new_stationery_35.png,157,4.0,3.1540202000178397,,074,00,2025-05-23_14h50.35.857,Surprise recog test,2023.1.3,59.819452917354916,
157,0,157,0,,,,,,,,,,,,,,,,,,,,,,,,,,,,,,,,,,1428.2161006000824,1429.2486466000555,1425.880857800017,1425.880857800017,1425.880857800017,1425.880857800017,,new_fruit_30.png,158,3.0,2.3307143000420183,,074,00,2025-05-23_14h50.35.857,Surprise recog test,2023.1.3,59.819452917354916,
158,0,158,0,,,,,,,,,,,,,,,,,,,,,,,,,,,,,,,,,,1430.589342600084,1431.613613100024,1429.2486466000555,1429.2486466000555,1429.2486466000555,1429.2486466000555,,old_stationery_43.png,159,4.0,1.344739899970591,,074,00,2025-05-23_14h50.35.857,Surprise recog test,2023.1.3,59.819452917354916,
159,0,159,0,,,,,,,,,,,,,,,,,,,,,,,,,,,,,,,,,,1434.26326050004,1435.28038250003,1431.613613100024,1431.613613100024,1431.613613100024,1431.613613100024,,old_stationery_23.png,160,4.0,2.6488092000363395,,074,00,2025-05-23_14h50.35.857,Surprise recog test,2023.1.3,59.819452917354916,
160,0,160,0,,,,,,,,,,,,,,,,,,,,,,,,,,,,,,,,,,1437.1932835000334,1438.2169627000112,1435.28038250003,1435.28038250003,1435.28038250003,1435.28038250003,,new_sceneIn_39.png,161,4.0,1.914452400058508,,074,00,2025-05-23_14h50.35.857,Surprise recog test,2023.1.3,59.819452917354916,
161,0,161,0,,,,,,,,,,,,,,,,,,,,,,,,,,,,,,,,,,1439.9189022000646,1440.935729400022,1438.2169627000112,1438.2169627000112,1438.2169627000112,1438.2169627000112,,new_sceneIn_10.png,162,5.0,1.703702099970542,,074,00,2025-05-23_14h50.35.857,Surprise recog test,2023.1.3,59.819452917354916,
162,0,162,0,,,,,,,,,,,,,,,,,,,,,,,,,,,,,,,,,,1442.6748262000037,,1440.935729400022,1440.935729400022,1440.935729400022,1440.935729400022,,old_sceneIn_4.png,163,4.0,1.7381778999697417,,074,00,2025-05-23_14h50.35.857,Surprise recog test,2023.1.3,59.819452917354916,
163,0,163,0,,,,,,,,,,,,,,,,,,,,,,,,,,,,,,,,,,1445.1837086000014,1446.212735200068,1443.699404800078,1443.699404800078,1443.699404800078,1443.699404800078,,old_stationery_34.png,164,4.0,1.485026799957268,,074,00,2025-05-23_14h50.35.857,Surprise recog test,2023.1.3,59.819452917354916,
164,0,164,0,,,,,,,,,,,,,,,,,,,,,,,,,,,,,,,,,,1449.3669724999927,1450.396620000014,1446.212735200068,1446.212735200068,1446.212735200068,1446.212735200068,,new_stationery_10.png,165,3.0,3.1554793999530375,,074,00,2025-05-23_14h50.35.857,Surprise recog test,2023.1.3,59.819452917354916,
165,0,165,0,,,,,,,,,,,,,,,,,,,,,,,,,,,,,,,,,,1453.050885500037,1454.0711671999888,1450.396620000014,1450.396620000014,1450.396620000014,1450.396620000014,,old_stationery_14.png,166,4.0,2.656363399932161,,074,00,2025-05-23_14h50.35.857,Surprise recog test,2023.1.3,59.819452917354916,
166,0,166,0,,,,,,,,,,,,,,,,,,,,,,,,,,,,,,,,,,1455.8122872000095,1456.8295530000469,1454.0711671999888,1454.0711671999888,1454.0711671999888,1454.0711671999888,,old_stationery_9.png,167,4.0,1.7372423000633717,,074,00,2025-05-23_14h50.35.857,Surprise recog test,2023.1.3,59.819452917354916,
167,0,167,0,,,,,,,,,,,,,,,,,,,,,,,,,,,,,,,,,,1458.7069767999928,1459.7252682000399,1456.8295530000469,1456.8295530000469,1456.8295530000469,1456.8295530000469,,old_stationery_25.png,168,3.0,1.8789581999881193,,074,00,2025-05-23_14h50.35.857,Surprise recog test,2023.1.3,59.819452917354916,
168,0,168,0,,,,,,,,,,,,,,,,,,,,,,,,,,,,,,,,,,1460.714695499977,1461.7260701999767,1459.7252682000399,1459.7252682000399,1459.7252682000399,1459.7252682000399,,new_sceneOut_32.png,169,4.0,0.9873951999470592,,074,00,2025-05-23_14h50.35.857,Surprise recog test,2023.1.3,59.819452917354916,
169,0,169,0,,,,,,,,,,,,,,,,,,,,,,,,,,,,,,,,,,1462.529388600029,1463.5553919000085,1461.7260701999767,1461.7260701999767,1461.7260701999767,1461.7260701999767,,new_stationery_37.png,170,4.0,0.7990978000452742,,074,00,2025-05-23_14h50.35.857,Surprise recog test,2023.1.3,59.819452917354916,
170,0,170,0,,,,,,,,,,,,,,,,,,,,,,,,,,,,,,,,,,1466.3612131000264,,1463.5553919000085,1463.5553919000085,1463.5553919000085,1463.5553919000085,,old_stationery_35.png,171,1.0,2.807334099896252,,074,00,2025-05-23_14h50.35.857,Surprise recog test,2023.1.3,59.819452917354916,
171,0,171,0,,,,,,,,,,,,,,,,,,,,,,,,,,,,,,,,,,1468.6922768000513,1469.7141277000774,1467.3916641999967,1467.3916641999967,1467.3916641999967,1467.3916641999967,,old_fruit_32.png,172,1.0,1.3018812000518665,,074,00,2025-05-23_14h50.35.857,Surprise recog test,2023.1.3,59.819452917354916,
172,0,172,0,,,,,,,,,,,,,,,,,,,,,,,,,,,,,,,,,,1471.0382199999876,1472.0524272000184,1469.7141277000774,1469.7141277000774,1469.7141277000774,1469.7141277000774,,new_sceneOut_1.png,173,4.0,1.3254776999820024,,074,00,2025-05-23_14h50.35.857,Surprise recog test,2023.1.3,59.819452917354916,
173,0,173,0,,,,,,,,,,,,,,,,,,,,,,,,,,,,,,,,,,1473.0013186000288,1474.0282706000144,1472.0524272000184,1472.0524272000184,1472.0524272000184,1472.0524272000184,,old_stationery_24.png,174,4.0,0.9466405999846756,,074,00,2025-05-23_14h50.35.857,Surprise recog test,2023.1.3,59.819452917354916,
174,0,174,0,,,,,,,,,,,,,,,,,,,,,,,,,,,,,,,,,,1475.729366500047,1476.7460478000576,1474.0282706000144,1474.0282706000144,1474.0282706000144,1474.0282706000144,,old_fruit_49.png,175,1.0,1.7017840000335127,,074,00,2025-05-23_14h50.35.857,Surprise recog test,2023.1.3,59.819452917354916,
175,0,175,0,,,,,,,,,,,,,,,,,,,,,,,,,,,,,,,,,,1478.0425821000244,1479.0576531999977,1476.7460478000576,1476.7460478000576,1476.7460478000576,1476.7460478000576,,old_fruit_11.png,176,2.0,1.29454089992214,,074,00,2025-05-23_14h50.35.857,Surprise recog test,2023.1.3,59.819452917354916,
176,0,176,0,,,,,,,,,,,,,,,,,,,,,,,,,,,,,,,,,,1480.8938494999893,1481.9259974000743,1479.0576531999977,1479.0576531999977,1479.0576531999977,1479.0576531999977,,new_fruit_33.png,177,2.0,1.8327245999826118,,074,00,2025-05-23_14h50.35.857,Surprise recog test,2023.1.3,59.819452917354916,
177,0,177,0,,,,,,,,,,,,,,,,,,,,,,,,,,,,,,,,,,1483.558298900025,,1481.9259974000743,1481.9259974000743,1481.9259974000743,1481.9259974000743,,new_sceneIn_37.png,178,4.0,1.6341877001104876,,074,00,2025-05-23_14h50.35.857,Surprise recog test,2023.1.3,59.819452917354916,
178,0,178,0,,,,,,,,,,,,,,,,,,,,,,,,,,,,,,,,,,1485.1681992000667,1486.187910299981,1484.5880520000355,1484.5880520000355,1484.5880520000355,1484.5880520000355,,new_sceneOut_40.png,179,4.0,0.5792699999874458,,074,00,2025-05-23_14h50.35.857,Surprise recog test,2023.1.3,59.819452917354916,
179,0,179,0,,,,,,,,,,,,,,,,,,,,,,,,,,,,,,,,,,1488.622895800043,1489.6435238000704,1486.187910299981,1486.187910299981,1486.187910299981,1486.187910299981,,new_sceneIn_28.png,180,3.0,2.4362458999967203,,074,00,2025-05-23_14h50.35.857,Surprise recog test,2023.1.3,59.819452917354916,
180,0,180,0,,,,,,,,,,,,,,,,,,,,,,,,,,,,,,,,,,1491.614344200003,,1489.6435238000704,1489.6435238000704,1489.6435238000704,1489.6435238000704,,old_sceneIn_45.png,181,2.0,1.9722842999035493,,074,00,2025-05-23_14h50.35.857,Surprise recog test,2023.1.3,59.819452917354916,
181,0,181,0,,,,,,,,,,,,,,,,,,,,,,,,,,,,,,,,,,1495.1476082999725,1496.163850300014,1492.646633299999,1492.646633299999,1492.646633299999,1492.646633299999,,old_fruit_25.png,182,2.0,2.4980629000347108,,074,00,2025-05-23_14h50.35.857,Surprise recog test,2023.1.3,59.819452917354916,
182,0,182,0,,,,,,,,,,,,,,,,,,,,,,,,,,,,,,,,,,1497.6620979000581,1498.6796434000134,1496.163850300014,1496.163850300014,1496.163850300014,1496.163850300014,,new_stationery_12.png,183,4.0,1.499961599940434,,074,00,2025-05-23_14h50.35.857,Surprise recog test,2023.1.3,59.819452917354916,
183,0,183,0,,,,,,,,,,,,,,,,,,,,,,,,,,,,,,,,,,1500.0908606000012,1501.1193349000532,1498.6796434000134,1498.6796434000134,1498.6796434000134,1498.6796434000134,,old_fruit_46.png,184,1.0,1.4056385000003502,,074,00,2025-05-23_14h50.35.857,Surprise recog test,2023.1.3,59.819452917354916,
184,0,184,0,,,,,,,,,,,,,,,,,,,,,,,,,,,,,,,,,,1503.5720603000373,1504.5825613000197,1501.1193349000532,1501.1193349000532,1501.1193349000532,1501.1193349000532,,new_fruit_22.png,185,4.0,2.454171299934387,,074,00,2025-05-23_14h50.35.857,Surprise recog test,2023.1.3,59.819452917354916,
185,0,185,0,,,,,,,,,,,,,,,,,,,,,,,,,,,,,,,,,,1505.7934601000743,,1504.5825613000197,1504.5825613000197,1504.5825613000197,1504.5825613000197,,old_fruit_4.png,186,4.0,1.2095392000628635,,074,00,2025-05-23_14h50.35.857,Surprise recog test,2023.1.3,59.819452917354916,
186,0,186,0,,,,,,,,,,,,,,,,,,,,,,,,,,,,,,,,,,1508.4405642000493,1509.4622479000827,1506.8267660000129,1506.8267660000129,1506.8267660000129,1506.8267660000129,,old_sceneIn_16.png,187,4.0,1.6143558999756351,,074,00,2025-05-23_14h50.35.857,Surprise recog test,2023.1.3,59.819452917354916,
187,0,187,0,,,,,,,,,,,,,,,,,,,,,,,,,,,,,,,,,,1510.0983559000306,1511.122911100043,1509.4622479000827,1509.4622479000827,1509.4622479000827,1509.4622479000827,,new_sceneOut_49.png,188,4.0,0.6377735999412835,,074,00,2025-05-23_14h50.35.857,Surprise recog test,2023.1.3,59.819452917354916,
188,0,188,0,,,,,,,,,,,,,,,,,,,,,,,,,,,,,,,,,,1511.9500991000095,1512.9764477000572,1511.122911100043,1511.122911100043,1511.122911100043,1511.122911100043,,old_stationery_40.png,189,4.0,0.8282359999138862,,074,00,2025-05-23_14h50.35.857,Surprise recog test,2023.1.3,59.819452917354916,
189,0,189,0,,,,,,,,,,,,,,,,,,,,,,,,,,,,,,,,,,1513.6796417000005,1514.6984150999924,1512.9764477000572,1512.9764477000572,1512.9764477000572,1512.9764477000572,,old_sceneIn_42.png,190,4.0,0.7041980000212789,,074,00,2025-05-23_14h50.35.857,Surprise recog test,2023.1.3,59.819452917354916,
190,0,190,0,,,,,,,,,,,,,,,,,,,,,,,,,,,,,,,,,,1515.3207056000829,1516.3401882000035,1514.6984150999924,1514.6984150999924,1514.6984150999924,1514.6984150999924,,new_stationery_27.png,191,4.0,0.6225982999894768,,074,00,2025-05-23_14h50.35.857,Surprise recog test,2023.1.3,59.819452917354916,
191,0,191,0,,,,,,,,,,,,,,,,,,,,,,,,,,,,,,,,,,1517.554087500088,,1516.3401882000035,1516.3401882000035,1516.3401882000035,1516.3401882000035,,new_sceneIn_11.png,192,4.0,1.2093170000007376,,074,00,2025-05-23_14h50.35.857,Surprise recog test,2023.1.3,59.819452917354916,
192,0,192,0,,,,,,,,,,,,,,,,,,,,,,,,,,,,,,,,,,1519.3363846000284,1520.3550547000486,1518.5897873999784,1518.5897873999784,1518.5897873999784,1518.5897873999784,,old_stationery_46.png,193,4.0,0.7500548999523744,,074,00,2025-05-23_14h50.35.857,Surprise recog test,2023.1.3,59.819452917354916,
193,0,193,0,,,,,,,,,,,,,,,,,,,,,,,,,,,,,,,,,,1521.1316380000208,1522.143985599978,1520.3550547000486,1520.3550547000486,1520.3550547000486,1520.3550547000486,,old_sceneOut_8.png,194,4.0,0.7769060999853536,,074,00,2025-05-23_14h50.35.857,Surprise recog test,2023.1.3,59.819452917354916,
194,0,194,0,,,,,,,,,,,,,,,,,,,,,,,,,,,,,,,,,,1523.1209468999878,1524.1423395000165,1522.143985599978,1522.143985599978,1522.143985599978,1522.143985599978,,old_stationery_47.png,195,4.0,0.9682215000502765,,074,00,2025-05-23_14h50.35.857,Surprise recog test,2023.1.3,59.819452917354916,
195,0,195,0,,,,,,,,,,,,,,,,,,,,,,,,,,,,,,,,,,1524.7831312000053,1525.8074490000727,1524.1423395000165,1524.1423395000165,1524.1423395000165,1524.1423395000165,,new_sceneIn_21.png,196,4.0,0.6400408999761567,,074,00,2025-05-23_14h50.35.857,Surprise recog test,2023.1.3,59.819452917354916,
196,0,196,0,,,,,,,,,,,,,,,,,,,,,,,,,,,,,,,,,,1526.942539300071,1527.9579497000668,1525.8074490000727,1525.8074490000727,1525.8074490000727,1525.8074490000727,,old_sceneOut_39.png,197,4.0,1.1373154999455437,,074,00,2025-05-23_14h50.35.857,Surprise recog test,2023.1.3,59.819452917354916,
197,0,197,0,,,,,,,,,,,,,,,,,,,,,,,,,,,,,,,,,,1528.8827874000417,1529.9060222000116,1527.9579497000668,1527.9579497000668,1527.9579497000668,1527.9579497000668,,old_stationery_12.png,198,4.0,0.9251477000070736,,074,00,2025-05-23_14h50.35.857,Surprise recog test,2023.1.3,59.819452917354916,
198,0,198,0,,,,,,,,,,,,,,,,,,,,,,,,,,,,,,,,,,1532.8885363000445,1533.915438600001,1529.9060222000116,1529.9060222000116,1529.9060222000116,1529.9060222000116,,new_fruit_18.png,199,2.0,2.9778087000595406,,074,00,2025-05-23_14h50.35.857,Surprise recog test,2023.1.3,59.819452917354916,
199,0,199,0,,,,,,,,,,,,,,,,,,,,,,,,,,,,,,,,,,1535.4675241999794,,1533.915438600001,1533.915438600001,1533.915438600001,1533.915438600001,,old_sceneOut_21.png,200,4.0,1.5541382000083104,,074,00,2025-05-23_14h50.35.857,Surprise recog test,2023.1.3,59.819452917354916,
200,0,200,0,,,,,,,,,,,,,,,,,,,,,,,,,,,,,,,,,,1537.0887590000639,1538.1189940000186,1536.4882497000508,1536.4882497000508,1536.4882497000508,1536.4882497000508,,old_sceneIn_5.png,201,4.0,0.59397110005375,,074,00,2025-05-23_14h50.35.857,Surprise recog test,2023.1.3,59.819452917354916,
201,0,201,0,,,,,,,,,,,,,,,,,,,,,,,,,,,,,,,,,,1539.9893611000152,,1538.1189940000186,1538.1189940000186,1538.1189940000186,1538.1189940000186,,old_stationery_8.png,202,4.0,1.8712128000333905,,074,00,2025-05-23_14h50.35.857,Surprise recog test,2023.1.3,59.819452917354916,
202,0,202,0,,,,,,,,,,,,,,,,,,,,,,,,,,,,,,,,,,1542.2474854000611,1543.2717915000394,1541.0227815000108,1541.0227815000108,1541.0227815000108,1541.0227815000108,,new_sceneOut_6.png,203,4.0,1.226774499984458,,074,00,2025-05-23_14h50.35.857,Surprise recog test,2023.1.3,59.819452917354916,
203,0,203,0,,,,,,,,,,,,,,,,,,,,,,,,,,,,,,,,,,1545.664555400028,1546.6884294999763,1543.2717915000394,1543.2717915000394,1543.2717915000394,1543.2717915000394,,old_fruit_5.png,204,3.0,2.395137600018643,,074,00,2025-05-23_14h50.35.857,Surprise recog test,2023.1.3,59.819452917354916,
204,0,204,0,,,,,,,,,,,,,,,,,,,,,,,,,,,,,,,,,,1547.759708700003,1548.7772465000162,1546.6884294999763,1546.6884294999763,1546.6884294999763,1546.6884294999763,,old_sceneIn_44.png,205,4.0,1.0720519000897184,,074,00,2025-05-23_14h50.35.857,Surprise recog test,2023.1.3,59.819452917354916,
205,0,205,0,,,,,,,,,,,,,,,,,,,,,,,,,,,,,,,,,,1550.6696944000432,1551.692525300081,1548.7772465000162,1548.7772465000162,1548.7772465000162,1548.7772465000162,,new_fruit_12.png,206,4.0,1.8919002999318764,,074,00,2025-05-23_14h50.35.857,Surprise recog test,2023.1.3,59.819452917354916,
206,0,206,0,,,,,,,,,,,,,,,,,,,,,,,,,,,,,,,,,,1553.5296602000017,1554.5520000000251,1551.692525300081,1551.692525300081,1551.692525300081,1551.692525300081,,new_fruit_23.png,207,2.0,1.8385011000791565,,074,00,2025-05-23_14h50.35.857,Surprise recog test,2023.1.3,59.819452917354916,
207,0,207,0,,,,,,,,,,,,,,,,,,,,,,,,,,,,,,,,,,1556.0482750000665,1557.0685378999915,1554.5520000000251,1554.5520000000251,1554.5520000000251,1554.5520000000251,,new_fruit_38.png,208,4.0,1.4968880000524223,,074,00,2025-05-23_14h50.35.857,Surprise recog test,2023.1.3,59.819452917354916,
208,0,208,0,,,,,,,,,,,,,,,,,,,,,,,,,,,,,,,,,,1560.1583853000775,1561.1783382000867,1557.0685378999915,1557.0685378999915,1557.0685378999915,1557.0685378999915,,old_fruit_8.png,209,1.0,3.092925800010562,,074,00,2025-05-23_14h50.35.857,Surprise recog test,2023.1.3,59.819452917354916,
209,0,209,0,,,,,,,,,,,,,,,,,,,,,,,,,,,,,,,,,,1563.4043517999817,1564.424682400073,1561.1783382000867,1561.1783382000867,1561.1783382000867,1561.1783382000867,,old_fruit_29.png,210,4.0,2.2170415999135002,,074,00,2025-05-23_14h50.35.857,Surprise recog test,2023.1.3,59.819452917354916,
210,0,210,0,,,,,,,,,,,,,,,,,,,,,,,,,,,,,,,,,,1565.7396757000824,1566.7483423000667,1564.424682400073,1564.424682400073,1564.424682400073,1564.424682400073,,new_fruit_40.png,211,4.0,1.313870699959807,,074,00,2025-05-23_14h50.35.857,Surprise recog test,2023.1.3,59.819452917354916,
211,0,211,0,,,,,,,,,,,,,,,,,,,,,,,,,,,,,,,,,,1567.9036092000315,1568.9236980000278,1566.7483423000667,1566.7483423000667,1566.7483423000667,1566.7483423000667,,old_sceneOut_22.png,212,4.0,1.1503947000019252,,074,00,2025-05-23_14h50.35.857,Surprise recog test,2023.1.3,59.819452917354916,
212,0,212,0,,,,,,,,,,,,,,,,,,,,,,,,,,,,,,,,,,1569.9096980000613,1570.9177098000655,1568.9236980000278,1568.9236980000278,1568.9236980000278,1568.9236980000278,,old_sceneIn_9.png,213,4.0,0.979332699906081,,074,00,2025-05-23_14h50.35.857,Surprise recog test,2023.1.3,59.819452917354916,
213,0,213,0,,,,,,,,,,,,,,,,,,,,,,,,,,,,,,,,,,1572.0063088000752,1573.0359135000035,1570.9177098000655,1570.9177098000655,1570.9177098000655,1570.9177098000655,,new_stationery_5.png,214,4.0,1.0838721999898553,,074,00,2025-05-23_14h50.35.857,Surprise recog test,2023.1.3,59.819452917354916,
214,0,214,0,,,,,,,,,,,,,,,,,,,,,,,,,,,,,,,,,,1574.337936899974,1575.365528400056,1573.0359135000035,1573.0359135000035,1573.0359135000035,1573.0359135000035,,old_sceneIn_28.png,215,4.0,1.304996500024572,,074,00,2025-05-23_14h50.35.857,Surprise recog test,2023.1.3,59.819452917354916,
215,0,215,0,,,,,,,,,,,,,,,,,,,,,,,,,,,,,,,,,,1576.3318182000658,1577.351392499986,1575.365528400056,1575.365528400056,1575.365528400056,1575.365528400056,,old_sceneIn_36.png,216,4.0,0.9651320000411943,,074,00,2025-05-23_14h50.35.857,Surprise recog test,2023.1.3,59.819452917354916,
216,0,216,0,,,,,,,,,,,,,,,,,,,,,,,,,,,,,,,,,,1577.9819360000547,1579.0081318999873,1577.351392499986,1577.351392499986,1577.351392499986,1577.351392499986,,old_sceneIn_47.png,217,4.0,0.6325107999145985,,074,00,2025-05-23_14h50.35.857,Surprise recog test,2023.1.3,59.819452917354916,
217,0,217,0,,,,,,,,,,,,,,,,,,,,,,,,,,,,,,,,,,1579.596446200041,1580.6212251000106,1579.0081318999873,1579.0081318999873,1579.0081318999873,1579.0081318999873,,old_sceneOut_26.png,218,4.0,0.5931730000302196,,074,00,2025-05-23_14h50.35.857,Surprise recog test,2023.1.3,59.819452917354916,
218,0,218,0,,,,,,,,,,,,,,,,,,,,,,,,,,,,,,,,,,1581.7449721000157,1582.7728495000629,1580.6212251000106,1580.6212251000106,1580.6212251000106,1580.6212251000106,,old_sceneIn_22.png,219,4.0,1.1256812000647187,,074,00,2025-05-23_14h50.35.857,Surprise recog test,2023.1.3,59.819452917354916,
219,0,219,0,,,,,,,,,,,,,,,,,,,,,,,,,,,,,,,,,,1583.3533653999912,1584.3622499000048,1582.7728495000629,1582.7728495000629,1582.7728495000629,1582.7728495000629,,old_sceneOut_34.png,220,4.0,0.5823967999313027,,074,00,2025-05-23_14h50.35.857,Surprise recog test,2023.1.3,59.819452917354916,
220,0,220,0,,,,,,,,,,,,,,,,,,,,,,,,,,,,,,,,,,1584.997851400054,1586.0232002000557,1584.3622499000048,1584.3622499000048,1584.3622499000048,1584.3622499000048,,old_sceneOut_13.png,221,4.0,0.6307885999558493,,074,00,2025-05-23_14h50.35.857,Surprise recog test,2023.1.3,59.819452917354916,
221,0,221,0,,,,,,,,,,,,,,,,,,,,,,,,,,,,,,,,,,1587.0224261999829,1588.0309273999883,1586.0232002000557,1586.0232002000557,1586.0232002000557,1586.0232002000557,,new_stationery_41.png,222,4.0,1.0006225000834092,,074,00,2025-05-23_14h50.35.857,Surprise recog test,2023.1.3,59.819452917354916,
222,0,222,0,,,,,,,,,,,,,,,,,,,,,,,,,,,,,,,,,,1591.5624055999797,1592.581745899981,1588.0309273999883,1588.0309273999883,1588.0309273999883,1588.0309273999883,,old_fruit_42.png,223,3.0,3.528327999985777,,074,00,2025-05-23_14h50.35.857,Surprise recog test,2023.1.3,59.819452917354916,
223,0,223,0,,,,,,,,,,,,,,,,,,,,,,,,,,,,,,,,,,1593.7737616000231,1594.8063601000467,1592.581745899981,1592.581745899981,1592.581745899981,1592.581745899981,,old_sceneOut_16.png,224,4.0,1.1918333999346942,,074,00,2025-05-23_14h50.35.857,Surprise recog test,2023.1.3,59.819452917354916,
224,0,224,0,,,,,,,,,,,,,,,,,,,,,,,,,,,,,,,,,,1596.3492006000597,1597.3608068000758,1594.8063601000467,1594.8063601000467,1594.8063601000467,1594.8063601000467,,new_sceneOut_29.png,225,4.0,1.5464172998908907,,074,00,2025-05-23_14h50.35.857,Surprise recog test,2023.1.3,59.819452917354916,
225,0,225,0,,,,,,,,,,,,,,,,,,,,,,,,,,,,,,,,,,1598.2813996999757,1599.2917305000592,1597.3608068000758,1597.3608068000758,1597.3608068000758,1597.3608068000758,,old_sceneOut_48.png,226,4.0,0.9184978000121191,,074,00,2025-05-23_14h50.35.857,Surprise recog test,2023.1.3,59.819452917354916,
226,0,226,0,,,,,,,,,,,,,,,,,,,,,,,,,,,,,,,,,,1601.23379139998,1602.2568817000138,1599.2917305000592,1599.2917305000592,1599.2917305000592,1599.2917305000592,,new_fruit_2.png,227,2.0,1.936971400049515,,074,00,2025-05-23_14h50.35.857,Surprise recog test,2023.1.3,59.819452917354916,
227,0,227,0,,,,,,,,,,,,,,,,,,,,,,,,,,,,,,,,,,1603.1784747000784,1604.2068999999901,1602.2568817000138,1602.2568817000138,1602.2568817000138,1602.2568817000138,,old_sceneOut_37.png,228,4.0,0.9224701999919489,,074,00,2025-05-23_14h50.35.857,Surprise recog test,2023.1.3,59.819452917354916,
228,0,228,0,,,,,,,,,,,,,,,,,,,,,,,,,,,,,,,,,,1604.9594231999945,,1604.2068999999901,1604.2068999999901,1604.2068999999901,1604.2068999999901,,old_sceneOut_2.png,229,4.0,0.754573000012897,,074,00,2025-05-23_14h50.35.857,Surprise recog test,2023.1.3,59.819452917354916,
229,0,229,0,,,,,,,,,,,,,,,,,,,,,,,,,,,,,,,,,,1608.627720199991,,1605.9914603000507,1605.9914603000507,1605.9914603000507,1605.9914603000507,,new_sceneOut_2.png,230,4.0,2.638273699907586,,074,00,2025-05-23_14h50.35.857,Surprise recog test,2023.1.3,59.819452917354916,
230,0,230,0,,,,,,,,,,,,,,,,,,,,,,,,,,,,,,,,,,1610.3444510999834,1611.3581232000142,1609.6594022000208,1609.6594022000208,1609.6594022000208,1609.6594022000208,,new_sceneOut_11.png,231,4.0,0.6863885999191552,,074,00,2025-05-23_14h50.35.857,Surprise recog test,2023.1.3,59.819452917354916,
231,0,231,0,,,,,,,,,,,,,,,,,,,,,,,,,,,,,,,,,,1613.633849899983,,1611.3581232000142,1611.3581232000142,1611.3581232000142,1611.3581232000142,,old_stationery_19.png,232,3.0,2.2776096999878064,,074,00,2025-05-23_14h50.35.857,Surprise recog test,2023.1.3,59.819452917354916,
232,0,232,0,,,,,,,,,,,,,,,,,,,,,,,,,,,,,,,,,,1615.4718721000245,1616.500901099993,1614.664523400017,1614.664523400017,1614.664523400017,1614.664523400017,,new_sceneOut_8.png,233,4.0,0.8090738999890164,,074,00,2025-05-23_14h50.35.857,Surprise recog test,2023.1.3,59.819452917354916,
233,0,233,0,,,,,,,,,,,,,,,,,,,,,,,,,,,,,,,,,,1617.754766200087,1618.7837888000067,1616.500901099993,1616.500901099993,1616.500901099993,1616.500901099993,,old_sceneIn_25.png,234,4.0,1.2558817999670282,,074,00,2025-05-23_14h50.35.857,Surprise recog test,2023.1.3,59.819452917354916,
234,0,234,0,,,,,,,,,,,,,,,,,,,,,,,,,,,,,,,,,,1620.3954180000583,1621.4098868999863,1618.7837888000067,1618.7837888000067,1618.7837888000067,1618.7837888000067,,old_fruit_13.png,235,4.0,1.6112265000119805,,074,00,2025-05-23_14h50.35.857,Surprise recog test,2023.1.3,59.819452917354916,
235,0,235,0,,,,,,,,,,,,,,,,,,,,,,,,,,,,,,,,,,1622.2644803000148,1623.290834799991,1621.4098868999863,1621.4098868999863,1621.4098868999863,1621.4098868999863,,new_sceneOut_34.png,236,4.0,0.8494161000708118,,074,00,2025-05-23_14h50.35.857,Surprise recog test,2023.1.3,59.819452917354916,
236,0,236,0,,,,,,,,,,,,,,,,,,,,,,,,,,,,,,,,,,1624.1215082000708,1625.1391230000881,1623.290834799991,1623.290834799991,1623.290834799991,1623.290834799991,,new_sceneIn_14.png,237,4.0,0.8282769999932498,,074,00,2025-05-23_14h50.35.857,Surprise recog test,2023.1.3,59.819452917354916,
237,0,237,0,,,,,,,,,,,,,,,,,,,,,,,,,,,,,,,,,,1626.3400097000413,1627.344104000018,1625.1391230000881,1625.1391230000881,1625.1391230000881,1625.1391230000881,,new_fruit_32.png,238,4.0,1.1983637000666931,,074,00,2025-05-23_14h50.35.857,Surprise recog test,2023.1.3,59.819452917354916,
238,0,238,0,,,,,,,,,,,,,,,,,,,,,,,,,,,,,,,,,,1628.1343020000495,1629.1599933999823,1627.344104000018,1627.344104000018,1627.344104000018,1627.344104000018,,old_stationery_11.png,239,4.0,0.7862438999582082,,074,00,2025-05-23_14h50.35.857,Surprise recog test,2023.1.3,59.819452917354916,
239,0,239,0,,,,,,,,,,,,,,,,,,,,,,,,,,,,,,,,,,1629.748745399993,1630.7673288000515,1629.1599933999823,1629.1599933999823,1629.1599933999823,1629.1599933999823,,old_sceneOut_30.png,240,4.0,0.5902853000443429,,074,00,2025-05-23_14h50.35.857,Surprise recog test,2023.1.3,59.819452917354916,
240,0,240,0,,,,,,,,,,,,,,,,,,,,,,,,,,,,,,,,,,1632.0954508000286,1633.1114283000352,1630.7673288000515,1630.7673288000515,1630.7673288000515,1630.7673288000515,,new_stationery_23.png,241,4.0,1.3228897000662982,,074,00,2025-05-23_14h50.35.857,Surprise recog test,2023.1.3,59.819452917354916,
241,0,241,0,,,,,,,,,,,,,,,,,,,,,,,,,,,,,,,,,,1635.3808296000352,1636.402332699974,1633.1114283000352,1633.1114283000352,1633.1114283000352,1633.1114283000352,,new_fruit_36.png,242,4.0,2.267049100017175,,074,00,2025-05-23_14h50.35.857,Surprise recog test,2023.1.3,59.819452917354916,
242,0,242,0,,,,,,,,,,,,,,,,,,,,,,,,,,,,,,,,,,1637.4944379000226,1638.5079827000154,1636.402332699974,1636.402332699974,1636.402332699974,1636.402332699974,,old_stationery_49.png,243,4.0,1.095001200097613,,074,00,2025-05-23_14h50.35.857,Surprise recog test,2023.1.3,59.819452917354916,
243,0,243,0,,,,,,,,,,,,,,,,,,,,,,,,,,,,,,,,,,1639.2006860000547,1640.2154851000523,1638.5079827000154,1638.5079827000154,1638.5079827000154,1638.5079827000154,,old_stationery_41.png,244,4.0,0.6822925999294966,,074,00,2025-05-23_14h50.35.857,Surprise recog test,2023.1.3,59.819452917354916,
244,0,244,0,,,,,,,,,,,,,,,,,,,,,,,,,,,,,,,,,,1642.7634471000638,1643.7887197000673,1640.2154851000523,1640.2154851000523,1640.2154851000523,1640.2154851000523,,new_fruit_48.png,245,3.0,2.5491463999496773,,074,00,2025-05-23_14h50.35.857,Surprise recog test,2023.1.3,59.819452917354916,
245,0,245,0,,,,,,,,,,,,,,,,,,,,,,,,,,,,,,,,,,1646.3441297999816,,1643.7887197000673,1643.7887197000673,1643.7887197000673,1643.7887197000673,,old_sceneIn_50.png,246,4.0,2.5570004999171942,,074,00,2025-05-23_14h50.35.857,Surprise recog test,2023.1.3,59.819452917354916,
246,0,246,0,,,,,,,,,,,,,,,,,,,,,,,,,,,,,,,,,,1648.558572000009,1649.5741200000048,1647.364641900058,1647.364641900058,1647.364641900058,1647.364641900058,,new_sceneIn_15.png,247,4.0,1.1901937000220641,,074,00,2025-05-23_14h50.35.857,Surprise recog test,2023.1.3,59.819452917354916,
247,0,247,0,,,,,,,,,,,,,,,,,,,,,,,,,,,,,,,,,,1650.778654600028,1651.794636500068,1649.5741200000048,1649.5741200000048,1649.5741200000048,1649.5741200000048,,new_sceneIn_18.png,248,4.0,1.2049876999808475,,074,00,2025-05-23_14h50.35.857,Surprise recog test,2023.1.3,59.819452917354916,
248,0,248,0,,,,,,,,,,,,,,,,,,,,,,,,,,,,,,,,,,1654.1949105000822,1655.213508500019,1651.794636500068,1651.794636500068,1651.794636500068,1651.794636500068,,old_fruit_50.png,249,4.0,2.402719600009732,,074,00,2025-05-23_14h50.35.857,Surprise recog test,2023.1.3,59.819452917354916,
249,0,249,0,,,,,,,,,,,,,,,,,,,,,,,,,,,,,,,,,,1656.1387165000197,1657.168874999974,1655.213508500019,1655.213508500019,1655.213508500019,1655.213508500019,,new_stationery_3.png,250,4.0,0.9263421000214294,,074,00,2025-05-23_14h50.35.857,Surprise recog test,2023.1.3,59.819452917354916,
250,0,250,0,,,,,,,,,,,,,,,,,,,,,,,,,,,,,,,,,,1658.3470880000386,1659.3626466999995,1657.168874999974,1657.168874999974,1657.168874999974,1657.168874999974,,new_sceneOut_21.png,251,4.0,1.1801997000584379,,074,00,2025-05-23_14h50.35.857,Surprise recog test,2023.1.3,59.819452917354916,
251,0,251,0,,,,,,,,,,,,,,,,,,,,,,,,,,,,,,,,,,1660.022390600061,,1659.3626466999995,1659.3626466999995,1659.3626466999995,1659.3626466999995,,new_sceneOut_45.png,252,4.0,0.6602490999503061,,074,00,2025-05-23_14h50.35.857,Surprise recog test,2023.1.3,59.819452917354916,
252,0,252,0,,,,,,,,,,,,,,,,,,,,,,,,,,,,,,,,,,1662.9860035000602,1663.9915106000844,1661.0532220000168,1661.0532220000168,1661.0532220000168,1661.0532220000168,,old_sceneOut_33.png,253,4.0,1.933714099926874,,074,00,2025-05-23_14h50.35.857,Surprise recog test,2023.1.3,59.819452917354916,
253,0,253,0,,,,,,,,,,,,,,,,,,,,,,,,,,,,,,,,,,1665.6060240999795,1666.6101960000815,1663.9915106000844,1663.9915106000844,1663.9915106000844,1663.9915106000844,,new_fruit_37.png,254,4.0,1.6040143000427634,,074,00,2025-05-23_14h50.35.857,Surprise recog test,2023.1.3,59.819452917354916,
254,0,254,0,,,,,,,,,,,,,,,,,,,,,,,,,,,,,,,,,,1667.3574438000796,1668.3614439000376,1666.6101960000815,1666.6101960000815,1666.6101960000815,1666.6101960000815,,old_sceneOut_49.png,255,4.0,0.7366809999803081,,074,00,2025-05-23_14h50.35.857,Surprise recog test,2023.1.3,59.819452917354916,
255,0,255,0,,,,,,,,,,,,,,,,,,,,,,,,,,,,,,,,,,1669.1755974000553,1670.1797374000307,1668.3614439000376,1668.3614439000376,1668.3614439000376,1668.3614439000376,,old_sceneIn_18.png,256,4.0,0.8033890000078827,,074,00,2025-05-23_14h50.35.857,Surprise recog test,2023.1.3,59.819452917354916,
256,0,256,0,,,,,,,,,,,,,,,,,,,,,,,,,,,,,,,,,,1671.110521900002,1672.114493799978,1670.1797374000307,1670.1797374000307,1670.1797374000307,1670.1797374000307,,new_sceneIn_1.png,257,4.0,0.9231713000917807,,074,00,2025-05-23_14h50.35.857,Surprise recog test,2023.1.3,59.819452917354916,
257,0,257,0,,,,,,,,,,,,,,,,,,,,,,,,,,,,,,,,,,1674.1463977000676,1675.1515940000536,1672.114493799978,1672.114493799978,1672.114493799978,1672.114493799978,,old_sceneIn_39.png,258,3.0,2.021369600086473,,074,00,2025-05-23_14h50.35.857,Surprise recog test,2023.1.3,59.819452917354916,
258,0,258,0,,,,,,,,,,,,,,,,,,,,,,,,,,,,,,,,,,1676.597140100086,1677.6070788999787,1675.1515940000536,1675.1515940000536,1675.1515940000536,1675.1515940000536,,old_stationery_33.png,259,3.0,1.4423463999992236,,074,00,2025-05-23_14h50.35.857,Surprise recog test,2023.1.3,59.819452917354916,
259,0,259,0,,,,,,,,,,,,,,,,,,,,,,,,,,,,,,,,,,1678.683552499977,1679.6999823000515,1677.6070788999787,1677.6070788999787,1677.6070788999787,1677.6070788999787,,old_stationery_48.png,260,4.0,1.072570100077428,,074,00,2025-05-23_14h50.35.857,Surprise recog test,2023.1.3,59.819452917354916,
260,0,260,0,,,,,,,,,,,,,,,,,,,,,,,,,,,,,,,,,,1682.224905500072,1683.2575737000443,1679.6999823000515,1679.6999823000515,1679.6999823000515,1679.6999823000515,,new_sceneIn_34.png,261,5.0,2.5264028001111,,074,00,2025-05-23_14h50.35.857,Surprise recog test,2023.1.3,59.819452917354916,
261,0,261,0,,,,,,,,,,,,,,,,,,,,,,,,,,,,,,,,,,1684.8431913000531,1685.8773992999922,1683.2575737000443,1683.2575737000443,1683.2575737000443,1683.2575737000443,,new_stationery_13.png,262,4.0,1.5884474999038503,,074,00,2025-05-23_14h50.35.857,Surprise recog test,2023.1.3,59.819452917354916,
262,0,262,0,,,,,,,,,,,,,,,,,,,,,,,,,,,,,,,,,,1688.6919066000264,1689.7116057000821,1685.8773992999922,1685.8773992999922,1685.8773992999922,1685.8773992999922,,old_fruit_48.png,263,3.0,2.8165163999656215,,074,00,2025-05-23_14h50.35.857,Surprise recog test,2023.1.3,59.819452917354916,
263,0,263,0,,,,,,,,,,,,,,,,,,,,,,,,,,,,,,,,,,1690.8924881999847,1691.914702399983,1689.7116057000821,1689.7116057000821,1689.7116057000821,1689.7116057000821,,new_sceneIn_4.png,264,4.0,1.1811730000190437,,074,00,2025-05-23_14h50.35.857,Surprise recog test,2023.1.3,59.819452917354916,
264,0,264,0,,,,,,,,,,,,,,,,,,,,,,,,,,,,,,,,,,1694.3649136000313,1695.3761487000156,1691.914702399983,1691.914702399983,1691.914702399983,1691.914702399983,,new_sceneIn_47.png,265,5.0,2.452118400018662,,074,00,2025-05-23_14h50.35.857,Surprise recog test,2023.1.3,59.819452917354916,
265,0,265,0,,,,,,,,,,,,,,,,,,,,,,,,,,,,,,,,,,1698.1626068999758,1699.1798828999745,1695.3761487000156,1695.3761487000156,1695.3761487000156,1695.3761487000156,,new_fruit_13.png,266,4.0,2.787018100032583,,074,00,2025-05-23_14h50.35.857,Surprise recog test,2023.1.3,59.819452917354916,
266,0,266,0,,,,,,,,,,,,,,,,,,,,,,,,,,,,,,,,,,1700.6261889999732,1701.655310900067,1699.1798828999745,1699.1798828999745,1699.1798828999745,1699.1798828999745,,old_sceneIn_46.png,267,5.0,1.4444415000034496,,074,00,2025-05-23_14h50.35.857,Surprise recog test,2023.1.3,59.819452917354916,
267,0,267,0,,,,,,,,,,,,,,,,,,,,,,,,,,,,,,,,,,1702.6991728000576,1703.7241380000487,1701.655310900067,1701.655310900067,1701.655310900067,1701.655310900067,,new_sceneIn_19.png,268,4.0,1.0459606000222266,,074,00,2025-05-23_14h50.35.857,Surprise recog test,2023.1.3,59.819452917354916,
268,0,268,0,,,,,,,,,,,,,,,,,,,,,,,,,,,,,,,,,,1706.8168879000004,1707.8496252000332,1703.7241380000487,1703.7241380000487,1703.7241380000487,1703.7241380000487,,old_sceneIn_10.png,269,4.0,3.095492499996908,,074,00,2025-05-23_14h50.35.857,Surprise recog test,2023.1.3,59.819452917354916,
269,0,269,0,,,,,,,,,,,,,,,,,,,,,,,,,,,,,,,,,,1709.7066705999896,1710.7177638000576,1707.8496252000332,1707.8496252000332,1707.8496252000332,1707.8496252000332,,old_sceneIn_20.png,270,5.0,1.8609492999967188,,074,00,2025-05-23_14h50.35.857,Surprise recog test,2023.1.3,59.819452917354916,
270,0,270,0,,,,,,,,,,,,,,,,,,,,,,,,,,,,,,,,,,1715.104747000034,1716.1307561000576,1710.7177638000576,1710.7177638000576,1710.7177638000576,1710.7177638000576,,new_sceneIn_43.png,271,5.0,4.381212800042704,,074,00,2025-05-23_14h50.35.857,Surprise recog test,2023.1.3,59.819452917354916,
271,0,271,0,,,,,,,,,,,,,,,,,,,,,,,,,,,,,,,,,,1718.0244452999905,1719.0410037999973,1716.1307561000576,1716.1307561000576,1716.1307561000576,1716.1307561000576,,old_stationery_18.png,272,3.0,1.8931200000224635,,074,00,2025-05-23_14h50.35.857,Surprise recog test,2023.1.3,59.819452917354916,
272,0,272,0,,,,,,,,,,,,,,,,,,,,,,,,,,,,,,,,,,1721.763447400066,1722.7891500000842,1719.0410037999973,1719.0410037999973,1719.0410037999973,1719.0410037999973,,old_fruit_6.png,273,2.0,2.715511200018227,,074,00,2025-05-23_14h50.35.857,Surprise recog test,2023.1.3,59.819452917354916,
273,0,273,0,,,,,,,,,,,,,,,,,,,,,,,,,,,,,,,,,,1724.8323546000756,1725.8611127000768,1722.7891500000842,1722.7891500000842,1722.7891500000842,1722.7891500000842,,old_sceneIn_14.png,274,1.0,2.0427940000081435,,074,00,2025-05-23_14h50.35.857,Surprise recog test,2023.1.3,59.819452917354916,
274,0,274,0,,,,,,,,,,,,,,,,,,,,,,,,,,,,,,,,,,1728.1961634000763,1729.2229099000106,1725.8611127000768,1725.8611127000768,1725.8611127000768,1725.8611127000768,,new_fruit_16.png,275,4.0,2.3391697000479326,,074,00,2025-05-23_14h50.35.857,Surprise recog test,2023.1.3,59.819452917354916,
275,0,275,0,,,,,,,,,,,,,,,,,,,,,,,,,,,,,,,,,,1731.4365366999991,1732.4510957000311,1729.2229099000106,1729.2229099000106,1729.2229099000106,1729.2229099000106,,new_stationery_45.png,276,4.0,2.215280400007032,,074,00,2025-05-23_14h50.35.857,Surprise recog test,2023.1.3,59.819452917354916,
276,0,276,0,,,,,,,,,,,,,,,,,,,,,,,,,,,,,,,,,,1734.784514100058,,1732.4510957000311,1732.4510957000311,1732.4510957000311,1732.4510957000311,,old_fruit_44.png,277,2.0,2.3298915999475867,,074,00,2025-05-23_14h50.35.857,Surprise recog test,2023.1.3,59.819452917354916,
277,0,277,0,,,,,,,,,,,,,,,,,,,,,,,,,,,,,,,,,,1737.6930611000862,1738.714754500077,1735.8141472000862,1735.8141472000862,1735.8141472000862,1735.8141472000862,,new_sceneOut_27.png,278,4.0,1.8826393000781536,,074,00,2025-05-23_14h50.35.857,Surprise recog test,2023.1.3,59.819452917354916,
278,0,278,0,,,,,,,,,,,,,,,,,,,,,,,,,,,,,,,,,,1739.6844468000345,1740.7034416000824,1738.714754500077,1738.714754500077,1738.714754500077,1738.714754500077,,new_sceneIn_41.png,279,4.0,0.9720977999968454,,074,00,2025-05-23_14h50.35.857,Surprise recog test,2023.1.3,59.819452917354916,
279,0,279,0,,,,,,,,,,,,,,,,,,,,,,,,,,,,,,,,,,1743.036114800023,1744.052152600023,1740.7034416000824,1740.7034416000824,1740.7034416000824,1740.7034416000824,,old_sceneIn_19.png,280,3.0,2.334448100067675,,074,00,2025-05-23_14h50.35.857,Surprise recog test,2023.1.3,59.819452917354916,
280,0,280,0,,,,,,,,,,,,,,,,,,,,,,,,,,,,,,,,,,1745.5702565000392,1746.5939534000354,1744.052152600023,1744.052152600023,1744.052152600023,1744.052152600023,,old_sceneOut_4.png,281,4.0,1.5196199000347406,,074,00,2025-05-23_14h50.35.857,Surprise recog test,2023.1.3,59.819452917354916,
281,0,281,0,,,,,,,,,,,,,,,,,,,,,,,,,,,,,,,,,,1747.560352300061,,1746.5939534000354,1746.5939534000354,1746.5939534000354,1746.5939534000354,,new_sceneIn_42.png,282,4.0,0.9695638000266626,,074,00,2025-05-23_14h50.35.857,Surprise recog test,2023.1.3,59.819452917354916,
282,0,282,0,,,,,,,,,,,,,,,,,,,,,,,,,,,,,,,,,,1751.6671212000074,1752.6988426999887,1748.5948923000833,1748.5948923000833,1748.5948923000833,1748.5948923000833,,old_fruit_2.png,283,3.0,3.073407799936831,,074,00,2025-05-23_14h50.35.857,Surprise recog test,2023.1.3,59.819452917354916,
283,0,283,0,,,,,,,,,,,,,,,,,,,,,,,,,,,,,,,,,,1753.7694062000373,1754.799120599986,1752.6988426999887,1752.6988426999887,1752.6988426999887,1752.6988426999887,,new_stationery_15.png,284,4.0,1.0737812999868765,,074,00,2025-05-23_14h50.35.857,Surprise recog test,2023.1.3,59.819452917354916,
284,0,284,0,,,,,,,,,,,,,,,,,,,,,,,,,,,,,,,,,,1756.0717726000585,1757.102182700066,1754.799120599986,1754.799120599986,1754.799120599986,1754.799120599986,,old_sceneIn_40.png,285,4.0,1.272610199986957,,074,00,2025-05-23_14h50.35.857,Surprise recog test,2023.1.3,59.819452917354916,
285,0,285,0,,,,,,,,,,,,,,,,,,,,,,,,,,,,,,,,,,1759.158116400009,1760.18570859998,1757.102182700066,1757.102182700066,1757.102182700066,1757.102182700066,,new_fruit_15.png,286,2.0,2.0570172000443563,,074,00,2025-05-23_14h50.35.857,Surprise recog test,2023.1.3,59.819452917354916,
286,0,286,0,,,,,,,,,,,,,,,,,,,,,,,,,,,,,,,,,,1761.336209799978,1762.346874800045,1760.18570859998,1760.18570859998,1760.18570859998,1760.18570859998,,old_sceneIn_6.png,287,4.0,1.1509640000294894,,074,00,2025-05-23_14h50.35.857,Surprise recog test,2023.1.3,59.819452917354916,
287,0,287,0,,,,,,,,,,,,,,,,,,,,,,,,,,,,,,,,,,1763.4168087000726,1764.440636000014,1762.346874800045,1762.346874800045,1762.346874800045,1762.346874800045,,old_sceneOut_35.png,288,4.0,1.0699816000415012,,074,00,2025-05-23_14h50.35.857,Surprise recog test,2023.1.3,59.819452917354916,
288,0,288,0,,,,,,,,,,,,,,,,,,,,,,,,,,,,,,,,,,1765.268921900075,1766.2769296000479,1764.440636000014,1764.440636000014,1764.440636000014,1764.440636000014,,new_sceneOut_43.png,289,4.0,0.8310700000729412,,074,00,2025-05-23_14h50.35.857,Surprise recog test,2023.1.3,59.819452917354916,
289,0,289,0,,,,,,,,,,,,,,,,,,,,,,,,,,,,,,,,,,1767.1980366000207,1768.2274086000398,1766.2769296000479,1766.2769296000479,1766.2769296000479,1766.2769296000479,,new_sceneIn_6.png,290,4.0,0.915146499988623,,074,00,2025-05-23_14h50.35.857,Surprise recog test,2023.1.3,59.819452917354916,
290,0,290,0,,,,,,,,,,,,,,,,,,,,,,,,,,,,,,,,,,1769.0785255000228,,1768.2274086000398,1768.2274086000398,1768.2274086000398,1768.2274086000398,,old_sceneIn_41.png,291,4.0,0.8505931000690907,,074,00,2025-05-23_14h50.35.857,Surprise recog test,2023.1.3,59.819452917354916,
291,0,291,0,,,,,,,,,,,,,,,,,,,,,,,,,,,,,,,,,,1770.7528394000838,1771.782167700003,1770.09971390001,1770.09971390001,1770.09971390001,1770.09971390001,,old_sceneOut_36.png,292,4.0,0.6470410999609157,,074,00,2025-05-23_14h50.35.857,Surprise recog test,2023.1.3,59.819452917354916,
292,0,292,0,,,,,,,,,,,,,,,,,,,,,,,,,,,,,,,,,,1772.4828764999984,1773.5132362000877,1771.782167700003,1771.782167700003,1771.782167700003,1771.782167700003,,new_stationery_33.png,293,4.0,0.7050293000647798,,074,00,2025-05-23_14h50.35.857,Surprise recog test,2023.1.3,59.819452917354916,
293,0,293,0,,,,,,,,,,,,,,,,,,,,,,,,,,,,,,,,,,1774.1146603000816,1775.120519899996,1773.5132362000877,1773.5132362000877,1773.5132362000877,1773.5132362000877,,new_sceneIn_48.png,294,4.0,0.6027915999293327,,074,00,2025-05-23_14h50.35.857,Surprise recog test,2023.1.3,59.819452917354916,
294,0,294,0,,,,,,,,,,,,,,,,,,,,,,,,,,,,,,,,,,1775.9861238000449,1777.0181451999815,1775.120519899996,1775.120519899996,1775.120519899996,1775.120519899996,,new_sceneOut_20.png,295,4.0,0.8615440999856219,,074,00,2025-05-23_14h50.35.857,Surprise recog test,2023.1.3,59.819452917354916,
295,0,295,0,,,,,,,,,,,,,,,,,,,,,,,,,,,,,,,,,,1777.8719353000633,1778.9003777999897,1777.0181451999815,1777.0181451999815,1777.0181451999815,1777.0181451999815,,old_sceneIn_17.png,296,4.0,0.855817100033164,,074,00,2025-05-23_14h50.35.857,Surprise recog test,2023.1.3,59.819452917354916,
296,0,296,0,,,,,,,,,,,,,,,,,,,,,,,,,,,,,,,,,,1779.710591500043,1780.737136400072,1778.9003777999897,1778.9003777999897,1778.9003777999897,1778.9003777999897,,new_sceneOut_28.png,297,4.0,0.8131148000247777,,074,00,2025-05-23_14h50.35.857,Surprise recog test,2023.1.3,59.819452917354916,
297,0,297,0,,,,,,,,,,,,,,,,,,,,,,,,,,,,,,,,,,1783.7221651000436,1784.741431600065,1780.737136400072,1780.737136400072,1780.737136400072,1780.737136400072,,new_fruit_20.png,298,4.0,2.9857221000129357,,074,00,2025-05-23_14h50.35.857,Surprise recog test,2023.1.3,59.819452917354916,
298,0,298,0,,,,,,,,,,,,,,,,,,,,,,,,,,,,,,,,,,1785.4842566000298,1786.4963802000275,1784.741431600065,1784.741431600065,1784.741431600065,1784.741431600065,,new_sceneOut_26.png,299,4.0,0.7427396998973563,,074,00,2025-05-23_14h50.35.857,Surprise recog test,2023.1.3,59.819452917354916,
299,0,299,0,,,,,,,,,,,,,,,,,,,,,,,,,,,,,,,,,,1788.2803748999722,1789.3080294000683,1786.4963802000275,1786.4963802000275,1786.4963802000275,1786.4963802000275,,old_fruit_7.png,300,2.0,1.7797705000266433,,074,00,2025-05-23_14h50.35.857,Surprise recog test,2023.1.3,59.819452917354916,
300,0,300,0,,,,,,,,,,,,,,,,,,,,,,,,,,,,,,,,,,1791.0976438000798,,1789.3080294000683,1789.3080294000683,1789.3080294000683,1789.3080294000683,,old_fruit_22.png,301,2.0,1.790392900002189,,074,00,2025-05-23_14h50.35.857,Surprise recog test,2023.1.3,59.819452917354916,
301,0,301,0,,,,,,,,,,,,,,,,,,,,,,,,,,,,,,,,,,1793.7356357000535,1794.7644544000505,1792.128690200043,1792.128690200043,1792.128690200043,1792.128690200043,,old_fruit_38.png,302,1.0,1.6088067999808118,,074,00,2025-05-23_14h50.35.857,Surprise recog test,2023.1.3,59.819452917354916,
302,0,302,0,,,,,,,,,,,,,,,,,,,,,,,,,,,,,,,,,,1796.8493290999904,1797.8547699999763,1794.7644544000505,1794.7644544000505,1794.7644544000505,1794.7644544000505,,new_fruit_28.png,303,4.0,2.086669099982828,,074,00,2025-05-23_14h50.35.857,Surprise recog test,2023.1.3,59.819452917354916,
303,0,303,0,,,,,,,,,,,,,,,,,,,,,,,,,,,,,,,,,,1799.4265564000234,1800.454172900063,1797.8547699999763,1797.8547699999763,1797.8547699999763,1797.8547699999763,,old_stationery_42.png,304,4.0,1.56682239996735,,074,00,2025-05-23_14h50.35.857,Surprise recog test,2023.1.3,59.819452917354916,
304,0,304,0,,,,,,,,,,,,,,,,,,,,,,,,,,,,,,,,,,1802.5690298000118,1803.5778038999997,1800.454172900063,1800.454172900063,1800.454172900063,1800.454172900063,,old_fruit_9.png,305,3.0,2.117815400008112,,074,00,2025-05-23_14h50.35.857,Surprise recog test,2023.1.3,59.819452917354916,
305,0,305,0,,,,,,,,,,,,,,,,,,,,,,,,,,,,,,,,,,1805.3334036000306,1806.354458500049,1803.5778038999997,1803.5778038999997,1803.5778038999997,1803.5778038999997,,old_fruit_15.png,306,2.0,1.749894700013101,,074,00,2025-05-23_14h50.35.857,Surprise recog test,2023.1.3,59.819452917354916,
306,0,306,0,,,,,,,,,,,,,,,,,,,,,,,,,,,,,,,,,,1807.4173486999935,1808.4448320000665,1806.354458500049,1806.354458500049,1806.354458500049,1806.354458500049,,new_sceneIn_27.png,307,4.0,1.0643623999785632,,074,00,2025-05-23_14h50.35.857,Surprise recog test,2023.1.3,59.819452917354916,
307,0,307,0,,,,,,,,,,,,,,,,,,,,,,,,,,,,,,,,,,1809.992745100055,1811.0072697000578,1808.4448320000665,1808.4448320000665,1808.4448320000665,1808.4448320000665,,new_fruit_8.png,308,4.0,1.5443421000381932,,074,00,2025-05-23_14h50.35.857,Surprise recog test,2023.1.3,59.819452917354916,
308,0,308,0,,,,,,,,,,,,,,,,,,,,,,,,,,,,,,,,,,1811.850471300073,1812.8829388000304,1811.0072697000578,1811.0072697000578,1811.0072697000578,1811.0072697000578,,new_sceneIn_9.png,309,4.0,0.8437392000341788,,074,00,2025-05-23_14h50.35.857,Surprise recog test,2023.1.3,59.819452917354916,
309,0,309,0,,,,,,,,,,,,,,,,,,,,,,,,,,,,,,,,,,1813.4576966000022,1814.4765474000014,1812.8829388000304,1812.8829388000304,1812.8829388000304,1812.8829388000304,,new_sceneOut_37.png,310,4.0,0.5758921999949962,,074,00,2025-05-23_14h50.35.857,Surprise recog test,2023.1.3,59.819452917354916,
310,0,310,0,,,,,,,,,,,,,,,,,,,,,,,,,,,,,,,,,,1815.3039080000017,1816.3253288000124,1814.4765474000014,1814.4765474000014,1814.4765474000014,1814.4765474000014,,new_sceneOut_9.png,311,4.0,0.8285002000629902,,074,00,2025-05-23_14h50.35.857,Surprise recog test,2023.1.3,59.819452917354916,
311,0,311,0,,,,,,,,,,,,,,,,,,,,,,,,,,,,,,,,,,1816.9872099000495,1818.0185942000244,1816.3253288000124,1816.3253288000124,1816.3253288000124,1816.3253288000124,,new_stationery_47.png,312,4.0,0.6622537999646738,,074,00,2025-05-23_14h50.35.857,Surprise recog test,2023.1.3,59.819452917354916,
312,0,312,0,,,,,,,,,,,,,,,,,,,,,,,,,,,,,,,,,,1818.6392289000796,1819.6718210000545,1818.0185942000244,1818.0185942000244,1818.0185942000244,1818.0185942000244,,new_stationery_31.png,313,4.0,0.6225329000735655,,074,00,2025-05-23_14h50.35.857,Surprise recog test,2023.1.3,59.819452917354916,
313,0,313,0,,,,,,,,,,,,,,,,,,,,,,,,,,,,,,,,,,1820.608227299992,1821.6339939000318,1819.6718210000545,1819.6718210000545,1819.6718210000545,1819.6718210000545,,old_sceneIn_38.png,314,4.0,0.9393257000483572,,074,00,2025-05-23_14h50.35.857,Surprise recog test,2023.1.3,59.819452917354916,
314,0,314,0,,,,,,,,,,,,,,,,,,,,,,,,,,,,,,,,,,1823.187140700058,1824.209022999974,1821.6339939000318,1821.6339939000318,1821.6339939000318,1821.6339939000318,,new_fruit_17.png,315,2.0,1.5530685000121593,,074,00,2025-05-23_14h50.35.857,Surprise recog test,2023.1.3,59.819452917354916,
315,0,315,0,,,,,,,,,,,,,,,,,,,,,,,,,,,,,,,,,,1825.1548845000798,1826.176480700029,1824.209022999974,1824.209022999974,1824.209022999974,1824.209022999974,,new_stationery_40.png,316,4.0,0.9478978000115603,,074,00,2025-05-23_14h50.35.857,Surprise recog test,2023.1.3,59.819452917354916,
316,0,316,0,,,,,,,,,,,,,,,,,,,,,,,,,,,,,,,,,,1827.6740783000132,1828.6940076000756,1826.176480700029,1826.176480700029,1826.176480700029,1826.176480700029,,new_fruit_35.png,317,4.0,1.494676599977538,,074,00,2025-05-23_14h50.35.857,Surprise recog test,2023.1.3,59.819452917354916,
317,0,317,0,,,,,,,,,,,,,,,,,,,,,,,,,,,,,,,,,,1830.7099421999883,1831.721086799982,1828.6940076000756,1828.6940076000756,1828.6940076000756,1828.6940076000756,,old_fruit_14.png,318,1.0,2.011510099982843,,074,00,2025-05-23_14h50.35.857,Surprise recog test,2023.1.3,59.819452917354916,
318,0,318,0,,,,,,,,,,,,,,,,,,,,,,,,,,,,,,,,,,1832.9754714000737,1833.9921199000673,1831.721086799982,1831.721086799982,1831.721086799982,1831.721086799982,,old_stationery_16.png,319,4.0,1.2547854000004008,,074,00,2025-05-23_14h50.35.857,Surprise recog test,2023.1.3,59.819452917354916,
319,0,319,0,,,,,,,,,,,,,,,,,,,,,,,,,,,,,,,,,,1834.602610800066,1835.6318998000352,1833.9921199000673,1833.9921199000673,1833.9921199000673,1833.9921199000673,,old_sceneIn_43.png,320,4.0,0.6124732999596745,,074,00,2025-05-23_14h50.35.857,Surprise recog test,2023.1.3,59.819452917354916,
320,0,320,0,,,,,,,,,,,,,,,,,,,,,,,,,,,,,,,,,,1837.6180945000378,,1835.6318998000352,1835.6318998000352,1835.6318998000352,1835.6318998000352,,old_sceneOut_17.png,321,4.0,1.9874351000180468,,074,00,2025-05-23_14h50.35.857,Surprise recog test,2023.1.3,59.819452917354916,
321,0,321,0,,,,,,,,,,,,,,,,,,,,,,,,,,,,,,,,,,1839.2892504000338,1840.3237315000733,1838.6528641000623,1838.6528641000623,1838.6528641000623,1838.6528641000623,,old_sceneOut_14.png,322,4.0,0.6388953999849036,,074,00,2025-05-23_14h50.35.857,Surprise recog test,2023.1.3,59.819452917354916,
322,0,322,0,,,,,,,,,,,,,,,,,,,,,,,,,,,,,,,,,,1842.2633113000775,1843.281612000079,1840.3237315000733,1840.3237315000733,1840.3237315000733,1840.3237315000733,,old_fruit_35.png,323,3.0,1.9424254999030381,,074,00,2025-05-23_14h50.35.857,Surprise recog test,2023.1.3,59.819452917354916,
323,0,323,0,,,,,,,,,,,,,,,,,,,,,,,,,,,,,,,,,,1844.1833589000162,1845.208673599991,1843.281612000079,1843.281612000079,1843.281612000079,1843.281612000079,,old_stationery_27.png,324,4.0,0.9014049000106752,,074,00,2025-05-23_14h50.35.857,Surprise recog test,2023.1.3,59.819452917354916,
324,0,324,0,,,,,,,,,,,,,,,,,,,,,,,,,,,,,,,,,,1847.0879033000674,1848.1082401999738,1845.208673599991,1845.208673599991,1845.208673599991,1845.208673599991,,old_sceneIn_29.png,325,4.0,1.880797400022857,,074,00,2025-05-23_14h50.35.857,Surprise recog test,2023.1.3,59.819452917354916,
325,0,325,0,,,,,,,,,,,,,,,,,,,,,,,,,,,,,,,,,,1850.484968499979,1851.5029509000015,1848.1082401999738,1848.1082401999738,1848.1082401999738,1848.1082401999738,,new_sceneIn_44.png,326,4.0,2.377485700068064,,074,00,2025-05-23_14h50.35.857,Surprise recog test,2023.1.3,59.819452917354916,
326,0,326,0,,,,,,,,,,,,,,,,,,,,,,,,,,,,,,,,,,1853.595243900083,1854.6145124000032,1851.5029509000015,1851.5029509000015,1851.5029509000015,1851.5029509000015,,old_sceneIn_26.png,327,5.0,2.0891822000266984,,074,00,2025-05-23_14h50.35.857,Surprise recog test,2023.1.3,59.819452917354916,
327,0,327,0,,,,,,,,,,,,,,,,,,,,,,,,,,,,,,,,,,1857.5937274000607,1858.621287100017,1854.6145124000032,1854.6145124000032,1854.6145124000032,1854.6145124000032,,new_stationery_21.png,328,4.0,2.9791516999248415,,074,00,2025-05-23_14h50.35.857,Surprise recog test,2023.1.3,59.819452917354916,
328,0,328,0,,,,,,,,,,,,,,,,,,,,,,,,,,,,,,,,,,1859.301095200004,1860.3137450000504,1858.621287100017,1858.621287100017,1858.621287100017,1858.621287100017,,new_sceneOut_5.png,329,4.0,0.6832842999137938,,074,00,2025-05-23_14h50.35.857,Surprise recog test,2023.1.3,59.819452917354916,
329,0,329,0,,,,,,,,,,,,,,,,,,,,,,,,,,,,,,,,,,1862.1655840000603,1863.1764899999835,1860.3137450000504,1860.3137450000504,1860.3137450000504,1860.3137450000504,,new_sceneIn_31.png,330,4.0,1.8523849999764934,,074,00,2025-05-23_14h50.35.857,Surprise recog test,2023.1.3,59.819452917354916,
330,0,330,0,,,,,,,,,,,,,,,,,,,,,,,,,,,,,,,,,,1863.9824095000513,1865.0072764999932,1863.1764899999835,1863.1764899999835,1863.1764899999835,1863.1764899999835,,old_sceneOut_38.png,331,4.0,0.7988419999601319,,074,00,2025-05-23_14h50.35.857,Surprise recog test,2023.1.3,59.819452917354916,
331,0,331,0,,,,,,,,,,,,,,,,,,,,,,,,,,,,,,,,,,1866.123799800058,1867.1428146000253,1865.0072764999932,1865.0072764999932,1865.0072764999932,1865.0072764999932,,new_fruit_14.png,332,4.0,1.1185089000500739,,074,00,2025-05-23_14h50.35.857,Surprise recog test,2023.1.3,59.819452917354916,
332,0,332,0,,,,,,,,,,,,,,,,,,,,,,,,,,,,,,,,,,1867.8433357999893,,1867.1428146000253,1867.1428146000253,1867.1428146000253,1867.1428146000253,,old_stationery_10.png,333,4.0,0.6981589000206441,,074,00,2025-05-23_14h50.35.857,Surprise recog test,2023.1.3,59.819452917354916,
333,0,333,0,,,,,,,,,,,,,,,,,,,,,,,,,,,,,,,,,,1869.476842700038,1870.4962040000828,1868.8759682000382,1868.8759682000382,1868.8759682000382,1868.8759682000382,,old_stationery_15.png,334,4.0,0.6034168999176472,,074,00,2025-05-23_14h50.35.857,Surprise recog test,2023.1.3,59.819452917354916,
334,0,334,0,,,,,,,,,,,,,,,,,,,,,,,,,,,,,,,,,,1871.110471800086,1872.1260532999877,1870.4962040000828,1870.4962040000828,1870.4962040000828,1870.4962040000828,,new_sceneIn_49.png,335,4.0,0.6166942999698222,,074,00,2025-05-23_14h50.35.857,Surprise recog test,2023.1.3,59.819452917354916,
335,0,335,0,,,,,,,,,,,,,,,,,,,,,,,,,,,,,,,,,,1873.6501231000293,,1872.1260532999877,1872.1260532999877,1872.1260532999877,1872.1260532999877,,old_fruit_39.png,336,4.0,1.5248885001055896,,074,00,2025-05-23_14h50.35.857,Surprise recog test,2023.1.3,59.819452917354916,
336,0,336,0,,,,,,,,,,,,,,,,,,,,,,,,,,,,,,,,,,1875.5721118000802,1876.6013769999845,1874.6698782000458,1874.6698782000458,1874.6698782000458,1874.6698782000458,,new_fruit_24.png,337,4.0,0.8968019000021741,,074,00,2025-05-23_14h50.35.857,Surprise recog test,2023.1.3,59.819452917354916,
337,0,337,0,,,,,,,,,,,,,,,,,,,,,,,,,,,,,,,,,,1878.5818848999916,1879.609420599998,1876.6013769999845,1876.6013769999845,1876.6013769999845,1876.6013769999845,,old_fruit_19.png,338,4.0,1.9815896999789402,,074,00,2025-05-23_14h50.35.857,Surprise recog test,2023.1.3,59.819452917354916,
338,0,338,0,,,,,,,,,,,,,,,,,,,,,,,,,,,,,,,,,,1880.6416464999784,1881.6693421000382,1879.609420599998,1879.609420599998,1879.609420599998,1879.609420599998,,new_stationery_25.png,339,4.0,1.0344017000170425,,074,00,2025-05-23_14h50.35.857,Surprise recog test,2023.1.3,59.819452917354916,
339,0,339,0,,,,,,,,,,,,,,,,,,,,,,,,,,,,,,,,,,1882.183816500008,1883.1940552999731,1881.6693421000382,1881.6693421000382,1881.6693421000382,1881.6693421000382,,new_sceneOut_46.png,340,4.0,0.5124790000263602,,074,00,2025-05-23_14h50.35.857,Surprise recog test,2023.1.3,59.819452917354916,
340,0,340,0,,,,,,,,,,,,,,,,,,,,,,,,,,,,,,,,,,1883.7882548000198,1884.8075862000696,1883.1940552999731,1883.1940552999731,1883.1940552999731,1883.1940552999731,,new_sceneOut_25.png,341,4.0,0.5888387000886723,,074,00,2025-05-23_14h50.35.857,Surprise recog test,2023.1.3,59.819452917354916,
341,0,341,0,,,,,,,,,,,,,,,,,,,,,,,,,,,,,,,,,,1885.3515361000318,1886.3772466999944,1884.8075862000696,1884.8075862000696,1884.8075862000696,1884.8075862000696,,new_sceneOut_39.png,342,4.0,0.5463416000129655,,074,00,2025-05-23_14h50.35.857,Surprise recog test,2023.1.3,59.819452917354916,
342,0,342,0,,,,,,,,,,,,,,,,,,,,,,,,,,,,,,,,,,1887.2955126999877,1888.3292486000573,1886.3772466999944,1886.3772466999944,1886.3772466999944,1886.3772466999944,,old_fruit_27.png,343,4.0,0.921441699960269,,074,00,2025-05-23_14h50.35.857,Surprise recog test,2023.1.3,59.819452917354916,
343,0,343,0,,,,,,,,,,,,,,,,,,,,,,,,,,,,,,,,,,1888.850658899988,1889.8831585000735,1888.3292486000573,1888.3292486000573,1888.3292486000573,1888.3292486000573,,old_sceneOut_31.png,344,4.0,0.5240564000559971,,074,00,2025-05-23_14h50.35.857,Surprise recog test,2023.1.3,59.819452917354916,
344,0,344,0,,,,,,,,,,,,,,,,,,,,,,,,,,,,,,,,,,1890.48120020004,1891.4997219999786,1889.8831585000735,1889.8831585000735,1889.8831585000735,1889.8831585000735,,old_stationery_45.png,345,4.0,0.600979599985294,,074,00,2025-05-23_14h50.35.857,Surprise recog test,2023.1.3,59.819452917354916,
345,0,345,0,,,,,,,,,,,,,,,,,,,,,,,,,,,,,,,,,,1892.1893360000104,1893.2027239999734,1891.4997219999786,1891.4997219999786,1891.4997219999786,1891.4997219999786,,old_sceneIn_27.png,346,4.0,0.6875723999692127,,074,00,2025-05-23_14h50.35.857,Surprise recog test,2023.1.3,59.819452917354916,
346,0,346,0,,,,,,,,,,,,,,,,,,,,,,,,,,,,,,,,,,1893.6790523000527,1894.6954994000262,1893.2027239999734,1893.2027239999734,1893.2027239999734,1893.2027239999734,,new_sceneOut_44.png,347,4.0,0.46883589995559305,,074,00,2025-05-23_14h50.35.857,Surprise recog test,2023.1.3,59.819452917354916,
