trial_loop.thisRepN,trial_loop.thisTrialN,trial_loop.thisN,trial_loop.thisIndex,VAS_slider.started,VAS_text.started,VAS_notstressed_text.started,VAS_stressed_text.started,continue_input.started,continue_text.started,label0.started,label10.started,label20.started,label30.started,label40.started,label50.started,label60.started,label70.started,label80.started,label90.started,label100.started,VAS_slider.response,VAS_slider.rt,VAS_slider.history,Answer_VAS,continue_input.keys,continue_input.rt,continue_input.duration,instruction_text.started,continue_text_2.started,continue_input_2.started,continue_input_2.keys,continue_input_2.rt,continue_input_2.duration,example_text.started,example_slider_2.started,example_image.started,example_slider_2.response,example_slider_2.rt,fixcross.started,fixcross.stopped,front_square.started,stim_images.started,trial_inst_images.started,slider_images.started,thisImg,trial_count,slider_images.response,slider_images.rt,slider_images.stopped,outro.started,participant,condition,date,expName,psychopyVersion,frameRate,
,,,,45.641313600121066,45.641313600121066,45.641313600121066,45.641313600121066,45.641313600121066,45.641313600121066,45.641313600121066,45.641313600121066,45.641313600121066,45.641313600121066,45.641313600121066,45.641313600121066,45.641313600121066,45.641313600121066,45.641313600121066,45.641313600121066,45.641313600121066,None,None,[],0.9599999999999977,space,11.035291999811307,None,,,,,,,,,,,,,,,,,,,,,,,,076,11,2025-06-05_14h31.24.001,Surprise recog test,2023.1.3,60.01997465991875,
,,,,,,,,,,,,,,,,,,,,,,,,,,,,56.782242899993435,56.782242899993435,56.782242899993435,space,24.774241299834102,None,,,,,,,,,,,,,,,,,,076,11,2025-06-05_14h31.24.001,Surprise recog test,2023.1.3,60.01997465991875,
0,0,0,0,,,,,,,,,,,,,,,,,,,,,,,,,,,,,,,81.66708609997295,81.66708609997295,81.66708609997295,2.0,3.1146508001256734,89.31321860011667,90.31936999992467,85.74865620001219,85.74865620001219,85.74865620001219,85.74865620001219,old_sceneIn_15.png,1,4.0,3.56606990005821,,,076,11,2025-06-05_14h31.24.001,Surprise recog test,2023.1.3,60.01997465991875,
1,0,1,0,,,,,,,,,,,,,,,,,,,,,,,,,,,,,,,,,,,,94.22541740001179,95.25697820005007,90.31936999992467,90.31936999992467,90.31936999992467,90.31936999992467,old_sceneIn_37.png,2,2.0,3.9026911000255495,,,076,11,2025-06-05_14h31.24.001,Surprise recog test,2023.1.3,60.01997465991875,
2,0,2,0,,,,,,,,,,,,,,,,,,,,,,,,,,,,,,,,,,,,97.08665920002386,98.10612330003642,95.25697820005007,95.25697820005007,95.25697820005007,95.25697820005007,new_stationery_14.png,3,5.0,1.8317139998544008,,,076,11,2025-06-05_14h31.24.001,Surprise recog test,2023.1.3,60.01997465991875,
3,0,3,0,,,,,,,,,,,,,,,,,,,,,,,,,,,,,,,,,,,,100.10395639995113,101.12562109995633,98.10612330003642,98.10612330003642,98.10612330003642,98.10612330003642,old_stationery_45.png,4,1.0,1.9981365997809917,,,076,11,2025-06-05_14h31.24.001,Surprise recog test,2023.1.3,60.01997465991875,
4,0,4,0,,,,,,,,,,,,,,,,,,,,,,,,,,,,,,,,,,,,102.82518950011581,103.84061409998685,101.12562109995633,101.12562109995633,101.12562109995633,101.12562109995633,old_stationery_21.png,5,1.0,1.6987012999597937,,,076,11,2025-06-05_14h31.24.001,Surprise recog test,2023.1.3,60.01997465991875,
5,0,5,0,,,,,,,,,,,,,,,,,,,,,,,,,,,,,,,,,,,,106.53811959992163,107.56539679993875,103.84061409998685,103.84061409998685,103.84061409998685,103.84061409998685,new_sceneOut_23.png,6,5.0,2.6972546000033617,,,076,11,2025-06-05_14h31.24.001,Surprise recog test,2023.1.3,60.01997465991875,
6,0,6,0,,,,,,,,,,,,,,,,,,,,,,,,,,,,,,,,,,,,110.72139719990082,111.74424859997816,107.56539679993875,107.56539679993875,107.56539679993875,107.56539679993875,old_sceneIn_27.png,7,5.0,3.159306399989873,,,076,11,2025-06-05_14h31.24.001,Surprise recog test,2023.1.3,60.01997465991875,
7,0,7,0,,,,,,,,,,,,,,,,,,,,,,,,,,,,,,,,,,,,114.96460400009528,115.98075910005718,111.74424859997816,111.74424859997816,111.74424859997816,111.74424859997816,new_sceneOut_8.png,8,5.0,3.2185547999106348,,,076,11,2025-06-05_14h31.24.001,Surprise recog test,2023.1.3,60.01997465991875,
8,0,8,0,,,,,,,,,,,,,,,,,,,,,,,,,,,,,,,,,,,,118.31107489997521,119.33699840004556,115.98075910005718,115.98075910005718,115.98075910005718,115.98075910005718,new_stationery_33.png,9,5.0,2.3287581999320537,,,076,11,2025-06-05_14h31.24.001,Surprise recog test,2023.1.3,60.01997465991875,
9,0,9,0,,,,,,,,,,,,,,,,,,,,,,,,,,,,,,,,,,,,123.73561049997807,124.75449760002084,119.33699840004556,119.33699840004556,119.33699840004556,119.33699840004556,new_stationery_15.png,10,2.0,4.398276000050828,,,076,11,2025-06-05_14h31.24.001,Surprise recog test,2023.1.3,60.01997465991875,
10,0,10,0,,,,,,,,,,,,,,,,,,,,,,,,,,,,,,,,,,,,127.14474219991826,128.16839629993774,124.75449760002084,124.75449760002084,124.75449760002084,124.75449760002084,old_fruit_48.png,11,1.0,2.388935799943283,,,076,11,2025-06-05_14h31.24.001,Surprise recog test,2023.1.3,60.01997465991875,
11,0,11,0,,,,,,,,,,,,,,,,,,,,,,,,,,,,,,,,,,,,130.70667139999568,131.7258069999516,128.16839629993774,128.16839629993774,128.16839629993774,128.16839629993774,new_sceneIn_21.png,12,5.0,2.5420892001129687,,,076,11,2025-06-05_14h31.24.001,Surprise recog test,2023.1.3,60.01997465991875,
12,0,12,0,,,,,,,,,,,,,,,,,,,,,,,,,,,,,,,,,,,,135.1251083998941,136.15044740005396,131.7258069999516,131.7258069999516,131.7258069999516,131.7258069999516,new_fruit_10.png,13,5.0,3.3996427000965923,,,076,11,2025-06-05_14h31.24.001,Surprise recog test,2023.1.3,60.01997465991875,
13,0,13,0,,,,,,,,,,,,,,,,,,,,,,,,,,,,,,,,,,,,138.4869852999691,139.49993339995854,136.15044740005396,136.15044740005396,136.15044740005396,136.15044740005396,new_sceneOut_44.png,14,4.0,2.338432600023225,,,076,11,2025-06-05_14h31.24.001,Surprise recog test,2023.1.3,60.01997465991875,
14,0,14,0,,,,,,,,,,,,,,,,,,,,,,,,,,,,,,,,,,,,143.74439919996075,,139.49993339995854,139.49993339995854,139.49993339995854,139.49993339995854,new_sceneOut_1.png,15,4.0,4.244151399936527,,,076,11,2025-06-05_14h31.24.001,Surprise recog test,2023.1.3,60.01997465991875,
15,0,15,0,,,,,,,,,,,,,,,,,,,,,,,,,,,,,,,,,,,,148.18675830005668,149.2185204999987,144.77466259989887,144.77466259989887,144.77466259989887,144.77466259989887,new_fruit_5.png,16,2.0,3.414080699905753,,,076,11,2025-06-05_14h31.24.001,Surprise recog test,2023.1.3,60.01997465991875,
16,0,16,0,,,,,,,,,,,,,,,,,,,,,,,,,,,,,,,,,,,,151.30909779993817,152.32915799994953,149.2185204999987,149.2185204999987,149.2185204999987,149.2185204999987,old_fruit_33.png,17,1.0,2.092576799914241,,,076,11,2025-06-05_14h31.24.001,Surprise recog test,2023.1.3,60.01997465991875,
17,0,17,0,,,,,,,,,,,,,,,,,,,,,,,,,,,,,,,,,,,,154.71598539990373,155.73761310009286,152.32915799994953,152.32915799994953,152.32915799994953,152.32915799994953,old_stationery_30.png,18,3.0,2.38592189992778,,,076,11,2025-06-05_14h31.24.001,Surprise recog test,2023.1.3,60.01997465991875,
18,0,18,0,,,,,,,,,,,,,,,,,,,,,,,,,,,,,,,,,,,,158.53772810008377,159.55610790010542,155.73761310009286,155.73761310009286,155.73761310009286,155.73761310009286,new_stationery_16.png,19,4.0,2.800993600161746,,,076,11,2025-06-05_14h31.24.001,Surprise recog test,2023.1.3,60.01997465991875,
19,0,19,0,,,,,,,,,,,,,,,,,,,,,,,,,,,,,,,,,,,,162.34693389991298,163.36558609991334,159.55610790010542,159.55610790010542,159.55610790010542,159.55610790010542,new_sceneOut_47.png,20,5.0,2.792520400136709,,,076,11,2025-06-05_14h31.24.001,Surprise recog test,2023.1.3,60.01997465991875,
20,0,20,0,,,,,,,,,,,,,,,,,,,,,,,,,,,,,,,,,,,,165.89284759992734,166.90201020007953,163.36558609991334,163.36558609991334,163.36558609991334,163.36558609991334,new_stationery_46.png,21,5.0,2.521194300148636,,,076,11,2025-06-05_14h31.24.001,Surprise recog test,2023.1.3,60.01997465991875,
21,0,21,0,,,,,,,,,,,,,,,,,,,,,,,,,,,,,,,,,,,,170.25282020005397,171.26901079993695,166.90201020007953,166.90201020007953,166.90201020007953,166.90201020007953,old_fruit_7.png,22,2.0,3.3486292001325637,,,076,11,2025-06-05_14h31.24.001,Surprise recog test,2023.1.3,60.01997465991875,
22,0,22,0,,,,,,,,,,,,,,,,,,,,,,,,,,,,,,,,,,,,173.5811727999244,174.59895280003548,171.26901079993695,171.26901079993695,171.26901079993695,171.26901079993695,old_fruit_31.png,23,1.0,2.3083172000478953,,,076,11,2025-06-05_14h31.24.001,Surprise recog test,2023.1.3,60.01997465991875,
23,0,23,0,,,,,,,,,,,,,,,,,,,,,,,,,,,,,,,,,,,,176.53653430007398,177.5533398000989,174.59895280003548,174.59895280003548,174.59895280003548,174.59895280003548,old_fruit_30.png,24,1.0,1.9351397999562323,,,076,11,2025-06-05_14h31.24.001,Surprise recog test,2023.1.3,60.01997465991875,
24,0,24,0,,,,,,,,,,,,,,,,,,,,,,,,,,,,,,,,,,,,181.08714869990945,182.09603190002963,177.5533398000989,177.5533398000989,177.5533398000989,177.5533398000989,old_sceneIn_34.png,25,2.0,3.5350105999968946,,,076,11,2025-06-05_14h31.24.001,Surprise recog test,2023.1.3,60.01997465991875,
25,0,25,0,,,,,,,,,,,,,,,,,,,,,,,,,,,,,,,,,,,,183.7176010000985,184.7402449999936,182.09603190002963,182.09603190002963,182.09603190002963,182.09603190002963,old_fruit_13.png,26,1.0,1.6178111999761313,,,076,11,2025-06-05_14h31.24.001,Surprise recog test,2023.1.3,60.01997465991875,
26,0,26,0,,,,,,,,,,,,,,,,,,,,,,,,,,,,,,,,,,,,186.8777211001143,187.89608519989997,184.7402449999936,184.7402449999936,184.7402449999936,184.7402449999936,new_sceneIn_44.png,27,5.0,2.1393678998574615,,,076,11,2025-06-05_14h31.24.001,Surprise recog test,2023.1.3,60.01997465991875,
27,0,27,0,,,,,,,,,,,,,,,,,,,,,,,,,,,,,,,,,,,,188.97192210005596,189.99931599991396,187.89608519989997,187.89608519989997,187.89608519989997,187.89608519989997,new_sceneIn_42.png,28,5.0,1.075999499997124,,,076,11,2025-06-05_14h31.24.001,Surprise recog test,2023.1.3,60.01997465991875,
28,0,28,0,,,,,,,,,,,,,,,,,,,,,,,,,,,,,,,,,,,,193.22355289990082,194.24489840003662,189.99931599991396,189.99931599991396,189.99931599991396,189.99931599991396,new_fruit_33.png,29,4.0,3.2237780999857932,,,076,11,2025-06-05_14h31.24.001,Surprise recog test,2023.1.3,60.01997465991875,
29,0,29,0,,,,,,,,,,,,,,,,,,,,,,,,,,,,,,,,,,,,196.0305182999,197.04990199999884,194.24489840003662,194.24489840003662,194.24489840003662,194.24489840003662,old_sceneOut_31.png,30,4.0,1.7820800999179482,,,076,11,2025-06-05_14h31.24.001,Surprise recog test,2023.1.3,60.01997465991875,
30,0,30,0,,,,,,,,,,,,,,,,,,,,,,,,,,,,,,,,,,,,198.66585180000402,199.68843459989876,197.04990199999884,197.04990199999884,197.04990199999884,197.04990199999884,old_fruit_35.png,31,1.0,1.6150390000548214,,,076,11,2025-06-05_14h31.24.001,Surprise recog test,2023.1.3,60.01997465991875,
31,0,31,0,,,,,,,,,,,,,,,,,,,,,,,,,,,,,,,,,,,,202.92441689991392,203.94306510011666,199.68843459989876,199.68843459989876,199.68843459989876,199.68843459989876,new_sceneIn_49.png,32,4.0,3.23161490005441,,,076,11,2025-06-05_14h31.24.001,Surprise recog test,2023.1.3,60.01997465991875,
32,0,32,0,,,,,,,,,,,,,,,,,,,,,,,,,,,,,,,,,,,,206.13467360008508,207.16484660003334,203.94306510011666,203.94306510011666,203.94306510011666,203.94306510011666,new_sceneOut_41.png,33,4.0,2.1929538999684155,,,076,11,2025-06-05_14h31.24.001,Surprise recog test,2023.1.3,60.01997465991875,
33,0,33,0,,,,,,,,,,,,,,,,,,,,,,,,,,,,,,,,,,,,209.42304720007814,210.45294400001876,207.16484660003334,207.16484660003334,207.16484660003334,207.16484660003334,new_sceneIn_46.png,34,4.0,2.2614335000980645,,,076,11,2025-06-05_14h31.24.001,Surprise recog test,2023.1.3,60.01997465991875,
34,0,34,0,,,,,,,,,,,,,,,,,,,,,,,,,,,,,,,,,,,,213.02212650002912,214.05423739994876,210.45294400001876,210.45294400001876,210.45294400001876,210.45294400001876,old_sceneIn_46.png,35,5.0,2.572057999903336,,,076,11,2025-06-05_14h31.24.001,Surprise recog test,2023.1.3,60.01997465991875,
35,0,35,0,,,,,,,,,,,,,,,,,,,,,,,,,,,,,,,,,,,,216.60190939996392,217.6161283000838,214.05423739994876,214.05423739994876,214.05423739994876,214.05423739994876,old_stationery_2.png,36,3.0,2.5500108001288027,,,076,11,2025-06-05_14h31.24.001,Surprise recog test,2023.1.3,60.01997465991875,
36,0,36,0,,,,,,,,,,,,,,,,,,,,,,,,,,,,,,,,,,,,220.2917917999439,,217.6161283000838,217.6161283000838,217.6161283000838,217.6161283000838,new_sceneIn_25.png,37,5.0,2.6740056998096406,,,076,11,2025-06-05_14h31.24.001,Surprise recog test,2023.1.3,60.01997465991875,
37,0,37,0,,,,,,,,,,,,,,,,,,,,,,,,,,,,,,,,,,,,223.96888100006618,224.99508440005593,221.32721229991876,221.32721229991876,221.32721229991876,221.32721229991876,old_sceneOut_13.png,38,5.0,2.645079500041902,,,076,11,2025-06-05_14h31.24.001,Surprise recog test,2023.1.3,60.01997465991875,
38,0,38,0,,,,,,,,,,,,,,,,,,,,,,,,,,,,,,,,,,,,227.1362187000923,228.1527382999193,224.99508440005593,224.99508440005593,224.99508440005593,224.99508440005593,new_stationery_36.png,39,4.0,2.1413311001379043,,,076,11,2025-06-05_14h31.24.001,Surprise recog test,2023.1.3,60.01997465991875,
39,0,39,0,,,,,,,,,,,,,,,,,,,,,,,,,,,,,,,,,,,,230.00536670000292,231.03529289993457,228.1527382999193,228.1527382999193,228.1527382999193,228.1527382999193,new_sceneOut_42.png,40,5.0,1.8487132999580353,,,076,11,2025-06-05_14h31.24.001,Surprise recog test,2023.1.3,60.01997465991875,
40,0,40,0,,,,,,,,,,,,,,,,,,,,,,,,,,,,,,,,,,,,233.28305649990216,234.29996900004335,231.03529289993457,231.03529289993457,231.03529289993457,231.03529289993457,old_sceneOut_23.png,41,5.0,2.249000099953264,,,076,11,2025-06-05_14h31.24.001,Surprise recog test,2023.1.3,60.01997465991875,
41,0,41,0,,,,,,,,,,,,,,,,,,,,,,,,,,,,,,,,,,,,236.7124441000633,237.74356719991192,234.29996900004335,234.29996900004335,234.29996900004335,234.29996900004335,old_sceneOut_2.png,42,5.0,2.4143072001170367,,,076,11,2025-06-05_14h31.24.001,Surprise recog test,2023.1.3,60.01997465991875,
42,0,42,0,,,,,,,,,,,,,,,,,,,,,,,,,,,,,,,,,,,,241.12241229997016,242.13167369994335,237.74356719991192,237.74356719991192,237.74356719991192,237.74356719991192,old_fruit_26.png,43,2.0,3.3790237999055535,,,076,11,2025-06-05_14h31.24.001,Surprise recog test,2023.1.3,60.01997465991875,
43,0,43,0,,,,,,,,,,,,,,,,,,,,,,,,,,,,,,,,,,,,244.5445836998988,,242.13167369994335,242.13167369994335,242.13167369994335,242.13167369994335,old_sceneOut_17.png,44,5.0,2.409255899954587,,,076,11,2025-06-05_14h31.24.001,Surprise recog test,2023.1.3,60.01997465991875,
44,0,44,0,,,,,,,,,,,,,,,,,,,,,,,,,,,,,,,,,,,,247.74943679990247,,245.57622930011712,245.57622930011712,245.57622930011712,245.57622930011712,old_stationery_5.png,45,4.0,2.1722091999836266,,,076,11,2025-06-05_14h31.24.001,Surprise recog test,2023.1.3,60.01997465991875,
45,0,45,0,,,,,,,,,,,,,,,,,,,,,,,,,,,,,,,,,,,,250.77154200011864,251.8025583999697,248.78243239992298,248.78243239992298,248.78243239992298,248.78243239992298,old_fruit_5.png,46,1.0,1.9920807001180947,,,076,11,2025-06-05_14h31.24.001,Surprise recog test,2023.1.3,60.01997465991875,
46,0,46,0,,,,,,,,,,,,,,,,,,,,,,,,,,,,,,,,,,,,255.91603769990616,256.9316199000459,251.8025583999697,251.8025583999697,251.8025583999697,251.8025583999697,new_sceneIn_17.png,47,5.0,4.11607880005613,,,076,11,2025-06-05_14h31.24.001,Surprise recog test,2023.1.3,60.01997465991875,
47,0,47,0,,,,,,,,,,,,,,,,,,,,,,,,,,,,,,,,,,,,258.5620160999242,259.5915896000806,256.9316199000459,256.9316199000459,256.9316199000459,256.9316199000459,new_sceneOut_17.png,48,5.0,1.6313887001015246,,,076,11,2025-06-05_14h31.24.001,Surprise recog test,2023.1.3,60.01997465991875,
48,0,48,0,,,,,,,,,,,,,,,,,,,,,,,,,,,,,,,,,,,,261.37854030006565,262.39722779998556,259.5915896000806,259.5915896000806,259.5915896000806,259.5915896000806,old_fruit_27.png,49,2.0,1.7910770999733359,,,076,11,2025-06-05_14h31.24.001,Surprise recog test,2023.1.3,60.01997465991875,
49,0,49,0,,,,,,,,,,,,,,,,,,,,,,,,,,,,,,,,,,,,264.61645899992436,265.6445253000129,262.39722779998556,262.39722779998556,262.39722779998556,262.39722779998556,new_sceneIn_31.png,50,4.0,2.215531799942255,,,076,11,2025-06-05_14h31.24.001,Surprise recog test,2023.1.3,60.01997465991875,
50,0,50,0,,,,,,,,,,,,,,,,,,,,,,,,,,,,,,,,,,,,267.85578120010905,268.87927139992826,265.6445253000129,265.6445253000129,265.6445253000129,265.6445253000129,old_stationery_13.png,51,1.0,2.2116171000525355,,,076,11,2025-06-05_14h31.24.001,Surprise recog test,2023.1.3,60.01997465991875,
51,0,51,0,,,,,,,,,,,,,,,,,,,,,,,,,,,,,,,,,,,,271.52903979993425,272.5438848999329,268.87927139992826,268.87927139992826,268.87927139992826,268.87927139992826,new_fruit_48.png,52,3.0,2.6485802999231964,,,076,11,2025-06-05_14h31.24.001,Surprise recog test,2023.1.3,60.01997465991875,
52,0,52,0,,,,,,,,,,,,,,,,,,,,,,,,,,,,,,,,,,,,274.18672790005803,,272.5438848999329,272.5438848999329,272.5438848999329,272.5438848999329,new_stationery_18.png,53,5.0,1.6432644999586046,,,076,11,2025-06-05_14h31.24.001,Surprise recog test,2023.1.3,60.01997465991875,
53,0,53,0,,,,,,,,,,,,,,,,,,,,,,,,,,,,,,,,,,,,277.85322079993784,278.86914160009474,275.21571290004067,275.21571290004067,275.21571290004067,275.21571290004067,old_fruit_6.png,54,2.0,2.6395674999803305,,,076,11,2025-06-05_14h31.24.001,Surprise recog test,2023.1.3,60.01997465991875,
54,0,54,0,,,,,,,,,,,,,,,,,,,,,,,,,,,,,,,,,,,,281.2784458999522,282.3015805000905,278.86914160009474,278.86914160009474,278.86914160009474,278.86914160009474,old_sceneIn_22.png,55,5.0,2.4093581999186426,,,076,11,2025-06-05_14h31.24.001,Surprise recog test,2023.1.3,60.01997465991875,
55,0,55,0,,,,,,,,,,,,,,,,,,,,,,,,,,,,,,,,,,,,284.2052221999038,285.22759680007584,282.3015805000905,282.3015805000905,282.3015805000905,282.3015805000905,new_stationery_21.png,56,5.0,1.9013066999614239,,,076,11,2025-06-05_14h31.24.001,Surprise recog test,2023.1.3,60.01997465991875,
56,0,56,0,,,,,,,,,,,,,,,,,,,,,,,,,,,,,,,,,,,,287.8477322999388,,285.22759680007584,285.22759680007584,285.22759680007584,285.22759680007584,old_stationery_10.png,57,3.0,2.620202299905941,,,076,11,2025-06-05_14h31.24.001,Surprise recog test,2023.1.3,60.01997465991875,
57,0,57,0,,,,,,,,,,,,,,,,,,,,,,,,,,,,,,,,,,,,290.6224946998991,291.65288820001297,288.885157499928,288.885157499928,288.885157499928,288.885157499928,new_sceneIn_16.png,58,5.0,1.7408916999120265,,,076,11,2025-06-05_14h31.24.001,Surprise recog test,2023.1.3,60.01997465991875,
58,0,58,0,,,,,,,,,,,,,,,,,,,,,,,,,,,,,,,,,,,,293.2475541001186,294.2572200000286,291.65288820001297,291.65288820001297,291.65288820001297,291.65288820001297,new_sceneOut_32.png,59,5.0,1.5943453998770565,,,076,11,2025-06-05_14h31.24.001,Surprise recog test,2023.1.3,60.01997465991875,
59,0,59,0,,,,,,,,,,,,,,,,,,,,,,,,,,,,,,,,,,,,295.6703455001116,,294.2572200000286,294.2572200000286,294.2572200000286,294.2572200000286,old_sceneOut_28.png,60,5.0,1.4080610999371856,,,076,11,2025-06-05_14h31.24.001,Surprise recog test,2023.1.3,60.01997465991875,
60,0,60,0,,,,,,,,,,,,,,,,,,,,,,,,,,,,,,,,,,,,298.7250449000858,299.7462160999421,296.69203069992363,296.69203069992363,296.69203069992363,296.69203069992363,old_sceneIn_33.png,61,5.0,2.028526100097224,,,076,11,2025-06-05_14h31.24.001,Surprise recog test,2023.1.3,60.01997465991875,
61,0,61,0,,,,,,,,,,,,,,,,,,,,,,,,,,,,,,,,,,,,301.937055000104,302.9625558999833,299.7462160999421,299.7462160999421,299.7462160999421,299.7462160999421,new_fruit_50.png,62,2.0,2.187873100163415,,,076,11,2025-06-05_14h31.24.001,Surprise recog test,2023.1.3,60.01997465991875,
62,0,62,0,,,,,,,,,,,,,,,,,,,,,,,,,,,,,,,,,,,,305.7264497000724,306.73459300003015,302.9625558999833,302.9625558999833,302.9625558999833,302.9625558999833,new_stationery_22.png,63,3.0,2.7675075998995453,,,076,11,2025-06-05_14h31.24.001,Surprise recog test,2023.1.3,60.01997465991875,
63,0,63,0,,,,,,,,,,,,,,,,,,,,,,,,,,,,,,,,,,,,308.8547267001122,309.88116299989633,306.73459300003015,306.73459300003015,306.73459300003015,306.73459300003015,old_fruit_32.png,64,1.0,2.1153735001571476,,,076,11,2025-06-05_14h31.24.001,Surprise recog test,2023.1.3,60.01997465991875,
64,0,64,0,,,,,,,,,,,,,,,,,,,,,,,,,,,,,,,,,,,,313.79133170004934,314.80727460002527,309.88116299989633,309.88116299989633,309.88116299989633,309.88116299989633,old_fruit_34.png,65,4.0,3.912583500146866,,,076,11,2025-06-05_14h31.24.001,Surprise recog test,2023.1.3,60.01997465991875,
65,0,65,0,,,,,,,,,,,,,,,,,,,,,,,,,,,,,,,,,,,,317.9808374000713,318.9960449000355,314.80727460002527,314.80727460002527,314.80727460002527,314.80727460002527,new_fruit_42.png,66,4.0,3.170067499857396,,,076,11,2025-06-05_14h31.24.001,Surprise recog test,2023.1.3,60.01997465991875,
66,0,66,0,,,,,,,,,,,,,,,,,,,,,,,,,,,,,,,,,,,,321.0656848999206,322.0796491999645,318.9960449000355,318.9960449000355,318.9960449000355,318.9960449000355,old_sceneIn_12.png,67,5.0,2.062851600116119,,,076,11,2025-06-05_14h31.24.001,Surprise recog test,2023.1.3,60.01997465991875,
67,0,67,0,,,,,,,,,,,,,,,,,,,,,,,,,,,,,,,,,,,,324.72514869994484,325.74216919997707,322.0796491999645,322.0796491999645,322.0796491999645,322.0796491999645,new_sceneIn_1.png,68,5.0,2.641274099936709,,,076,11,2025-06-05_14h31.24.001,Surprise recog test,2023.1.3,60.01997465991875,
68,0,68,0,,,,,,,,,,,,,,,,,,,,,,,,,,,,,,,,,,,,328.876537400065,329.8864549000282,325.74216919997707,325.74216919997707,325.74216919997707,325.74216919997707,new_fruit_31.png,69,3.0,3.1359872000757605,,,076,11,2025-06-05_14h31.24.001,Surprise recog test,2023.1.3,60.01997465991875,
69,0,69,0,,,,,,,,,,,,,,,,,,,,,,,,,,,,,,,,,,,,334.5031707000453,,329.8864549000282,329.8864549000282,329.8864549000282,329.8864549000282,new_fruit_40.png,70,3.0,4.612861899891868,,,076,11,2025-06-05_14h31.24.001,Surprise recog test,2023.1.3,60.01997465991875,
70,0,70,0,,,,,,,,,,,,,,,,,,,,,,,,,,,,,,,,,,,,337.94621900003403,338.96120949997567,335.52659379993565,335.52659379993565,335.52659379993565,335.52659379993565,new_sceneOut_29.png,71,5.0,2.4149158000946045,,,076,11,2025-06-05_14h31.24.001,Surprise recog test,2023.1.3,60.01997465991875,
71,0,71,0,,,,,,,,,,,,,,,,,,,,,,,,,,,,,,,,,,,,340.5722151999362,341.580110500101,338.96120949997567,338.96120949997567,338.96120949997567,338.96120949997567,old_sceneOut_30.png,72,5.0,1.6008679000660777,,,076,11,2025-06-05_14h31.24.001,Surprise recog test,2023.1.3,60.01997465991875,
72,0,72,0,,,,,,,,,,,,,,,,,,,,,,,,,,,,,,,,,,,,343.4912932999432,344.51009329990484,341.580110500101,341.580110500101,341.580110500101,341.580110500101,old_fruit_1.png,73,1.0,1.9061741998884827,,,076,11,2025-06-05_14h31.24.001,Surprise recog test,2023.1.3,60.01997465991875,
73,0,73,0,,,,,,,,,,,,,,,,,,,,,,,,,,,,,,,,,,,,348.404669099953,349.43198490003124,344.51009329990484,344.51009329990484,344.51009329990484,344.51009329990484,new_sceneIn_23.png,74,2.0,3.895433099940419,,,076,11,2025-06-05_14h31.24.001,Surprise recog test,2023.1.3,60.01997465991875,
74,0,74,0,,,,,,,,,,,,,,,,,,,,,,,,,,,,,,,,,,,,352.7214472000487,353.74087750003673,349.43198490003124,349.43198490003124,349.43198490003124,349.43198490003124,old_sceneIn_5.png,75,5.0,3.2902470000553876,,,076,11,2025-06-05_14h31.24.001,Surprise recog test,2023.1.3,60.01997465991875,
75,0,75,0,,,,,,,,,,,,,,,,,,,,,,,,,,,,,,,,,,,,355.614586800104,356.6250839999411,353.74087750003673,353.74087750003673,353.74087750003673,353.74087750003673,old_sceneIn_50.png,76,5.0,1.8685812999028713,,,076,11,2025-06-05_14h31.24.001,Surprise recog test,2023.1.3,60.01997465991875,
76,0,76,0,,,,,,,,,,,,,,,,,,,,,,,,,,,,,,,,,,,,358.30896509997547,359.33606179989874,356.6250839999411,356.6250839999411,356.6250839999411,356.6250839999411,new_fruit_44.png,77,3.0,1.6777570999693125,,,076,11,2025-06-05_14h31.24.001,Surprise recog test,2023.1.3,60.01997465991875,
77,0,77,0,,,,,,,,,,,,,,,,,,,,,,,,,,,,,,,,,,,,363.12421180005185,364.1408518999815,359.33606179989874,359.33606179989874,359.33606179989874,359.33606179989874,new_fruit_35.png,78,4.0,3.7822578998748213,,,076,11,2025-06-05_14h31.24.001,Surprise recog test,2023.1.3,60.01997465991875,
78,0,78,0,,,,,,,,,,,,,,,,,,,,,,,,,,,,,,,,,,,,367.28450770000927,368.30914909997955,364.1408518999815,364.1408518999815,364.1408518999815,364.1408518999815,new_stationery_17.png,79,4.0,3.139800400007516,,,076,11,2025-06-05_14h31.24.001,Surprise recog test,2023.1.3,60.01997465991875,
79,0,79,0,,,,,,,,,,,,,,,,,,,,,,,,,,,,,,,,,,,,370.76130099990405,371.78396810009144,368.30914909997955,368.30914909997955,368.30914909997955,368.30914909997955,old_fruit_9.png,80,2.0,2.452547200024128,,,076,11,2025-06-05_14h31.24.001,Surprise recog test,2023.1.3,60.01997465991875,
80,0,80,0,,,,,,,,,,,,,,,,,,,,,,,,,,,,,,,,,,,,374.40709959995,375.4414997000713,371.78396810009144,371.78396810009144,371.78396810009144,371.78396810009144,old_fruit_44.png,81,3.0,2.6229970999993384,,,076,11,2025-06-05_14h31.24.001,Surprise recog test,2023.1.3,60.01997465991875,
81,0,81,0,,,,,,,,,,,,,,,,,,,,,,,,,,,,,,,,,,,,377.9367704000324,378.9555361000821,375.4414997000713,375.4414997000713,375.4414997000713,375.4414997000713,new_sceneOut_30.png,82,5.0,2.4928453001193702,,,076,11,2025-06-05_14h31.24.001,Surprise recog test,2023.1.3,60.01997465991875,
82,0,82,0,,,,,,,,,,,,,,,,,,,,,,,,,,,,,,,,,,,,379.97172489995137,380.982801000122,378.9555361000821,378.9555361000821,378.9555361000821,378.9555361000821,new_sceneIn_41.png,83,5.0,1.0131969000212848,,,076,11,2025-06-05_14h31.24.001,Surprise recog test,2023.1.3,60.01997465991875,
83,0,83,0,,,,,,,,,,,,,,,,,,,,,,,,,,,,,,,,,,,,383.0457677000668,384.0827739001252,380.982801000122,380.982801000122,380.982801000122,380.982801000122,old_stationery_4.png,84,1.0,2.0600037002004683,,,076,11,2025-06-05_14h31.24.001,Surprise recog test,2023.1.3,60.01997465991875,
84,0,84,0,,,,,,,,,,,,,,,,,,,,,,,,,,,,,,,,,,,,386.5942118000239,387.6140250999015,384.0827739001252,384.0827739001252,384.0827739001252,384.0827739001252,old_sceneIn_35.png,85,5.0,2.5151797998696566,,,076,11,2025-06-05_14h31.24.001,Surprise recog test,2023.1.3,60.01997465991875,
85,0,85,0,,,,,,,,,,,,,,,,,,,,,,,,,,,,,,,,,,,,390.1300236999523,391.14841219992377,387.6140250999015,387.6140250999015,387.6140250999015,387.6140250999015,old_fruit_21.png,86,1.0,2.5152708999812603,,,076,11,2025-06-05_14h31.24.001,Surprise recog test,2023.1.3,60.01997465991875,
86,0,86,0,,,,,,,,,,,,,,,,,,,,,,,,,,,,,,,,,,,,393.14136360003613,394.1572432999965,391.14841219992377,391.14841219992377,391.14841219992377,391.14841219992377,old_stationery_31.png,87,5.0,1.9937386999372393,,,076,11,2025-06-05_14h31.24.001,Surprise recog test,2023.1.3,60.01997465991875,
87,0,87,0,,,,,,,,,,,,,,,,,,,,,,,,,,,,,,,,,,,,396.3985963999294,397.4100625999272,394.1572432999965,394.1572432999965,394.1572432999965,394.1572432999965,old_stationery_22.png,88,3.0,2.237090500071645,,,076,11,2025-06-05_14h31.24.001,Surprise recog test,2023.1.3,60.01997465991875,
88,0,88,0,,,,,,,,,,,,,,,,,,,,,,,,,,,,,,,,,,,,399.14790260000154,400.1772004000377,397.4100625999272,397.4100625999272,397.4100625999272,397.4100625999272,new_sceneIn_45.png,89,4.0,1.733045500004664,,,076,11,2025-06-05_14h31.24.001,Surprise recog test,2023.1.3,60.01997465991875,
89,0,89,0,,,,,,,,,,,,,,,,,,,,,,,,,,,,,,,,,,,,402.4223410000559,403.430531400023,400.1772004000377,400.1772004000377,400.1772004000377,400.1772004000377,new_stationery_50.png,90,5.0,2.247775500174612,,,076,11,2025-06-05_14h31.24.001,Surprise recog test,2023.1.3,60.01997465991875,
90,0,90,0,,,,,,,,,,,,,,,,,,,,,,,,,,,,,,,,,,,,407.01641010004096,408.0377442999743,403.430531400023,403.430531400023,403.430531400023,403.430531400023,new_fruit_6.png,91,4.0,3.581082999939099,,,076,11,2025-06-05_14h31.24.001,Surprise recog test,2023.1.3,60.01997465991875,
91,0,91,0,,,,,,,,,,,,,,,,,,,,,,,,,,,,,,,,,,,,411.9017960000783,,408.0377442999743,408.0377442999743,408.0377442999743,408.0377442999743,old_fruit_14.png,92,3.0,3.863629400031641,,,076,11,2025-06-05_14h31.24.001,Surprise recog test,2023.1.3,60.01997465991875,
92,0,92,0,,,,,,,,,,,,,,,,,,,,,,,,,,,,,,,,,,,,415.5421370998956,416.56458749994636,412.9343197999988,412.9343197999988,412.9343197999988,412.9343197999988,new_sceneOut_28.png,93,3.0,2.6105919999536127,,,076,11,2025-06-05_14h31.24.001,Surprise recog test,2023.1.3,60.01997465991875,
93,0,93,0,,,,,,,,,,,,,,,,,,,,,,,,,,,,,,,,,,,,418.23676209989935,419.25260140001774,416.56458749994636,416.56458749994636,416.56458749994636,416.56458749994636,old_sceneIn_16.png,94,5.0,1.6661782998126,,,076,11,2025-06-05_14h31.24.001,Surprise recog test,2023.1.3,60.01997465991875,
94,0,94,0,,,,,,,,,,,,,,,,,,,,,,,,,,,,,,,,,,,,421.5416188999079,,419.25260140001774,419.25260140001774,419.25260140001774,419.25260140001774,old_fruit_4.png,95,2.0,2.287595700006932,,,076,11,2025-06-05_14h31.24.001,Surprise recog test,2023.1.3,60.01997465991875,
95,0,95,0,,,,,,,,,,,,,,,,,,,,,,,,,,,,,,,,,,,,425.9315907000564,426.9609407999087,422.5774060001131,422.5774060001131,422.5774060001131,422.5774060001131,new_stationery_9.png,96,4.0,3.3590887000318617,,,076,11,2025-06-05_14h31.24.001,Surprise recog test,2023.1.3,60.01997465991875,
96,0,96,0,,,,,,,,,,,,,,,,,,,,,,,,,,,,,,,,,,,,428.9549807999283,429.9744251000229,426.9609407999087,426.9609407999087,426.9609407999087,426.9609407999087,new_fruit_29.png,97,5.0,1.9932675000745803,,,076,11,2025-06-05_14h31.24.001,Surprise recog test,2023.1.3,60.01997465991875,
97,0,97,0,,,,,,,,,,,,,,,,,,,,,,,,,,,,,,,,,,,,431.85475150006823,432.87297430005856,429.9744251000229,429.9744251000229,429.9744251000229,429.9744251000229,old_fruit_40.png,98,1.0,1.880471199983731,,,076,11,2025-06-05_14h31.24.001,Surprise recog test,2023.1.3,60.01997465991875,
98,0,98,0,,,,,,,,,,,,,,,,,,,,,,,,,,,,,,,,,,,,434.92768459999934,435.9419869999401,432.87297430005856,432.87297430005856,432.87297430005856,432.87297430005856,new_sceneIn_4.png,99,5.0,2.0501109999604523,,,076,11,2025-06-05_14h31.24.001,Surprise recog test,2023.1.3,60.01997465991875,
99,0,99,0,,,,,,,,,,,,,,,,,,,,,,,,,,,,,,,,,,,,436.9466762000229,437.9570170000661,435.9419869999401,435.9419869999401,435.9419869999401,435.9419869999401,new_sceneOut_45.png,100,5.0,1.0004698999691755,,,076,11,2025-06-05_14h31.24.001,Surprise recog test,2023.1.3,60.01997465991875,
100,0,100,0,,,,,,,,,,,,,,,,,,,,,,,,,,,,,,,,,,,,439.9069207001012,,437.9570170000661,437.9570170000661,437.9570170000661,437.9570170000661,old_sceneIn_18.png,101,5.0,1.9434426000807434,,,076,11,2025-06-05_14h31.24.001,Surprise recog test,2023.1.3,60.01997465991875,
101,0,101,0,,,,,,,,,,,,,,,,,,,,,,,,,,,,,,,,,,,,443.8404775999952,444.85852600005455,440.92639319994487,440.92639319994487,440.92639319994487,440.92639319994487,new_fruit_26.png,102,3.0,2.9097094000317156,,,076,11,2025-06-05_14h31.24.001,Surprise recog test,2023.1.3,60.01997465991875,
102,0,102,0,,,,,,,,,,,,,,,,,,,,,,,,,,,,,,,,,,,,448.33802090003155,449.3534713999834,444.85852600005455,444.85852600005455,444.85852600005455,444.85852600005455,old_stationery_23.png,103,4.0,3.479801499983296,,,076,11,2025-06-05_14h31.24.001,Surprise recog test,2023.1.3,60.01997465991875,
103,0,103,0,,,,,,,,,,,,,,,,,,,,,,,,,,,,,,,,,,,,452.10208040010184,,449.3534713999834,449.3534713999834,449.3534713999834,449.3534713999834,new_fruit_23.png,104,4.0,2.744104200042784,,,076,11,2025-06-05_14h31.24.001,Surprise recog test,2023.1.3,60.01997465991875,
104,0,104,0,,,,,,,,,,,,,,,,,,,,,,,,,,,,,,,,,,,,455.42070650006644,,453.12917810003273,453.12917810003273,453.12917810003273,453.12917810003273,old_stationery_16.png,105,2.0,2.2909379999618977,,,076,11,2025-06-05_14h31.24.001,Surprise recog test,2023.1.3,60.01997465991875,
105,0,105,0,,,,,,,,,,,,,,,,,,,,,,,,,,,,,,,,,,,,458.2151613999158,459.2348297999706,456.45107190008275,456.45107190008275,456.45107190008275,456.45107190008275,old_sceneOut_35.png,106,5.0,1.7657733000814915,,,076,11,2025-06-05_14h31.24.001,Surprise recog test,2023.1.3,60.01997465991875,
106,0,106,0,,,,,,,,,,,,,,,,,,,,,,,,,,,,,,,,,,,,461.8487635999918,462.87653489992954,459.2348297999706,459.2348297999706,459.2348297999706,459.2348297999706,new_fruit_13.png,107,4.0,2.6120766999665648,,,076,11,2025-06-05_14h31.24.001,Surprise recog test,2023.1.3,60.01997465991875,
107,0,107,0,,,,,,,,,,,,,,,,,,,,,,,,,,,,,,,,,,,,464.33076489996165,465.35515219997615,462.87653489992954,462.87653489992954,462.87653489992954,462.87653489992954,new_sceneOut_3.png,108,5.0,1.455210599815473,,,076,11,2025-06-05_14h31.24.001,Surprise recog test,2023.1.3,60.01997465991875,
108,0,108,0,,,,,,,,,,,,,,,,,,,,,,,,,,,,,,,,,,,,467.9475920998957,,465.35515219997615,465.35515219997615,465.35515219997615,465.35515219997615,new_sceneOut_2.png,109,4.0,2.5942435001488775,,,076,11,2025-06-05_14h31.24.001,Surprise recog test,2023.1.3,60.01997465991875,
109,0,109,0,,,,,,,,,,,,,,,,,,,,,,,,,,,,,,,,,,,,470.5531808999367,471.5814137000125,468.9801863001194,468.9801863001194,468.9801863001194,468.9801863001194,new_sceneOut_21.png,110,5.0,1.5744137999136,,,076,11,2025-06-05_14h31.24.001,Surprise recog test,2023.1.3,60.01997465991875,
110,0,110,0,,,,,,,,,,,,,,,,,,,,,,,,,,,,,,,,,,,,472.83381920005195,,471.5814137000125,471.5814137000125,471.5814137000125,471.5814137000125,old_sceneOut_36.png,111,5.0,1.2552382999565452,,,076,11,2025-06-05_14h31.24.001,Surprise recog test,2023.1.3,60.01997465991875,
111,0,111,0,,,,,,,,,,,,,,,,,,,,,,,,,,,,,,,,,,,,475.6238345000893,476.64904700010084,473.8558771999087,473.8558771999087,473.8558771999087,473.8558771999087,old_stationery_26.png,112,1.0,1.7630962999537587,,,076,11,2025-06-05_14h31.24.001,Surprise recog test,2023.1.3,60.01997465991875,
112,0,112,0,,,,,,,,,,,,,,,,,,,,,,,,,,,,,,,,,,,,478.9407681999728,,476.64904700010084,476.64904700010084,476.64904700010084,476.64904700010084,new_stationery_48.png,113,4.0,2.292228100122884,,,076,11,2025-06-05_14h31.24.001,Surprise recog test,2023.1.3,60.01997465991875,
113,0,113,0,,,,,,,,,,,,,,,,,,,,,,,,,,,,,,,,,,,,482.77372989989817,483.7929048000369,479.97246060008183,479.97246060008183,479.97246060008183,479.97246060008183,old_fruit_25.png,114,1.0,2.799668400082737,,,076,11,2025-06-05_14h31.24.001,Surprise recog test,2023.1.3,60.01997465991875,
114,0,114,0,,,,,,,,,,,,,,,,,,,,,,,,,,,,,,,,,,,,486.4159407999832,487.4348333000671,483.7929048000369,483.7929048000369,483.7929048000369,483.7929048000369,new_sceneIn_14.png,115,5.0,2.624618200119585,,,076,11,2025-06-05_14h31.24.001,Surprise recog test,2023.1.3,60.01997465991875,
115,0,115,0,,,,,,,,,,,,,,,,,,,,,,,,,,,,,,,,,,,,488.80148690007627,489.81827699998394,487.4348333000671,487.4348333000671,487.4348333000671,487.4348333000671,old_sceneIn_42.png,116,5.0,1.3629685000050813,,,076,11,2025-06-05_14h31.24.001,Surprise recog test,2023.1.3,60.01997465991875,
116,0,116,0,,,,,,,,,,,,,,,,,,,,,,,,,,,,,,,,,,,,493.84178950008936,494.85578659991734,489.81827699998394,489.81827699998394,489.81827699998394,489.81827699998394,old_stationery_47.png,117,4.0,4.0165814000647515,,,076,11,2025-06-05_14h31.24.001,Surprise recog test,2023.1.3,60.01997465991875,
117,0,117,0,,,,,,,,,,,,,,,,,,,,,,,,,,,,,,,,,,,,495.8056554000359,496.83460110006854,494.85578659991734,494.85578659991734,494.85578659991734,494.85578659991734,old_sceneOut_24.png,118,5.0,0.9453656000550836,,,076,11,2025-06-05_14h31.24.001,Surprise recog test,2023.1.3,60.01997465991875,
118,0,118,0,,,,,,,,,,,,,,,,,,,,,,,,,,,,,,,,,,,,500.80519660003483,501.82705909991637,496.83460110006854,496.83460110006854,496.83460110006854,496.83460110006854,new_fruit_17.png,119,4.0,3.971882800105959,,,076,11,2025-06-05_14h31.24.001,Surprise recog test,2023.1.3,60.01997465991875,
119,0,119,0,,,,,,,,,,,,,,,,,,,,,,,,,,,,,,,,,,,,503.01752420002595,504.0372758999001,501.82705909991637,501.82705909991637,501.82705909991637,501.82705909991637,old_sceneOut_27.png,120,5.0,1.1926082998979837,,,076,11,2025-06-05_14h31.24.001,Surprise recog test,2023.1.3,60.01997465991875,
120,0,120,0,,,,,,,,,,,,,,,,,,,,,,,,,,,,,,,,,,,,507.0605727999937,508.0791762000881,504.0372758999001,504.0372758999001,504.0372758999001,504.0372758999001,old_stationery_38.png,121,4.0,3.017491600010544,,,076,11,2025-06-05_14h31.24.001,Surprise recog test,2023.1.3,60.01997465991875,
121,0,121,0,,,,,,,,,,,,,,,,,,,,,,,,,,,,,,,,,,,,508.9672183999792,509.98627309990115,508.0791762000881,508.0791762000881,508.0791762000881,508.0791762000881,old_sceneOut_45.png,122,5.0,0.8893402998801321,,,076,11,2025-06-05_14h31.24.001,Surprise recog test,2023.1.3,60.01997465991875,
122,0,122,0,,,,,,,,,,,,,,,,,,,,,,,,,,,,,,,,,,,,511.21803350001574,,509.98627309990115,509.98627309990115,509.98627309990115,509.98627309990115,old_sceneIn_31.png,123,5.0,1.2272932000923902,,,076,11,2025-06-05_14h31.24.001,Surprise recog test,2023.1.3,60.01997465991875,
123,0,123,0,,,,,,,,,,,,,,,,,,,,,,,,,,,,,,,,,,,,513.8829755999614,514.9022051000502,512.2481591000687,512.2481591000687,512.2481591000687,512.2481591000687,old_sceneIn_26.png,124,5.0,1.630416200030595,,,076,11,2025-06-05_14h31.24.001,Surprise recog test,2023.1.3,60.01997465991875,
124,0,124,0,,,,,,,,,,,,,,,,,,,,,,,,,,,,,,,,,,,,517.8051207999233,,514.9022051000502,514.9022051000502,514.9022051000502,514.9022051000502,old_fruit_22.png,125,1.0,2.9028007998131216,,,076,11,2025-06-05_14h31.24.001,Surprise recog test,2023.1.3,60.01997465991875,
125,0,125,0,,,,,,,,,,,,,,,,,,,,,,,,,,,,,,,,,,,,521.5600997000001,,518.8403113000095,518.8403113000095,518.8403113000095,518.8403113000095,new_stationery_29.png,126,5.0,2.720776099944487,,,076,11,2025-06-05_14h31.24.001,Surprise recog test,2023.1.3,60.01997465991875,
126,0,126,0,,,,,,,,,,,,,,,,,,,,,,,,,,,,,,,,,,,,523.613761600107,524.6466081000399,522.5835071001202,522.5835071001202,522.5835071001202,522.5835071001202,new_sceneOut_10.png,127,5.0,1.0301276999525726,,,076,11,2025-06-05_14h31.24.001,Surprise recog test,2023.1.3,60.01997465991875,
127,0,127,0,,,,,,,,,,,,,,,,,,,,,,,,,,,,,,,,,,,,525.8915204000659,526.9136713999324,524.6466081000399,524.6466081000399,524.6466081000399,524.6466081000399,old_sceneIn_3.png,128,5.0,1.2470189000014216,,,076,11,2025-06-05_14h31.24.001,Surprise recog test,2023.1.3,60.01997465991875,
128,0,128,0,,,,,,,,,,,,,,,,,,,,,,,,,,,,,,,,,,,,528.2315773000009,,526.9136713999324,526.9136713999324,526.9136713999324,526.9136713999324,new_fruit_46.png,129,5.0,1.3190916997846216,,,076,11,2025-06-05_14h31.24.001,Surprise recog test,2023.1.3,60.01997465991875,
129,0,129,0,,,,,,,,,,,,,,,,,,,,,,,,,,,,,,,,,,,,533.2529659001157,,529.2501666999888,529.2501666999888,529.2501666999888,529.2501666999888,old_sceneOut_6.png,130,4.0,3.998466899851337,,,076,11,2025-06-05_14h31.24.001,Surprise recog test,2023.1.3,60.01997465991875,
130,0,130,0,,,,,,,,,,,,,,,,,,,,,,,,,,,,,,,,,,,,539.2722839999478,,534.2961655999534,534.2961655999534,534.2961655999534,534.2961655999534,new_sceneIn_7.png,131,None,None,539.2584267999046,,076,11,2025-06-05_14h31.24.001,Surprise recog test,2023.1.3,60.01997465991875,
131,0,131,0,,,,,,,,,,,,,,,,,,,,,,,,,,,,,,,,,,,,542.133349099895,543.1492099000607,540.285999600077,540.285999600077,540.285999600077,540.285999600077,old_stationery_24.png,132,1.0,1.8478904999792576,,,076,11,2025-06-05_14h31.24.001,Surprise recog test,2023.1.3,60.01997465991875,
132,0,132,0,,,,,,,,,,,,,,,,,,,,,,,,,,,,,,,,,,,,545.3051013001241,546.3280670999084,543.1492099000607,543.1492099000607,543.1492099000607,543.1492099000607,old_sceneIn_9.png,133,5.0,2.1492429000791162,,,076,11,2025-06-05_14h31.24.001,Surprise recog test,2023.1.3,60.01997465991875,
133,0,133,0,,,,,,,,,,,,,,,,,,,,,,,,,,,,,,,,,,,,547.2096953000873,548.2246554000303,546.3280670999084,546.3280670999084,546.3280670999084,546.3280670999084,new_sceneOut_38.png,134,5.0,0.8825697000138462,,,076,11,2025-06-05_14h31.24.001,Surprise recog test,2023.1.3,60.01997465991875,
134,0,134,0,,,,,,,,,,,,,,,,,,,,,,,,,,,,,,,,,,,,551.0347255000379,,548.2246554000303,548.2246554000303,548.2246554000303,548.2246554000303,new_sceneIn_26.png,135,4.0,2.810985599877313,,,076,11,2025-06-05_14h31.24.001,Surprise recog test,2023.1.3,60.01997465991875,
135,0,135,0,,,,,,,,,,,,,,,,,,,,,,,,,,,,,,,,,,,,553.6916273999959,554.7061892999336,552.066087000072,552.066087000072,552.066087000072,552.066087000072,old_sceneIn_6.png,136,5.0,1.6255370997823775,,,076,11,2025-06-05_14h31.24.001,Surprise recog test,2023.1.3,60.01997465991875,
136,0,136,0,,,,,,,,,,,,,,,,,,,,,,,,,,,,,,,,,,,,555.6949203999247,556.710126100108,554.7061892999336,554.7061892999336,554.7061892999336,554.7061892999336,new_sceneOut_43.png,137,5.0,0.9837253999430686,,,076,11,2025-06-05_14h31.24.001,Surprise recog test,2023.1.3,60.01997465991875,
137,0,137,0,,,,,,,,,,,,,,,,,,,,,,,,,,,,,,,,,,,,558.1366254000459,559.1421552998945,556.710126100108,556.710126100108,556.710126100108,556.710126100108,new_stationery_20.png,138,5.0,1.421695299912244,,,076,11,2025-06-05_14h31.24.001,Surprise recog test,2023.1.3,60.01997465991875,
138,0,138,0,,,,,,,,,,,,,,,,,,,,,,,,,,,,,,,,,,,,559.9977120999247,561.0232104999013,559.1421552998945,559.1421552998945,559.1421552998945,559.1421552998945,old_sceneOut_20.png,139,5.0,0.8517448001075536,,,076,11,2025-06-05_14h31.24.001,Surprise recog test,2023.1.3,60.01997465991875,
139,0,139,0,,,,,,,,,,,,,,,,,,,,,,,,,,,,,,,,,,,,563.2592810001224,564.2711247000843,561.0232104999013,561.0232104999013,561.0232104999013,561.0232104999013,old_sceneIn_7.png,140,5.0,2.237407799810171,,,076,11,2025-06-05_14h31.24.001,Surprise recog test,2023.1.3,60.01997465991875,
140,0,140,0,,,,,,,,,,,,,,,,,,,,,,,,,,,,,,,,,,,,565.2796450001188,,564.2711247000843,564.2711247000843,564.2711247000843,564.2711247000843,new_sceneOut_16.png,141,5.0,1.0045704001095146,,,076,11,2025-06-05_14h31.24.001,Surprise recog test,2023.1.3,60.01997465991875,
141,0,141,0,,,,,,,,,,,,,,,,,,,,,,,,,,,,,,,,,,,,570.7997906000819,,566.3128160999622,566.3128160999622,566.3128160999622,566.3128160999622,new_fruit_49.png,142,4.0,4.4868231997825205,,,076,11,2025-06-05_14h31.24.001,Surprise recog test,2023.1.3,60.01997465991875,
142,0,142,0,,,,,,,,,,,,,,,,,,,,,,,,,,,,,,,,,,,,574.6192365000024,,571.8256192998961,571.8256192998961,571.8256192998961,571.8256192998961,old_stationery_36.png,143,5.0,2.7937400999944657,,,076,11,2025-06-05_14h31.24.001,Surprise recog test,2023.1.3,60.01997465991875,
143,0,143,0,,,,,,,,,,,,,,,,,,,,,,,,,,,,,,,,,,,,578.2121552999597,579.2413786000106,575.6532918000594,575.6532918000594,575.6532918000594,575.6532918000594,new_stationery_34.png,144,5.0,2.55967599991709,,,076,11,2025-06-05_14h31.24.001,Surprise recog test,2023.1.3,60.01997465991875,
144,0,144,0,,,,,,,,,,,,,,,,,,,,,,,,,,,,,,,,,,,,580.0961734000593,581.1218248000368,579.2413786000106,579.2413786000106,579.2413786000106,579.2413786000106,old_sceneOut_26.png,145,5.0,0.8582931999117136,,,076,11,2025-06-05_14h31.24.001,Surprise recog test,2023.1.3,60.01997465991875,
145,0,145,0,,,,,,,,,,,,,,,,,,,,,,,,,,,,,,,,,,,,583.3758117000107,584.3928592999,581.1218248000368,581.1218248000368,581.1218248000368,581.1218248000368,old_sceneOut_19.png,146,5.0,2.251698900014162,,,076,11,2025-06-05_14h31.24.001,Surprise recog test,2023.1.3,60.01997465991875,
146,0,146,0,,,,,,,,,,,,,,,,,,,,,,,,,,,,,,,,,,,,585.3188436001074,586.3436304000206,584.3928592999,584.3928592999,584.3928592999,584.3928592999,new_sceneOut_20.png,147,5.0,0.9274269000161439,,,076,11,2025-06-05_14h31.24.001,Surprise recog test,2023.1.3,60.01997465991875,
147,0,147,0,,,,,,,,,,,,,,,,,,,,,,,,,,,,,,,,,,,,588.8156137999613,,586.3436304000206,586.3436304000206,586.3436304000206,586.3436304000206,old_stationery_33.png,148,5.0,2.473168500000611,,,076,11,2025-06-05_14h31.24.001,Surprise recog test,2023.1.3,60.01997465991875,
148,0,148,0,,,,,,,,,,,,,,,,,,,,,,,,,,,,,,,,,,,,591.9098390000872,592.9226639999542,589.850365600083,589.850365600083,589.850365600083,589.850365600083,old_sceneOut_43.png,149,5.0,2.060953800100833,,,076,11,2025-06-05_14h31.24.001,Surprise recog test,2023.1.3,60.01997465991875,
149,0,149,0,,,,,,,,,,,,,,,,,,,,,,,,,,,,,,,,,,,,594.2759386999533,595.29122429993,592.9226639999542,592.9226639999542,592.9226639999542,592.9226639999542,new_sceneIn_27.png,150,5.0,1.349323600064963,,,076,11,2025-06-05_14h31.24.001,Surprise recog test,2023.1.3,60.01997465991875,
150,0,150,0,,,,,,,,,,,,,,,,,,,,,,,,,,,,,,,,,,,,600.2878163999412,,595.29122429993,595.29122429993,595.29122429993,595.29122429993,old_stationery_48.png,151,None,None,600.2790310999844,,076,11,2025-06-05_14h31.24.001,Surprise recog test,2023.1.3,60.01997465991875,
151,0,151,0,,,,,,,,,,,,,,,,,,,,,,,,,,,,,,,,,,,,602.9692178000696,603.993513799971,601.3045373999048,601.3045373999048,601.3045373999048,601.3045373999048,new_sceneIn_28.png,152,5.0,1.665793300140649,,,076,11,2025-06-05_14h31.24.001,Surprise recog test,2023.1.3,60.01997465991875,
152,0,152,0,,,,,,,,,,,,,,,,,,,,,,,,,,,,,,,,,,,,606.0624204000924,,603.993513799971,603.993513799971,603.993513799971,603.993513799971,new_sceneIn_13.png,153,5.0,2.0702806001063436,,,076,11,2025-06-05_14h31.24.001,Surprise recog test,2023.1.3,60.01997465991875,
153,0,153,0,,,,,,,,,,,,,,,,,,,,,,,,,,,,,,,,,,,,608.3401810000651,609.3622085000388,607.0838685999624,607.0838685999624,607.0838685999624,607.0838685999624,new_sceneIn_9.png,154,5.0,1.2486899998039007,,,076,11,2025-06-05_14h31.24.001,Surprise recog test,2023.1.3,60.01997465991875,
154,0,154,0,,,,,,,,,,,,,,,,,,,,,,,,,,,,,,,,,,,,611.2049263000954,612.2184645999223,609.3622085000388,609.3622085000388,609.3622085000388,609.3622085000388,new_sceneIn_20.png,155,5.0,1.8450580998323858,,,076,11,2025-06-05_14h31.24.001,Surprise recog test,2023.1.3,60.01997465991875,
155,0,155,0,,,,,,,,,,,,,,,,,,,,,,,,,,,,,,,,,,,,613.3981645999011,614.419882300077,612.2184645999223,612.2184645999223,612.2184645999223,612.2184645999223,new_sceneOut_37.png,156,5.0,1.173392300028354,,,076,11,2025-06-05_14h31.24.001,Surprise recog test,2023.1.3,60.01997465991875,
156,0,156,0,,,,,,,,,,,,,,,,,,,,,,,,,,,,,,,,,,,,616.0878129999619,,614.419882300077,614.419882300077,614.419882300077,614.419882300077,new_sceneOut_9.png,157,5.0,1.6711487001739442,,,076,11,2025-06-05_14h31.24.001,Surprise recog test,2023.1.3,60.01997465991875,
157,0,157,0,,,,,,,,,,,,,,,,,,,,,,,,,,,,,,,,,,,,618.8520221000072,619.8710912999231,617.1200321000069,617.1200321000069,617.1200321000069,617.1200321000069,new_stationery_24.png,158,5.0,1.7312197000719607,,,076,11,2025-06-05_14h31.24.001,Surprise recog test,2023.1.3,60.01997465991875,
158,0,158,0,,,,,,,,,,,,,,,,,,,,,,,,,,,,,,,,,,,,621.3963959000539,622.4261644999497,619.8710912999231,619.8710912999231,619.8710912999231,619.8710912999231,old_stationery_8.png,159,5.0,1.5280953999608755,,,076,11,2025-06-05_14h31.24.001,Surprise recog test,2023.1.3,60.01997465991875,
159,0,159,0,,,,,,,,,,,,,,,,,,,,,,,,,,,,,,,,,,,,623.9797394000925,624.9993847000878,622.4261644999497,622.4261644999497,622.4261644999497,622.4261644999497,new_sceneOut_4.png,160,5.0,1.5532362000085413,,,076,11,2025-06-05_14h31.24.001,Surprise recog test,2023.1.3,60.01997465991875,
160,0,160,0,,,,,,,,,,,,,,,,,,,,,,,,,,,,,,,,,,,,626.7029450000264,627.7278203000315,624.9993847000878,624.9993847000878,624.9993847000878,624.9993847000878,old_sceneOut_42.png,161,5.0,1.6988262999802828,,,076,11,2025-06-05_14h31.24.001,Surprise recog test,2023.1.3,60.01997465991875,
161,0,161,0,,,,,,,,,,,,,,,,,,,,,,,,,,,,,,,,,,,,629.8397272999864,630.8584290000144,627.7278203000315,627.7278203000315,627.7278203000315,627.7278203000315,new_stationery_38.png,162,5.0,2.1133777000941336,,,076,11,2025-06-05_14h31.24.001,Surprise recog test,2023.1.3,60.01997465991875,
162,0,162,0,,,,,,,,,,,,,,,,,,,,,,,,,,,,,,,,,,,,632.6018626000732,,630.8584290000144,630.8584290000144,630.8584290000144,630.8584290000144,old_sceneIn_38.png,163,5.0,1.7436772000510246,,,076,11,2025-06-05_14h31.24.001,Surprise recog test,2023.1.3,60.01997465991875,
163,0,163,0,,,,,,,,,,,,,,,,,,,,,,,,,,,,,,,,,,,,636.8361782000866,637.8570115999319,633.6285339000169,633.6285339000169,633.6285339000169,633.6285339000169,old_fruit_28.png,164,3.0,3.208337799878791,,,076,11,2025-06-05_14h31.24.001,Surprise recog test,2023.1.3,60.01997465991875,
164,0,164,0,,,,,,,,,,,,,,,,,,,,,,,,,,,,,,,,,,,,639.6311009000055,640.6583783000242,637.8570115999319,637.8570115999319,637.8570115999319,637.8570115999319,new_sceneIn_48.png,165,5.0,1.7760943998582661,,,076,11,2025-06-05_14h31.24.001,Surprise recog test,2023.1.3,60.01997465991875,
165,0,165,0,,,,,,,,,,,,,,,,,,,,,,,,,,,,,,,,,,,,641.6107946999837,642.6311447999906,640.6583783000242,640.6583783000242,640.6583783000242,640.6583783000242,new_sceneOut_12.png,166,5.0,0.9526695001404732,,,076,11,2025-06-05_14h31.24.001,Surprise recog test,2023.1.3,60.01997465991875,
166,0,166,0,,,,,,,,,,,,,,,,,,,,,,,,,,,,,,,,,,,,643.5721483000088,644.5978872000705,642.6311447999906,642.6311447999906,642.6311447999906,642.6311447999906,old_sceneIn_1.png,167,5.0,0.934358999831602,,,076,11,2025-06-05_14h31.24.001,Surprise recog test,2023.1.3,60.01997465991875,
167,0,167,0,,,,,,,,,,,,,,,,,,,,,,,,,,,,,,,,,,,,645.6567808000837,646.681152400095,644.5978872000705,644.5978872000705,644.5978872000705,644.5978872000705,new_sceneIn_33.png,168,5.0,1.0594330998137593,,,076,11,2025-06-05_14h31.24.001,Surprise recog test,2023.1.3,60.01997465991875,
168,0,168,0,,,,,,,,,,,,,,,,,,,,,,,,,,,,,,,,,,,,647.8018360000569,648.8345540999435,646.681152400095,646.681152400095,646.681152400095,646.681152400095,old_sceneOut_39.png,169,5.0,1.124005899997428,,,076,11,2025-06-05_14h31.24.001,Surprise recog test,2023.1.3,60.01997465991875,
169,0,169,0,,,,,,,,,,,,,,,,,,,,,,,,,,,,,,,,,,,,651.2852662000805,652.308373699896,648.8345540999435,648.8345540999435,648.8345540999435,648.8345540999435,old_stationery_43.png,170,5.0,2.452690400183201,,,076,11,2025-06-05_14h31.24.001,Surprise recog test,2023.1.3,60.01997465991875,
170,0,170,0,,,,,,,,,,,,,,,,,,,,,,,,,,,,,,,,,,,,653.796044100076,654.807061499916,652.308373699896,652.308373699896,652.308373699896,652.308373699896,old_sceneIn_36.png,171,5.0,1.4870826001279056,,,076,11,2025-06-05_14h31.24.001,Surprise recog test,2023.1.3,60.01997465991875,
171,0,171,0,,,,,,,,,,,,,,,,,,,,,,,,,,,,,,,,,,,,655.7077583000064,656.7369665999431,654.807061499916,654.807061499916,654.807061499916,654.807061499916,old_sceneOut_49.png,172,5.0,0.89480090001598,,,076,11,2025-06-05_14h31.24.001,Surprise recog test,2023.1.3,60.01997465991875,
172,0,172,0,,,,,,,,,,,,,,,,,,,,,,,,,,,,,,,,,,,,658.1513612000272,659.1729141999967,656.7369665999431,656.7369665999431,656.7369665999431,656.7369665999431,new_sceneIn_24.png,173,5.0,1.4147367000114173,,,076,11,2025-06-05_14h31.24.001,Surprise recog test,2023.1.3,60.01997465991875,
173,0,173,0,,,,,,,,,,,,,,,,,,,,,,,,,,,,,,,,,,,,661.2722024999093,662.2835623000283,659.1729141999967,659.1729141999967,659.1729141999967,659.1729141999967,old_stationery_40.png,174,1.0,2.097189199877903,,,076,11,2025-06-05_14h31.24.001,Surprise recog test,2023.1.3,60.01997465991875,
174,0,174,0,,,,,,,,,,,,,,,,,,,,,,,,,,,,,,,,,,,,664.6316808999982,665.660842299927,662.2835623000283,662.2835623000283,662.2835623000283,662.2835623000283,new_fruit_14.png,175,3.0,2.346756499959156,,,076,11,2025-06-05_14h31.24.001,Surprise recog test,2023.1.3,60.01997465991875,
175,0,175,0,,,,,,,,,,,,,,,,,,,,,,,,,,,,,,,,,,,,666.9210896999575,667.9415585999377,665.660842299927,665.660842299927,665.660842299927,665.660842299927,old_sceneIn_40.png,176,5.0,1.2592116000596434,,,076,11,2025-06-05_14h31.24.001,Surprise recog test,2023.1.3,60.01997465991875,
176,0,176,0,,,,,,,,,,,,,,,,,,,,,,,,,,,,,,,,,,,,668.7888231999241,669.8031494999304,667.9415585999377,667.9415585999377,667.9415585999377,667.9415585999377,new_sceneIn_22.png,177,5.0,0.8476986999157816,,,076,11,2025-06-05_14h31.24.001,Surprise recog test,2023.1.3,60.01997465991875,
177,0,177,0,,,,,,,,,,,,,,,,,,,,,,,,,,,,,,,,,,,,672.7284806999378,673.7385525000282,669.8031494999304,669.8031494999304,669.8031494999304,669.8031494999304,new_sceneIn_35.png,178,4.0,2.921096900012344,,,076,11,2025-06-05_14h31.24.001,Surprise recog test,2023.1.3,60.01997465991875,
178,0,178,0,,,,,,,,,,,,,,,,,,,,,,,,,,,,,,,,,,,,675.4378788999747,,673.7385525000282,673.7385525000282,673.7385525000282,673.7385525000282,old_sceneOut_5.png,179,5.0,1.6944135001394898,,,076,11,2025-06-05_14h31.24.001,Surprise recog test,2023.1.3,60.01997465991875,
179,0,179,0,,,,,,,,,,,,,,,,,,,,,,,,,,,,,,,,,,,,680.0021134999115,681.024682899937,676.4648084999062,676.4648084999062,676.4648084999062,676.4648084999062,new_fruit_3.png,180,3.0,3.5362937999889255,,,076,11,2025-06-05_14h31.24.001,Surprise recog test,2023.1.3,60.01997465991875,
180,0,180,0,,,,,,,,,,,,,,,,,,,,,,,,,,,,,,,,,,,,682.7640329999849,683.787417500047,681.024682899937,681.024682899937,681.024682899937,681.024682899937,new_sceneIn_50.png,181,5.0,1.7407518001273274,,,076,11,2025-06-05_14h31.24.001,Surprise recog test,2023.1.3,60.01997465991875,
181,0,181,0,,,,,,,,,,,,,,,,,,,,,,,,,,,,,,,,,,,,687.4939425999764,688.501597299939,683.787417500047,683.787417500047,683.787417500047,683.787417500047,new_stationery_12.png,182,5.0,3.703662000130862,,,076,11,2025-06-05_14h31.24.001,Surprise recog test,2023.1.3,60.01997465991875,
182,0,182,0,,,,,,,,,,,,,,,,,,,,,,,,,,,,,,,,,,,,690.5604844999034,691.5874771000817,688.501597299939,688.501597299939,688.501597299939,688.501597299939,new_fruit_36.png,183,2.0,2.0546364998444915,,,076,11,2025-06-05_14h31.24.001,Surprise recog test,2023.1.3,60.01997465991875,
183,0,183,0,,,,,,,,,,,,,,,,,,,,,,,,,,,,,,,,,,,,692.8957887999713,693.9118772000074,691.5874771000817,691.5874771000817,691.5874771000817,691.5874771000817,old_sceneIn_32.png,184,5.0,1.3078288999386132,,,076,11,2025-06-05_14h31.24.001,Surprise recog test,2023.1.3,60.01997465991875,
184,0,184,0,,,,,,,,,,,,,,,,,,,,,,,,,,,,,,,,,,,,694.6876167000737,,693.9118772000074,693.9118772000074,693.9118772000074,693.9118772000074,old_sceneOut_38.png,185,5.0,0.7727463999763131,,,076,11,2025-06-05_14h31.24.001,Surprise recog test,2023.1.3,60.01997465991875,
185,0,185,0,,,,,,,,,,,,,,,,,,,,,,,,,,,,,,,,,,,,699.6543089000043,700.6761565001216,695.7136206999421,695.7136206999421,695.7136206999421,695.7136206999421,old_stationery_3.png,186,2.0,3.9402545001357794,,,076,11,2025-06-05_14h31.24.001,Surprise recog test,2023.1.3,60.01997465991875,
186,0,186,0,,,,,,,,,,,,,,,,,,,,,,,,,,,,,,,,,,,,702.2370949001051,703.2471704999916,700.6761565001216,700.6761565001216,700.6761565001216,700.6761565001216,old_sceneIn_49.png,187,5.0,1.564972799969837,,,076,11,2025-06-05_14h31.24.001,Surprise recog test,2023.1.3,60.01997465991875,
187,0,187,0,,,,,,,,,,,,,,,,,,,,,,,,,,,,,,,,,,,,706.0760461001191,707.0964172000531,703.2471704999916,703.2471704999916,703.2471704999916,703.2471704999916,new_fruit_11.png,188,4.0,2.823724999791011,,,076,11,2025-06-05_14h31.24.001,Surprise recog test,2023.1.3,60.01997465991875,
188,0,188,0,,,,,,,,,,,,,,,,,,,,,,,,,,,,,,,,,,,,708.511407099897,709.5236480000895,707.0964172000531,707.0964172000531,707.0964172000531,707.0964172000531,new_stationery_7.png,189,5.0,1.4121472002007067,,,076,11,2025-06-05_14h31.24.001,Surprise recog test,2023.1.3,60.01997465991875,
189,0,189,0,,,,,,,,,,,,,,,,,,,,,,,,,,,,,,,,,,,,711.4772636999842,712.497120300075,709.5236480000895,709.5236480000895,709.5236480000895,709.5236480000895,new_stationery_47.png,190,5.0,1.9511567000299692,,,076,11,2025-06-05_14h31.24.001,Surprise recog test,2023.1.3,60.01997465991875,
190,0,190,0,,,,,,,,,,,,,,,,,,,,,,,,,,,,,,,,,,,,714.6565787000582,715.6772427000105,712.497120300075,712.497120300075,712.497120300075,712.497120300075,new_sceneOut_40.png,191,5.0,2.1602918999269605,,,076,11,2025-06-05_14h31.24.001,Surprise recog test,2023.1.3,60.01997465991875,
191,0,191,0,,,,,,,,,,,,,,,,,,,,,,,,,,,,,,,,,,,,718.1683589001186,719.1896820999682,715.6772427000105,715.6772427000105,715.6772427000105,715.6772427000105,old_fruit_41.png,192,5.0,2.490718899993226,,,076,11,2025-06-05_14h31.24.001,Surprise recog test,2023.1.3,60.01997465991875,
192,0,192,0,,,,,,,,,,,,,,,,,,,,,,,,,,,,,,,,,,,,721.3622026999947,722.3766401999164,719.1896820999682,719.1896820999682,719.1896820999682,719.1896820999682,old_fruit_24.png,193,1.0,2.1743280000519007,,,076,11,2025-06-05_14h31.24.001,Surprise recog test,2023.1.3,60.01997465991875,
193,0,193,0,,,,,,,,,,,,,,,,,,,,,,,,,,,,,,,,,,,,724.328116199933,,722.3766401999164,722.3766401999164,722.3766401999164,722.3766401999164,new_sceneIn_34.png,194,5.0,1.947682400001213,,,076,11,2025-06-05_14h31.24.001,Surprise recog test,2023.1.3,60.01997465991875,
194,0,194,0,,,,,,,,,,,,,,,,,,,,,,,,,,,,,,,,,,,,727.671036799904,728.6854997999035,725.3498297999613,725.3498297999613,725.3498297999613,725.3498297999613,new_fruit_30.png,195,3.0,2.315165299922228,,,076,11,2025-06-05_14h31.24.001,Surprise recog test,2023.1.3,60.01997465991875,
195,0,195,0,,,,,,,,,,,,,,,,,,,,,,,,,,,,,,,,,,,,730.0981642000843,,728.6854997999035,728.6854997999035,728.6854997999035,728.6854997999035,new_sceneIn_38.png,196,5.0,1.405401499941945,,,076,11,2025-06-05_14h31.24.001,Surprise recog test,2023.1.3,60.01997465991875,
196,0,196,0,,,,,,,,,,,,,,,,,,,,,,,,,,,,,,,,,,,,732.821801800048,733.8487084999215,731.130346900085,731.130346900085,731.130346900085,731.130346900085,new_fruit_37.png,197,5.0,1.6900832999963313,,,076,11,2025-06-05_14h31.24.001,Surprise recog test,2023.1.3,60.01997465991875,
197,0,197,0,,,,,,,,,,,,,,,,,,,,,,,,,,,,,,,,,,,,734.7880917000584,735.8287686998956,733.8487084999215,733.8487084999215,733.8487084999215,733.8487084999215,new_sceneOut_49.png,198,5.0,0.9391993000172079,,,076,11,2025-06-05_14h31.24.001,Surprise recog test,2023.1.3,60.01997465991875,
198,0,198,0,,,,,,,,,,,,,,,,,,,,,,,,,,,,,,,,,,,,736.7142580999061,737.737606599927,735.8287686998956,735.8287686998956,735.8287686998956,735.8287686998956,new_fruit_43.png,199,5.0,0.8908851000014693,,,076,11,2025-06-05_14h31.24.001,Surprise recog test,2023.1.3,60.01997465991875,
199,0,199,0,,,,,,,,,,,,,,,,,,,,,,,,,,,,,,,,,,,,739.8873147999402,740.9018947998993,737.737606599927,737.737606599927,737.737606599927,737.737606599927,old_stationery_14.png,200,1.0,2.1513803999405354,,,076,11,2025-06-05_14h31.24.001,Surprise recog test,2023.1.3,60.01997465991875,
200,0,200,0,,,,,,,,,,,,,,,,,,,,,,,,,,,,,,,,,,,,742.44446290005,743.4645404000767,740.9018947998993,740.9018947998993,740.9018947998993,740.9018947998993,old_sceneIn_10.png,201,5.0,1.5431808000430465,,,076,11,2025-06-05_14h31.24.001,Surprise recog test,2023.1.3,60.01997465991875,
201,0,201,0,,,,,,,,,,,,,,,,,,,,,,,,,,,,,,,,,,,,744.7508586999029,745.7644162999932,743.4645404000767,743.4645404000767,743.4645404000767,743.4645404000767,new_sceneIn_15.png,202,5.0,1.28126039984636,,,076,11,2025-06-05_14h31.24.001,Surprise recog test,2023.1.3,60.01997465991875,
202,0,202,0,,,,,,,,,,,,,,,,,,,,,,,,,,,,,,,,,,,,748.8786857000086,749.8843431000132,745.7644162999932,745.7644162999932,745.7644162999932,745.7644162999932,old_stationery_18.png,203,3.0,3.1115898001007736,,,076,11,2025-06-05_14h31.24.001,Surprise recog test,2023.1.3,60.01997465991875,
203,0,203,0,,,,,,,,,,,,,,,,,,,,,,,,,,,,,,,,,,,,754.2419436001219,755.2547343999613,749.8843431000132,749.8843431000132,749.8843431000132,749.8843431000132,old_stationery_29.png,204,2.0,4.35347480000928,,,076,11,2025-06-05_14h31.24.001,Surprise recog test,2023.1.3,60.01997465991875,
204,0,204,0,,,,,,,,,,,,,,,,,,,,,,,,,,,,,,,,,,,,756.4955031001009,757.5185799999163,755.2547343999613,755.2547343999613,755.2547343999613,755.2547343999613,new_sceneIn_36.png,205,5.0,1.2345023001544178,,,076,11,2025-06-05_14h31.24.001,Surprise recog test,2023.1.3,60.01997465991875,
205,0,205,0,,,,,,,,,,,,,,,,,,,,,,,,,,,,,,,,,,,,758.9220469000284,,757.5185799999163,757.5185799999163,757.5185799999163,757.5185799999163,new_stationery_42.png,206,5.0,1.4055664998013526,,,076,11,2025-06-05_14h31.24.001,Surprise recog test,2023.1.3,60.01997465991875,
206,0,206,0,,,,,,,,,,,,,,,,,,,,,,,,,,,,,,,,,,,,762.1111292999703,763.1427462000865,759.9511847000103,759.9511847000103,759.9511847000103,759.9511847000103,new_sceneOut_15.png,207,5.0,2.160848799860105,,,076,11,2025-06-05_14h31.24.001,Surprise recog test,2023.1.3,60.01997465991875,
207,0,207,0,,,,,,,,,,,,,,,,,,,,,,,,,,,,,,,,,,,,764.8413549999241,765.8581523001194,763.1427462000865,763.1427462000865,763.1427462000865,763.1427462000865,old_stationery_46.png,208,5.0,1.7001259999815375,,,076,11,2025-06-05_14h31.24.001,Surprise recog test,2023.1.3,60.01997465991875,
208,0,208,0,,,,,,,,,,,,,,,,,,,,,,,,,,,,,,,,,,,,766.7139250000473,,765.8581523001194,765.8581523001194,765.8581523001194,765.8581523001194,old_sceneOut_34.png,209,5.0,0.8580593999940902,,,076,11,2025-06-05_14h31.24.001,Surprise recog test,2023.1.3,60.01997465991875,
209,0,209,0,,,,,,,,,,,,,,,,,,,,,,,,,,,,,,,,,,,,769.2026996000204,770.2286086999811,767.7470786999911,767.7470786999911,767.7470786999911,767.7470786999911,old_sceneIn_30.png,210,5.0,1.456895399838686,,,076,11,2025-06-05_14h31.24.001,Surprise recog test,2023.1.3,60.01997465991875,
210,0,210,0,,,,,,,,,,,,,,,,,,,,,,,,,,,,,,,,,,,,772.0805834999774,773.097269800026,770.2286086999811,770.2286086999811,770.2286086999811,770.2286086999811,new_fruit_39.png,211,4.0,1.850047699874267,,,076,11,2025-06-05_14h31.24.001,Surprise recog test,2023.1.3,60.01997465991875,
211,0,211,0,,,,,,,,,,,,,,,,,,,,,,,,,,,,,,,,,,,,776.5735931999516,777.590364200063,773.097269800026,773.097269800026,773.097269800026,773.097269800026,old_fruit_46.png,212,2.0,3.477511700009927,,,076,11,2025-06-05_14h31.24.001,Surprise recog test,2023.1.3,60.01997465991875,
212,0,212,0,,,,,,,,,,,,,,,,,,,,,,,,,,,,,,,,,,,,778.9369028001092,779.9576105000451,777.590364200063,777.590364200063,777.590364200063,777.590364200063,old_fruit_10.png,213,1.0,1.3412915000226349,,,076,11,2025-06-05_14h31.24.001,Surprise recog test,2023.1.3,60.01997465991875,
213,0,213,0,,,,,,,,,,,,,,,,,,,,,,,,,,,,,,,,,,,,781.8715282001067,782.8848878000863,779.9576105000451,779.9576105000451,779.9576105000451,779.9576105000451,old_stationery_39.png,214,4.0,1.9156134000513703,,,076,11,2025-06-05_14h31.24.001,Surprise recog test,2023.1.3,60.01997465991875,
214,0,214,0,,,,,,,,,,,,,,,,,,,,,,,,,,,,,,,,,,,,784.270890200045,785.285609500017,782.8848878000863,782.8848878000863,782.8848878000863,782.8848878000863,old_fruit_39.png,215,1.0,1.386372399982065,,,076,11,2025-06-05_14h31.24.001,Surprise recog test,2023.1.3,60.01997465991875,
215,0,215,0,,,,,,,,,,,,,,,,,,,,,,,,,,,,,,,,,,,,787.7052974000107,788.7287681000307,785.285609500017,785.285609500017,785.285609500017,785.285609500017,new_fruit_15.png,216,2.0,2.4166757001075894,,,076,11,2025-06-05_14h31.24.001,Surprise recog test,2023.1.3,60.01997465991875,
216,0,216,0,,,,,,,,,,,,,,,,,,,,,,,,,,,,,,,,,,,,790.2311027001124,791.2478277001064,788.7287681000307,788.7287681000307,788.7287681000307,788.7287681000307,new_stationery_4.png,217,5.0,1.5009081999305636,,,076,11,2025-06-05_14h31.24.001,Surprise recog test,2023.1.3,60.01997465991875,
217,0,217,0,,,,,,,,,,,,,,,,,,,,,,,,,,,,,,,,,,,,793.0817585000768,794.0891378999222,791.2478277001064,791.2478277001064,791.2478277001064,791.2478277001064,old_stationery_20.png,218,5.0,1.831727399956435,,,076,11,2025-06-05_14h31.24.001,Surprise recog test,2023.1.3,60.01997465991875,
218,0,218,0,,,,,,,,,,,,,,,,,,,,,,,,,,,,,,,,,,,,796.4499796000309,797.4637822001241,794.0891378999222,794.0891378999222,794.0891378999222,794.0891378999222,new_stationery_26.png,219,5.0,2.35614229994826,,,076,11,2025-06-05_14h31.24.001,Surprise recog test,2023.1.3,60.01997465991875,
219,0,219,0,,,,,,,,,,,,,,,,,,,,,,,,,,,,,,,,,,,,799.1233997999225,,797.4637822001241,797.4637822001241,797.4637822001241,797.4637822001241,old_fruit_29.png,220,3.0,1.6546148001216352,,,076,11,2025-06-05_14h31.24.001,Surprise recog test,2023.1.3,60.01997465991875,
220,0,220,0,,,,,,,,,,,,,,,,,,,,,,,,,,,,,,,,,,,,801.6560533000156,802.6696754998993,800.1477965000086,800.1477965000086,800.1477965000086,800.1477965000086,old_sceneOut_50.png,221,5.0,1.5042685000225902,,,076,11,2025-06-05_14h31.24.001,Surprise recog test,2023.1.3,60.01997465991875,
221,0,221,0,,,,,,,,,,,,,,,,,,,,,,,,,,,,,,,,,,,,804.3589433000889,805.3764601000585,802.6696754998993,802.6696754998993,802.6696754998993,802.6696754998993,old_fruit_2.png,222,1.0,1.6858949000015855,,,076,11,2025-06-05_14h31.24.001,Surprise recog test,2023.1.3,60.01997465991875,
222,0,222,0,,,,,,,,,,,,,,,,,,,,,,,,,,,,,,,,,,,,807.7228940001223,808.7471443999093,805.3764601000585,805.3764601000585,805.3764601000585,805.3764601000585,old_stationery_35.png,223,4.0,2.348277499899268,,,076,11,2025-06-05_14h31.24.001,Surprise recog test,2023.1.3,60.01997465991875,
223,0,223,0,,,,,,,,,,,,,,,,,,,,,,,,,,,,,,,,,,,,809.8156491001137,,808.7471443999093,808.7471443999093,808.7471443999093,808.7471443999093,new_sceneOut_24.png,224,5.0,1.0710954000242054,,,076,11,2025-06-05_14h31.24.001,Surprise recog test,2023.1.3,60.01997465991875,
224,0,224,0,,,,,,,,,,,,,,,,,,,,,,,,,,,,,,,,,,,,812.0066823998932,813.0348501000553,810.8458833999466,810.8458833999466,810.8458833999466,810.8458833999466,new_sceneOut_19.png,225,5.0,1.1634267999324948,,,076,11,2025-06-05_14h31.24.001,Surprise recog test,2023.1.3,60.01997465991875,
225,0,225,0,,,,,,,,,,,,,,,,,,,,,,,,,,,,,,,,,,,,814.0427021000069,815.0685219999868,813.0348501000553,813.0348501000553,813.0348501000553,813.0348501000553,new_stationery_2.png,226,5.0,1.0095770999323577,,,076,11,2025-06-05_14h31.24.001,Surprise recog test,2023.1.3,60.01997465991875,
226,0,226,0,,,,,,,,,,,,,,,,,,,,,,,,,,,,,,,,,,,,816.1241353999358,817.1516877000686,815.0685219999868,815.0685219999868,815.0685219999868,815.0685219999868,old_sceneOut_10.png,227,5.0,1.056639099959284,,,076,11,2025-06-05_14h31.24.001,Surprise recog test,2023.1.3,60.01997465991875,
227,0,227,0,,,,,,,,,,,,,,,,,,,,,,,,,,,,,,,,,,,,818.9226134000346,,817.1516877000686,817.1516877000686,817.1516877000686,817.1516877000686,new_fruit_2.png,228,1.0,1.774324599886313,,,076,11,2025-06-05_14h31.24.001,Surprise recog test,2023.1.3,60.01997465991875,
228,0,228,0,,,,,,,,,,,,,,,,,,,,,,,,,,,,,,,,,,,,821.344062600052,822.3720982999075,819.956708899932,819.956708899932,819.956708899932,819.956708899932,new_sceneIn_40.png,229,5.0,1.388994799926877,,,076,11,2025-06-05_14h31.24.001,Surprise recog test,2023.1.3,60.01997465991875,
229,0,229,0,,,,,,,,,,,,,,,,,,,,,,,,,,,,,,,,,,,,823.940693099983,824.959436800098,822.3720982999075,822.3720982999075,822.3720982999075,822.3720982999075,old_sceneOut_3.png,230,5.0,1.5643682000227273,,,076,11,2025-06-05_14h31.24.001,Surprise recog test,2023.1.3,60.01997465991875,
230,0,230,0,,,,,,,,,,,,,,,,,,,,,,,,,,,,,,,,,,,,825.6922144000418,826.713580599986,824.959436800098,824.959436800098,824.959436800098,824.959436800098,new_sceneOut_18.png,231,5.0,0.7314528999850154,,,076,11,2025-06-05_14h31.24.001,Surprise recog test,2023.1.3,60.01997465991875,
231,0,231,0,,,,,,,,,,,,,,,,,,,,,,,,,,,,,,,,,,,,829.331224600086,,826.713580599986,826.713580599986,826.713580599986,826.713580599986,new_stationery_43.png,232,5.0,2.616693700198084,,,076,11,2025-06-05_14h31.24.001,Surprise recog test,2023.1.3,60.01997465991875,
232,0,232,0,,,,,,,,,,,,,,,,,,,,,,,,,,,,,,,,,,,,832.981535299914,834.0009701000527,830.3691674999427,830.3691674999427,830.3691674999427,830.3691674999427,new_stationery_1.png,233,3.0,2.6135579000692815,,,076,11,2025-06-05_14h31.24.001,Surprise recog test,2023.1.3,60.01997465991875,
233,0,233,0,,,,,,,,,,,,,,,,,,,,,,,,,,,,,,,,,,,,835.4730923001189,836.4924804999027,834.0009701000527,834.0009701000527,834.0009701000527,834.0009701000527,old_fruit_23.png,234,1.0,1.4733070000074804,,,076,11,2025-06-05_14h31.24.001,Surprise recog test,2023.1.3,60.01997465991875,
234,0,234,0,,,,,,,,,,,,,,,,,,,,,,,,,,,,,,,,,,,,837.8928042000625,838.9229303000029,836.4924804999027,836.4924804999027,836.4924804999027,836.4924804999027,old_sceneIn_41.png,235,5.0,1.3962524000089616,,,076,11,2025-06-05_14h31.24.001,Surprise recog test,2023.1.3,60.01997465991875,
235,0,235,0,,,,,,,,,,,,,,,,,,,,,,,,,,,,,,,,,,,,840.3640203999821,841.3790879000444,838.9229303000029,838.9229303000029,838.9229303000029,838.9229303000029,old_sceneIn_44.png,236,5.0,1.441444099880755,,,076,11,2025-06-05_14h31.24.001,Surprise recog test,2023.1.3,60.01997465991875,
236,0,236,0,,,,,,,,,,,,,,,,,,,,,,,,,,,,,,,,,,,,842.7144877000246,843.7431622000877,841.3790879000444,841.3790879000444,841.3790879000444,841.3790879000444,new_sceneIn_29.png,237,5.0,1.3313913999591023,,,076,11,2025-06-05_14h31.24.001,Surprise recog test,2023.1.3,60.01997465991875,
237,0,237,0,,,,,,,,,,,,,,,,,,,,,,,,,,,,,,,,,,,,845.0942585000303,,843.7431622000877,843.7431622000877,843.7431622000877,843.7431622000877,old_sceneIn_29.png,238,5.0,1.3532646000385284,,,076,11,2025-06-05_14h31.24.001,Surprise recog test,2023.1.3,60.01997465991875,
238,0,238,0,,,,,,,,,,,,,,,,,,,,,,,,,,,,,,,,,,,,847.2861178000458,848.3081227000803,846.1225690001156,846.1225690001156,846.1225690001156,846.1225690001156,new_stationery_10.png,239,5.0,1.1653605001047254,,,076,11,2025-06-05_14h31.24.001,Surprise recog test,2023.1.3,60.01997465991875,
239,0,239,0,,,,,,,,,,,,,,,,,,,,,,,,,,,,,,,,,,,,850.3748159001116,851.39382080012,848.3081227000803,848.3081227000803,848.3081227000803,848.3081227000803,old_fruit_11.png,240,2.0,2.0655370999593288,,,076,11,2025-06-05_14h31.24.001,Surprise recog test,2023.1.3,60.01997465991875,
240,0,240,0,,,,,,,,,,,,,,,,,,,,,,,,,,,,,,,,,,,,853.436323300004,,851.39382080012,851.39382080012,851.39382080012,851.39382080012,new_fruit_41.png,241,4.0,2.0429622000083327,,,076,11,2025-06-05_14h31.24.001,Surprise recog test,2023.1.3,60.01997465991875,
241,0,241,0,,,,,,,,,,,,,,,,,,,,,,,,,,,,,,,,,,,,855.5406524999999,856.5669937001076,854.4563362000044,854.4563362000044,854.4563362000044,854.4563362000044,old_sceneOut_48.png,242,5.0,1.0796185999643058,,,076,11,2025-06-05_14h31.24.001,Surprise recog test,2023.1.3,60.01997465991875,
242,0,242,0,,,,,,,,,,,,,,,,,,,,,,,,,,,,,,,,,,,,858.0806217999198,859.1067307000048,856.5669937001076,856.5669937001076,856.5669937001076,856.5669937001076,old_fruit_15.png,243,1.0,1.5145241999998689,,,076,11,2025-06-05_14h31.24.001,Surprise recog test,2023.1.3,60.01997465991875,
243,0,243,0,,,,,,,,,,,,,,,,,,,,,,,,,,,,,,,,,,,,860.4460444999859,861.4747351999395,859.1067307000048,859.1067307000048,859.1067307000048,859.1067307000048,new_sceneIn_8.png,244,5.0,1.3412972001824528,,,076,11,2025-06-05_14h31.24.001,Surprise recog test,2023.1.3,60.01997465991875,
244,0,244,0,,,,,,,,,,,,,,,,,,,,,,,,,,,,,,,,,,,,862.7328675999306,863.7589799999259,861.4747351999395,861.4747351999395,861.4747351999395,861.4747351999395,new_sceneOut_35.png,245,5.0,1.2602217998355627,,,076,11,2025-06-05_14h31.24.001,Surprise recog test,2023.1.3,60.01997465991875,
245,0,245,0,,,,,,,,,,,,,,,,,,,,,,,,,,,,,,,,,,,,865.3115117000416,,863.7589799999259,863.7589799999259,863.7589799999259,863.7589799999259,old_sceneOut_41.png,246,5.0,1.5525936000049114,,,076,11,2025-06-05_14h31.24.001,Surprise recog test,2023.1.3,60.01997465991875,
246,0,246,0,,,,,,,,,,,,,,,,,,,,,,,,,,,,,,,,,,,,867.4794763000682,,866.3434913998935,866.3434913998935,866.3434913998935,866.3434913998935,old_sceneOut_8.png,247,5.0,1.1390458000823855,,,076,11,2025-06-05_14h31.24.001,Surprise recog test,2023.1.3,60.01997465991875,
247,0,247,0,,,,,,,,,,,,,,,,,,,,,,,,,,,,,,,,,,,,870.7299454999156,871.7507474999875,868.5071036000736,868.5071036000736,868.5071036000736,868.5071036000736,new_fruit_12.png,248,5.0,2.2237778999842703,,,076,11,2025-06-05_14h31.24.001,Surprise recog test,2023.1.3,60.01997465991875,
248,0,248,0,,,,,,,,,,,,,,,,,,,,,,,,,,,,,,,,,,,,874.4020187000278,,871.7507474999875,871.7507474999875,871.7507474999875,871.7507474999875,new_stationery_35.png,249,4.0,2.6521781999617815,,,076,11,2025-06-05_14h31.24.001,Surprise recog test,2023.1.3,60.01997465991875,
249,0,249,0,,,,,,,,,,,,,,,,,,,,,,,,,,,,,,,,,,,,876.6461489000358,877.6745160999708,875.4355460000224,875.4355460000224,875.4355460000224,875.4355460000224,old_sceneOut_1.png,250,5.0,1.2121946001425385,,,076,11,2025-06-05_14h31.24.001,Surprise recog test,2023.1.3,60.01997465991875,
250,0,250,0,,,,,,,,,,,,,,,,,,,,,,,,,,,,,,,,,,,,878.7098143999465,879.7367314000148,877.6745160999708,877.6745160999708,877.6745160999708,877.6745160999708,new_sceneOut_31.png,251,5.0,1.0369272001553327,,,076,11,2025-06-05_14h31.24.001,Surprise recog test,2023.1.3,60.01997465991875,
251,0,251,0,,,,,,,,,,,,,,,,,,,,,,,,,,,,,,,,,,,,881.4319543999154,882.4598183000926,879.7367314000148,879.7367314000148,879.7367314000148,879.7367314000148,new_stationery_6.png,252,5.0,1.6977178000379354,,,076,11,2025-06-05_14h31.24.001,Surprise recog test,2023.1.3,60.01997465991875,
252,0,252,0,,,,,,,,,,,,,,,,,,,,,,,,,,,,,,,,,,,,883.660990000004,,882.4598183000926,882.4598183000926,882.4598183000926,882.4598183000926,old_sceneIn_20.png,253,5.0,1.2011570001486689,,,076,11,2025-06-05_14h31.24.001,Surprise recog test,2023.1.3,60.01997465991875,
253,0,253,0,,,,,,,,,,,,,,,,,,,,,,,,,,,,,,,,,,,,886.2461387999356,,884.6812855999451,884.6812855999451,884.6812855999451,884.6812855999451,old_stationery_19.png,254,5.0,1.5595619999803603,,,076,11,2025-06-05_14h31.24.001,Surprise recog test,2023.1.3,60.01997465991875,
254,0,254,0,,,,,,,,,,,,,,,,,,,,,,,,,,,,,,,,,,,,888.2189070000313,889.2321284001227,887.2769943000749,887.2769943000749,887.2769943000749,887.2769943000749,new_stationery_44.png,255,5.0,0.9431469000410289,,,076,11,2025-06-05_14h31.24.001,Surprise recog test,2023.1.3,60.01997465991875,
255,0,255,0,,,,,,,,,,,,,,,,,,,,,,,,,,,,,,,,,,,,890.0499543000478,,889.2321284001227,889.2321284001227,889.2321284001227,889.2321284001227,old_sceneIn_2.png,256,5.0,0.8101293998770416,,,076,11,2025-06-05_14h31.24.001,Surprise recog test,2023.1.3,60.01997465991875,
256,0,256,0,,,,,,,,,,,,,,,,,,,,,,,,,,,,,,,,,,,,891.823900999967,892.8492241001222,891.0812820000574,891.0812820000574,891.0812820000574,891.0812820000574,new_sceneOut_22.png,257,5.0,0.7444907000754029,,,076,11,2025-06-05_14h31.24.001,Surprise recog test,2023.1.3,60.01997465991875,
257,0,257,0,,,,,,,,,,,,,,,,,,,,,,,,,,,,,,,,,,,,893.9910947999451,895.0171175000723,892.8492241001222,892.8492241001222,892.8492241001222,892.8492241001222,old_sceneOut_40.png,258,5.0,1.1433147001080215,,,076,11,2025-06-05_14h31.24.001,Surprise recog test,2023.1.3,60.01997465991875,
258,0,258,0,,,,,,,,,,,,,,,,,,,,,,,,,,,,,,,,,,,,896.8547964999452,,895.0171175000723,895.0171175000723,895.0171175000723,895.0171175000723,old_stationery_12.png,259,5.0,1.8372373001184314,,,076,11,2025-06-05_14h31.24.001,Surprise recog test,2023.1.3,60.01997465991875,
259,0,259,0,,,,,,,,,,,,,,,,,,,,,,,,,,,,,,,,,,,,901.0760625000112,902.0933411000296,897.887151800096,897.887151800096,897.887151800096,897.887151800096,old_fruit_49.png,260,4.0,3.1917476998642087,,,076,11,2025-06-05_14h31.24.001,Surprise recog test,2023.1.3,60.01997465991875,
260,0,260,0,,,,,,,,,,,,,,,,,,,,,,,,,,,,,,,,,,,,903.3103227999527,,902.0933411000296,902.0933411000296,902.0933411000296,902.0933411000296,old_sceneOut_29.png,261,5.0,1.2099183001555502,,,076,11,2025-06-05_14h31.24.001,Surprise recog test,2023.1.3,60.01997465991875,
261,0,261,0,,,,,,,,,,,,,,,,,,,,,,,,,,,,,,,,,,,,905.3453321000561,,904.338861499913,904.338861499913,904.338861499913,904.338861499913,old_sceneIn_13.png,262,5.0,1.0056741000153124,,,076,11,2025-06-05_14h31.24.001,Surprise recog test,2023.1.3,60.01997465991875,
262,0,262,0,,,,,,,,,,,,,,,,,,,,,,,,,,,,,,,,,,,,908.0958473999053,909.1149269999005,906.3738128000405,906.3738128000405,906.3738128000405,906.3738128000405,old_stationery_27.png,263,5.0,1.7218498000875115,,,076,11,2025-06-05_14h31.24.001,Surprise recog test,2023.1.3,60.01997465991875,
263,0,263,0,,,,,,,,,,,,,,,,,,,,,,,,,,,,,,,,,,,,911.7124642999843,912.7304273000918,909.1149269999005,909.1149269999005,909.1149269999005,909.1149269999005,old_fruit_36.png,264,3.0,2.600012300070375,,,076,11,2025-06-05_14h31.24.001,Surprise recog test,2023.1.3,60.01997465991875,
264,0,264,0,,,,,,,,,,,,,,,,,,,,,,,,,,,,,,,,,,,,914.1494158999994,915.1630738999229,912.7304273000918,912.7304273000918,912.7304273000918,912.7304273000918,old_stationery_32.png,265,5.0,1.4181971999350935,,,076,11,2025-06-05_14h31.24.001,Surprise recog test,2023.1.3,60.01997465991875,
265,0,265,0,,,,,,,,,,,,,,,,,,,,,,,,,,,,,,,,,,,,916.0780948000029,917.1037667000201,915.1630738999229,915.1630738999229,915.1630738999229,915.1630738999229,new_stationery_32.png,266,5.0,0.9156754999421537,,,076,11,2025-06-05_14h31.24.001,Surprise recog test,2023.1.3,60.01997465991875,
266,0,266,0,,,,,,,,,,,,,,,,,,,,,,,,,,,,,,,,,,,,918.0321339000948,919.0536789000034,917.1037667000201,917.1037667000201,917.1037667000201,917.1037667000201,old_sceneIn_47.png,267,5.0,0.9309490001760423,,,076,11,2025-06-05_14h31.24.001,Surprise recog test,2023.1.3,60.01997465991875,
267,0,267,0,,,,,,,,,,,,,,,,,,,,,,,,,,,,,,,,,,,,919.958401999902,,919.0536789000034,919.0536789000034,919.0536789000034,919.0536789000034,old_sceneIn_23.png,268,5.0,0.9043029001913965,,,076,11,2025-06-05_14h31.24.001,Surprise recog test,2023.1.3,60.01997465991875,
268,0,268,0,,,,,,,,,,,,,,,,,,,,,,,,,,,,,,,,,,,,922.5129132999573,923.5423250000458,920.9898679999169,920.9898679999169,920.9898679999169,920.9898679999169,new_sceneOut_50.png,269,5.0,1.5249921998474747,,,076,11,2025-06-05_14h31.24.001,Surprise recog test,2023.1.3,60.01997465991875,
269,0,269,0,,,,,,,,,,,,,,,,,,,,,,,,,,,,,,,,,,,,926.1060359000694,927.1280644000508,923.5423250000458,923.5423250000458,923.5423250000458,923.5423250000458,new_fruit_25.png,270,4.0,2.566437300061807,,,076,11,2025-06-05_14h31.24.001,Surprise recog test,2023.1.3,60.01997465991875,
270,0,270,0,,,,,,,,,,,,,,,,,,,,,,,,,,,,,,,,,,,,929.9214776000008,930.9442197999451,927.1280644000508,927.1280644000508,927.1280644000508,927.1280644000508,old_stationery_25.png,271,2.0,2.793810100061819,,,076,11,2025-06-05_14h31.24.001,Surprise recog test,2023.1.3,60.01997465991875,
271,0,271,0,,,,,,,,,,,,,,,,,,,,,,,,,,,,,,,,,,,,932.2332375000697,,930.9442197999451,930.9442197999451,930.9442197999451,930.9442197999451,new_sceneOut_27.png,272,5.0,1.2901733999606222,,,076,11,2025-06-05_14h31.24.001,Surprise recog test,2023.1.3,60.01997465991875,
272,0,272,0,,,,,,,,,,,,,,,,,,,,,,,,,,,,,,,,,,,,935.0299299000762,936.0465798999649,933.2680959000718,933.2680959000718,933.2680959000718,933.2680959000718,new_fruit_38.png,273,3.0,1.7605343000032008,,,076,11,2025-06-05_14h31.24.001,Surprise recog test,2023.1.3,60.01997465991875,
273,0,273,0,,,,,,,,,,,,,,,,,,,,,,,,,,,,,,,,,,,,938.6042712999042,939.6209750999697,936.0465798999649,936.0465798999649,936.0465798999649,936.0465798999649,new_fruit_8.png,274,1.0,2.55730769992806,,,076,11,2025-06-05_14h31.24.001,Surprise recog test,2023.1.3,60.01997465991875,
274,0,274,0,,,,,,,,,,,,,,,,,,,,,,,,,,,,,,,,,,,,941.4189689999912,942.4324481999502,939.6209750999697,939.6209750999697,939.6209750999697,939.6209750999697,new_stationery_30.png,275,5.0,1.8020683999639004,,,076,11,2025-06-05_14h31.24.001,Surprise recog test,2023.1.3,60.01997465991875,
275,0,275,0,,,,,,,,,,,,,,,,,,,,,,,,,,,,,,,,,,,,944.4745016000234,945.4916886999272,942.4324481999502,942.4324481999502,942.4324481999502,942.4324481999502,old_fruit_45.png,276,1.0,2.041096300119534,,,076,11,2025-06-05_14h31.24.001,Surprise recog test,2023.1.3,60.01997465991875,
276,0,276,0,,,,,,,,,,,,,,,,,,,,,,,,,,,,,,,,,,,,947.365283699939,948.3846418000758,945.4916886999272,945.4916886999272,945.4916886999272,945.4916886999272,old_stationery_11.png,277,5.0,1.8751592999324203,,,076,11,2025-06-05_14h31.24.001,Surprise recog test,2023.1.3,60.01997465991875,
277,0,277,0,,,,,,,,,,,,,,,,,,,,,,,,,,,,,,,,,,,,949.1123572001234,950.1325224000029,948.3846418000758,948.3846418000758,948.3846418000758,948.3846418000758,new_sceneIn_19.png,278,5.0,0.7237450000829995,,,076,11,2025-06-05_14h31.24.001,Surprise recog test,2023.1.3,60.01997465991875,
278,0,278,0,,,,,,,,,,,,,,,,,,,,,,,,,,,,,,,,,,,,951.4270625999197,952.4483690999914,950.1325224000029,950.1325224000029,950.1325224000029,950.1325224000029,new_sceneOut_11.png,279,5.0,1.296653299825266,,,076,11,2025-06-05_14h31.24.001,Surprise recog test,2023.1.3,60.01997465991875,
279,0,279,0,,,,,,,,,,,,,,,,,,,,,,,,,,,,,,,,,,,,953.9170353999361,954.9330951999873,952.4483690999914,952.4483690999914,952.4483690999914,952.4483690999914,new_fruit_24.png,280,5.0,1.4687219001352787,,,076,11,2025-06-05_14h31.24.001,Surprise recog test,2023.1.3,60.01997465991875,
280,0,280,0,,,,,,,,,,,,,,,,,,,,,,,,,,,,,,,,,,,,956.6749338998925,957.6946411998942,954.9330951999873,954.9330951999873,954.9330951999873,954.9330951999873,old_fruit_43.png,281,1.0,1.7434495000634342,,,076,11,2025-06-05_14h31.24.001,Surprise recog test,2023.1.3,60.01997465991875,
281,0,281,0,,,,,,,,,,,,,,,,,,,,,,,,,,,,,,,,,,,,959.38153959997,960.4063756000251,957.6946411998942,957.6946411998942,957.6946411998942,957.6946411998942,old_sceneIn_14.png,282,5.0,1.684630900155753,,,076,11,2025-06-05_14h31.24.001,Surprise recog test,2023.1.3,60.01997465991875,
282,0,282,0,,,,,,,,,,,,,,,,,,,,,,,,,,,,,,,,,,,,962.3064121999778,963.3223242000677,960.4063756000251,960.4063756000251,960.4063756000251,960.4063756000251,new_fruit_20.png,283,4.0,1.9012099001556635,,,076,11,2025-06-05_14h31.24.001,Surprise recog test,2023.1.3,60.01997465991875,
283,0,283,0,,,,,,,,,,,,,,,,,,,,,,,,,,,,,,,,,,,,964.3030177999754,965.3266573001165,963.3223242000677,963.3223242000677,963.3223242000677,963.3223242000677,new_sceneOut_14.png,284,5.0,0.9817493001464754,,,076,11,2025-06-05_14h31.24.001,Surprise recog test,2023.1.3,60.01997465991875,
284,0,284,0,,,,,,,,,,,,,,,,,,,,,,,,,,,,,,,,,,,,967.6000942001119,968.6181797999889,965.3266573001165,965.3266573001165,965.3266573001165,965.3266573001165,new_fruit_4.png,285,4.0,2.2747593000531197,,,076,11,2025-06-05_14h31.24.001,Surprise recog test,2023.1.3,60.01997465991875,
285,0,285,0,,,,,,,,,,,,,,,,,,,,,,,,,,,,,,,,,,,,969.9110948999878,970.9209471000358,968.6181797999889,968.6181797999889,968.6181797999889,968.6181797999889,new_sceneIn_30.png,286,5.0,1.2861699999775738,,,076,11,2025-06-05_14h31.24.001,Surprise recog test,2023.1.3,60.01997465991875,
286,0,286,0,,,,,,,,,,,,,,,,,,,,,,,,,,,,,,,,,,,,972.9192093000747,973.9534465000033,970.9209471000358,970.9209471000358,970.9209471000358,970.9209471000358,old_fruit_3.png,287,1.0,1.9941922000143677,,,076,11,2025-06-05_14h31.24.001,Surprise recog test,2023.1.3,60.01997465991875,
287,0,287,0,,,,,,,,,,,,,,,,,,,,,,,,,,,,,,,,,,,,975.2258272999898,976.2383501001168,973.9534465000033,973.9534465000033,973.9534465000033,973.9534465000033,old_sceneOut_32.png,288,5.0,1.2727648001164198,,,076,11,2025-06-05_14h31.24.001,Surprise recog test,2023.1.3,60.01997465991875,
288,0,288,0,,,,,,,,,,,,,,,,,,,,,,,,,,,,,,,,,,,,977.7252491000108,978.7423137000296,976.2383501001168,976.2383501001168,976.2383501001168,976.2383501001168,new_sceneIn_10.png,289,5.0,1.4813996001612395,,,076,11,2025-06-05_14h31.24.001,Surprise recog test,2023.1.3,60.01997465991875,
289,0,289,0,,,,,,,,,,,,,,,,,,,,,,,,,,,,,,,,,,,,980.0490345000289,981.062402300071,978.7423137000296,978.7423137000296,978.7423137000296,978.7423137000296,old_sceneIn_48.png,290,5.0,1.3014416999649256,,,076,11,2025-06-05_14h31.24.001,Surprise recog test,2023.1.3,60.01997465991875,
290,0,290,0,,,,,,,,,,,,,,,,,,,,,,,,,,,,,,,,,,,,982.1856722000521,983.2076457999647,981.062402300071,981.062402300071,981.062402300071,981.062402300071,old_sceneIn_4.png,291,5.0,1.1162248998880386,,,076,11,2025-06-05_14h31.24.001,Surprise recog test,2023.1.3,60.01997465991875,
291,0,291,0,,,,,,,,,,,,,,,,,,,,,,,,,,,,,,,,,,,,983.9794151000679,985.0019803999458,983.2076457999647,983.2076457999647,983.2076457999647,983.2076457999647,new_sceneOut_25.png,292,5.0,0.7734934000764042,,,076,11,2025-06-05_14h31.24.001,Surprise recog test,2023.1.3,60.01997465991875,
292,0,292,0,,,,,,,,,,,,,,,,,,,,,,,,,,,,,,,,,,,,985.9689120999537,986.990896299947,985.0019803999458,985.0019803999458,985.0019803999458,985.0019803999458,new_sceneIn_18.png,293,5.0,0.9635913998354226,,,076,11,2025-06-05_14h31.24.001,Surprise recog test,2023.1.3,60.01997465991875,
293,0,293,0,,,,,,,,,,,,,,,,,,,,,,,,,,,,,,,,,,,,987.8990688999183,988.9209282998927,986.990896299947,986.990896299947,986.990896299947,986.990896299947,old_sceneIn_25.png,294,5.0,0.9108243000227958,,,076,11,2025-06-05_14h31.24.001,Surprise recog test,2023.1.3,60.01997465991875,
294,0,294,0,,,,,,,,,,,,,,,,,,,,,,,,,,,,,,,,,,,,989.9309433000162,,988.9209282998927,988.9209282998927,988.9209282998927,988.9209282998927,old_stationery_6.png,295,5.0,1.0091494000516832,,,076,11,2025-06-05_14h31.24.001,Surprise recog test,2023.1.3,60.01997465991875,
295,0,295,0,,,,,,,,,,,,,,,,,,,,,,,,,,,,,,,,,,,,994.2212209000718,995.2446341000032,990.9513405000325,990.9513405000325,990.9513405000325,990.9513405000325,old_stationery_49.png,296,2.0,3.265622999984771,,,076,11,2025-06-05_14h31.24.001,Surprise recog test,2023.1.3,60.01997465991875,
296,0,296,0,,,,,,,,,,,,,,,,,,,,,,,,,,,,,,,,,,,,997.6262185999658,998.6541921000462,995.2446341000032,995.2446341000032,995.2446341000032,995.2446341000032,new_fruit_22.png,297,4.0,2.3817624000366777,,,076,11,2025-06-05_14h31.24.001,Surprise recog test,2023.1.3,60.01997465991875,
297,0,297,0,,,,,,,,,,,,,,,,,,,,,,,,,,,,,,,,,,,,1000.046165500069,1001.0681926999241,998.6541921000462,998.6541921000462,998.6541921000462,998.6541921000462,new_sceneIn_32.png,298,5.0,1.390214600134641,,,076,11,2025-06-05_14h31.24.001,Surprise recog test,2023.1.3,60.01997465991875,
298,0,298,0,,,,,,,,,,,,,,,,,,,,,,,,,,,,,,,,,,,,1003.7322142000776,1004.7624490000308,1001.0681926999241,1001.0681926999241,1001.0681926999241,1001.0681926999241,old_fruit_42.png,299,2.0,2.6657215000595897,,,076,11,2025-06-05_14h31.24.001,Surprise recog test,2023.1.3,60.01997465991875,
299,0,299,0,,,,,,,,,,,,,,,,,,,,,,,,,,,,,,,,,,,,1005.9855438000523,1006.9967547000851,1004.7624490000308,1004.7624490000308,1004.7624490000308,1004.7624490000308,new_sceneIn_37.png,300,5.0,1.2263648000080138,,,076,11,2025-06-05_14h31.24.001,Surprise recog test,2023.1.3,60.01997465991875,
300,0,300,0,,,,,,,,,,,,,,,,,,,,,,,,,,,,,,,,,,,,1008.1683336000424,1009.1979527999647,1006.9967547000851,1006.9967547000851,1006.9967547000851,1006.9967547000851,old_sceneIn_24.png,301,5.0,1.1677278999704868,,,076,11,2025-06-05_14h31.24.001,Surprise recog test,2023.1.3,60.01997465991875,
301,0,301,0,,,,,,,,,,,,,,,,,,,,,,,,,,,,,,,,,,,,1010.7712222000118,1011.7881108000875,1009.1979527999647,1009.1979527999647,1009.1979527999647,1009.1979527999647,old_fruit_19.png,302,1.0,1.5747389998286963,,,076,11,2025-06-05_14h31.24.001,Surprise recog test,2023.1.3,60.01997465991875,
302,0,302,0,,,,,,,,,,,,,,,,,,,,,,,,,,,,,,,,,,,,1013.3361311000772,1014.3569142001215,1011.7881108000875,1011.7881108000875,1011.7881108000875,1011.7881108000875,old_sceneOut_46.png,303,5.0,1.5416500000283122,,,076,11,2025-06-05_14h31.24.001,Surprise recog test,2023.1.3,60.01997465991875,
303,0,303,0,,,,,,,,,,,,,,,,,,,,,,,,,,,,,,,,,,,,1015.8388992000837,1016.8720867999364,1014.3569142001215,1014.3569142001215,1014.3569142001215,1014.3569142001215,old_sceneOut_15.png,304,5.0,1.478910299949348,,,076,11,2025-06-05_14h31.24.001,Surprise recog test,2023.1.3,60.01997465991875,
304,0,304,0,,,,,,,,,,,,,,,,,,,,,,,,,,,,,,,,,,,,1017.7361810998991,1018.7551146999467,1016.8720867999364,1016.8720867999364,1016.8720867999364,1016.8720867999364,new_sceneIn_5.png,305,5.0,0.8660285999067128,,,076,11,2025-06-05_14h31.24.001,Surprise recog test,2023.1.3,60.01997465991875,
305,0,305,0,,,,,,,,,,,,,,,,,,,,,,,,,,,,,,,,,,,,1020.4325880999677,1021.4601656000596,1018.7551146999467,1018.7551146999467,1018.7551146999467,1018.7551146999467,new_fruit_28.png,306,3.0,1.6786457998678088,,,076,11,2025-06-05_14h31.24.001,Surprise recog test,2023.1.3,60.01997465991875,
306,0,306,0,,,,,,,,,,,,,,,,,,,,,,,,,,,,,,,,,,,,1023.4770390999038,,1021.4601656000596,1021.4601656000596,1021.4601656000596,1021.4601656000596,old_fruit_38.png,307,2.0,2.0203863999340683,,,076,11,2025-06-05_14h31.24.001,Surprise recog test,2023.1.3,60.01997465991875,
307,0,307,0,,,,,,,,,,,,,,,,,,,,,,,,,,,,,,,,,,,,1025.7258454000112,1026.7336359999608,1024.501330900006,1024.501330900006,1024.501330900006,1024.501330900006,new_sceneIn_3.png,308,5.0,1.2217531001660973,,,076,11,2025-06-05_14h31.24.001,Surprise recog test,2023.1.3,60.01997465991875,
308,0,308,0,,,,,,,,,,,,,,,,,,,,,,,,,,,,,,,,,,,,1027.991674900055,1029.0159966000356,1026.7336359999608,1026.7336359999608,1026.7336359999608,1026.7336359999608,new_stationery_45.png,309,5.0,1.2539367000572383,,,076,11,2025-06-05_14h31.24.001,Surprise recog test,2023.1.3,60.01997465991875,
309,0,309,0,,,,,,,,,,,,,,,,,,,,,,,,,,,,,,,,,,,,1031.3336847999599,,1029.0159966000356,1029.0159966000356,1029.0159966000356,1029.0159966000356,new_fruit_18.png,310,3.0,2.3199646999128163,,,076,11,2025-06-05_14h31.24.001,Surprise recog test,2023.1.3,60.01997465991875,
310,0,310,0,,,,,,,,,,,,,,,,,,,,,,,,,,,,,,,,,,,,1033.381456000032,1034.3899137000553,1032.363279900048,1032.363279900048,1032.363279900048,1032.363279900048,old_stationery_17.png,311,5.0,1.0216108998283744,,,076,11,2025-06-05_14h31.24.001,Surprise recog test,2023.1.3,60.01997465991875,
311,0,311,0,,,,,,,,,,,,,,,,,,,,,,,,,,,,,,,,,,,,1036.2651619000826,1037.2936054000165,1034.3899137000553,1034.3899137000553,1034.3899137000553,1034.3899137000553,new_fruit_32.png,312,5.0,1.870907299919054,,,076,11,2025-06-05_14h31.24.001,Surprise recog test,2023.1.3,60.01997465991875,
312,0,312,0,,,,,,,,,,,,,,,,,,,,,,,,,,,,,,,,,,,,1039.0475270000752,1040.0716029999312,1037.2936054000165,1037.2936054000165,1037.2936054000165,1037.2936054000165,new_fruit_19.png,313,2.0,1.7565027999226004,,,076,11,2025-06-05_14h31.24.001,Surprise recog test,2023.1.3,60.01997465991875,
313,0,313,0,,,,,,,,,,,,,,,,,,,,,,,,,,,,,,,,,,,,1041.1171373999678,1042.1305573999416,1040.0716029999312,1040.0716029999312,1040.0716029999312,1040.0716029999312,old_sceneIn_8.png,314,5.0,1.0455096999648958,,,076,11,2025-06-05_14h31.24.001,Surprise recog test,2023.1.3,60.01997465991875,
314,0,314,0,,,,,,,,,,,,,,,,,,,,,,,,,,,,,,,,,,,,1043.8412621000316,1044.8617463998962,1042.1305573999416,1042.1305573999416,1042.1305573999416,1042.1305573999416,old_stationery_42.png,315,1.0,1.7098477000836283,,,076,11,2025-06-05_14h31.24.001,Surprise recog test,2023.1.3,60.01997465991875,
315,0,315,0,,,,,,,,,,,,,,,,,,,,,,,,,,,,,,,,,,,,1046.7654093001038,1047.7962851000484,1044.8617463998962,1044.8617463998962,1044.8617463998962,1044.8617463998962,old_stationery_37.png,316,4.0,1.9062757000792772,,,076,11,2025-06-05_14h31.24.001,Surprise recog test,2023.1.3,60.01997465991875,
316,0,316,0,,,,,,,,,,,,,,,,,,,,,,,,,,,,,,,,,,,,1048.8371949999128,1049.8605150000658,1047.7962851000484,1047.7962851000484,1047.7962851000484,1047.7962851000484,new_stationery_11.png,317,5.0,1.043361800024286,,,076,11,2025-06-05_14h31.24.001,Surprise recog test,2023.1.3,60.01997465991875,
317,0,317,0,,,,,,,,,,,,,,,,,,,,,,,,,,,,,,,,,,,,1051.4970738000702,1052.5091291998979,1049.8605150000658,1049.8605150000658,1049.8605150000658,1049.8605150000658,old_fruit_37.png,318,4.0,1.6384308999404311,,,076,11,2025-06-05_14h31.24.001,Surprise recog test,2023.1.3,60.01997465991875,
318,0,318,0,,,,,,,,,,,,,,,,,,,,,,,,,,,,,,,,,,,,1053.8330182000063,1054.8503169999458,1052.5091291998979,1052.5091291998979,1052.5091291998979,1052.5091291998979,new_stationery_27.png,319,5.0,1.321546700084582,,,076,11,2025-06-05_14h31.24.001,Surprise recog test,2023.1.3,60.01997465991875,
319,0,319,0,,,,,,,,,,,,,,,,,,,,,,,,,,,,,,,,,,,,1055.5607465000357,1056.5742550999857,1054.8503169999458,1054.8503169999458,1054.8503169999458,1054.8503169999458,old_sceneOut_33.png,320,5.0,0.7090298000257462,,,076,11,2025-06-05_14h31.24.001,Surprise recog test,2023.1.3,60.01997465991875,
320,0,320,0,,,,,,,,,,,,,,,,,,,,,,,,,,,,,,,,,,,,1057.471768300049,,1056.5742550999857,1056.5742550999857,1056.5742550999857,1056.5742550999857,old_sceneOut_21.png,321,5.0,0.8927271999418736,,,076,11,2025-06-05_14h31.24.001,Surprise recog test,2023.1.3,60.01997465991875,
321,0,321,0,,,,,,,,,,,,,,,,,,,,,,,,,,,,,,,,,,,,1060.1541156999301,1061.1669423999265,1058.4997902000323,1058.4997902000323,1058.4997902000323,1058.4997902000323,new_stationery_23.png,322,5.0,1.6555788000114262,,,076,11,2025-06-05_14h31.24.001,Surprise recog test,2023.1.3,60.01997465991875,
322,0,322,0,,,,,,,,,,,,,,,,,,,,,,,,,,,,,,,,,,,,1062.4333055999596,1063.44386749994,1061.1669423999265,1061.1669423999265,1061.1669423999265,1061.1669423999265,new_stationery_28.png,323,5.0,1.2672138998750597,,,076,11,2025-06-05_14h31.24.001,Surprise recog test,2023.1.3,60.01997465991875,
323,0,323,0,,,,,,,,,,,,,,,,,,,,,,,,,,,,,,,,,,,,1064.3776547999587,,1063.44386749994,1063.44386749994,1063.44386749994,1063.44386749994,old_sceneOut_9.png,324,5.0,0.929960299981758,,,076,11,2025-06-05_14h31.24.001,Surprise recog test,2023.1.3,60.01997465991875,
324,0,324,0,,,,,,,,,,,,,,,,,,,,,,,,,,,,,,,,,,,,1066.3618671000004,,1065.403798500076,1065.403798500076,1065.403798500076,1065.403798500076,new_stationery_39.png,325,5.0,0.9566947999410331,,,076,11,2025-06-05_14h31.24.001,Surprise recog test,2023.1.3,60.01997465991875,
325,0,325,0,,,,,,,,,,,,,,,,,,,,,,,,,,,,,,,,,,,,1069.1714069999289,1070.2013652999885,1067.3891229000874,1067.3891229000874,1067.3891229000874,1067.3891229000874,new_fruit_7.png,326,5.0,1.7836461998522282,,,076,11,2025-06-05_14h31.24.001,Surprise recog test,2023.1.3,60.01997465991875,
326,0,326,0,,,,,,,,,,,,,,,,,,,,,,,,,,,,,,,,,,,,1071.0810295001138,1072.0906446001027,1070.2013652999885,1070.2013652999885,1070.2013652999885,1070.2013652999885,old_stationery_15.png,327,5.0,0.8835235999431461,,,076,11,2025-06-05_14h31.24.001,Surprise recog test,2023.1.3,60.01997465991875,
327,0,327,0,,,,,,,,,,,,,,,,,,,,,,,,,,,,,,,,,,,,1073.3213551000226,1074.346411000006,1072.0906446001027,1072.0906446001027,1072.0906446001027,1072.0906446001027,new_sceneOut_26.png,328,5.0,1.2271998000796884,,,076,11,2025-06-05_14h31.24.001,Surprise recog test,2023.1.3,60.01997465991875,
328,0,328,0,,,,,,,,,,,,,,,,,,,,,,,,,,,,,,,,,,,,1076.3672305000946,1077.3824106999673,1074.346411000006,1074.346411000006,1074.346411000006,1074.346411000006,old_stationery_7.png,329,4.0,2.0203917999751866,,,076,11,2025-06-05_14h31.24.001,Surprise recog test,2023.1.3,60.01997465991875,
329,0,329,0,,,,,,,,,,,,,,,,,,,,,,,,,,,,,,,,,,,,1078.7026631000917,1079.7216552000027,1077.3824106999673,1077.3824106999673,1077.3824106999673,1077.3824106999673,new_stationery_37.png,330,5.0,1.3168176000472158,,,076,11,2025-06-05_14h31.24.001,Surprise recog test,2023.1.3,60.01997465991875,
330,0,330,0,,,,,,,,,,,,,,,,,,,,,,,,,,,,,,,,,,,,1080.86498329998,1081.8792936000973,1079.7216552000027,1079.7216552000027,1079.7216552000027,1079.7216552000027,new_stationery_5.png,331,5.0,1.1419007000513375,,,076,11,2025-06-05_14h31.24.001,Surprise recog test,2023.1.3,60.01997465991875,
331,0,331,0,,,,,,,,,,,,,,,,,,,,,,,,,,,,,,,,,,,,1083.6625906000845,1084.6907822999638,1081.8792936000973,1081.8792936000973,1081.8792936000973,1081.8792936000973,old_fruit_18.png,332,1.0,1.7789022999349982,,,076,11,2025-06-05_14h31.24.001,Surprise recog test,2023.1.3,60.01997465991875,
332,0,332,0,,,,,,,,,,,,,,,,,,,,,,,,,,,,,,,,,,,,1086.1144850999117,1087.145991700003,1084.6907822999638,1084.6907822999638,1084.6907822999638,1084.6907822999638,old_sceneIn_21.png,333,5.0,1.4263267999049276,,,076,11,2025-06-05_14h31.24.001,Surprise recog test,2023.1.3,60.01997465991875,
333,0,333,0,,,,,,,,,,,,,,,,,,,,,,,,,,,,,,,,,,,,1088.051157400012,1089.0804340001196,1087.145991700003,1087.145991700003,1087.145991700003,1087.145991700003,new_sceneIn_6.png,334,5.0,0.907344700070098,,,076,11,2025-06-05_14h31.24.001,Surprise recog test,2023.1.3,60.01997465991875,
334,0,334,0,,,,,,,,,,,,,,,,,,,,,,,,,,,,,,,,,,,,1089.8290603999048,1090.8484728999902,1089.0804340001196,1089.0804340001196,1089.0804340001196,1089.0804340001196,new_sceneOut_48.png,335,5.0,0.7486636000685394,,,076,11,2025-06-05_14h31.24.001,Surprise recog test,2023.1.3,60.01997465991875,
335,0,335,0,,,,,,,,,,,,,,,,,,,,,,,,,,,,,,,,,,,,1091.7963517000899,1092.8113065999933,1090.8484728999902,1090.8484728999902,1090.8484728999902,1090.8484728999902,new_stationery_49.png,336,5.0,0.9496335999574512,,,076,11,2025-06-05_14h31.24.001,Surprise recog test,2023.1.3,60.01997465991875,
336,0,336,0,,,,,,,,,,,,,,,,,,,,,,,,,,,,,,,,,,,,1095.9268497000448,1096.948905199999,1092.8113065999933,1092.8113065999933,1092.8113065999933,1092.8113065999933,old_fruit_12.png,337,4.0,3.117466300027445,,,076,11,2025-06-05_14h31.24.001,Surprise recog test,2023.1.3,60.01997465991875,
337,0,337,0,,,,,,,,,,,,,,,,,,,,,,,,,,,,,,,,,,,,1098.6782816001214,1099.706631399924,1096.948905199999,1096.948905199999,1096.948905199999,1096.948905199999,old_sceneOut_14.png,338,5.0,1.7302641000133008,,,076,11,2025-06-05_14h31.24.001,Surprise recog test,2023.1.3,60.01997465991875,
338,0,338,0,,,,,,,,,,,,,,,,,,,,,,,,,,,,,,,,,,,,1100.6906632001046,,1099.706631399924,1099.706631399924,1099.706631399924,1099.706631399924,old_sceneOut_25.png,339,5.0,0.9847341000568122,,,076,11,2025-06-05_14h31.24.001,Surprise recog test,2023.1.3,60.01997465991875,
339,0,339,0,,,,,,,,,,,,,,,,,,,,,,,,,,,,,,,,,,,,1104.5769247000571,,1101.7106365000363,1101.7106365000363,1101.7106365000363,1101.7106365000363,new_fruit_16.png,340,4.0,2.862759300041944,,,076,11,2025-06-05_14h31.24.001,Surprise recog test,2023.1.3,60.01997465991875,
340,0,340,0,,,,,,,,,,,,,,,,,,,,,,,,,,,,,,,,,,,,1107.4708261999767,1108.49066390004,1105.6061801000033,1105.6061801000033,1105.6061801000033,1105.6061801000033,old_fruit_8.png,341,2.0,1.8663602999877185,,,076,11,2025-06-05_14h31.24.001,Surprise recog test,2023.1.3,60.01997465991875,
341,0,341,0,,,,,,,,,,,,,,,,,,,,,,,,,,,,,,,,,,,,1110.7598947000224,1111.773512300104,1108.49066390004,1108.49066390004,1108.49066390004,1108.49066390004,new_sceneOut_33.png,342,4.0,2.269000200089067,,,076,11,2025-06-05_14h31.24.001,Surprise recog test,2023.1.3,60.01997465991875,
342,0,342,0,,,,,,,,,,,,,,,,,,,,,,,,,,,,,,,,,,,,1112.9252704998944,1113.9496361999772,1111.773512300104,1111.773512300104,1111.773512300104,1111.773512300104,old_sceneOut_18.png,343,5.0,1.1515671000815928,,,076,11,2025-06-05_14h31.24.001,Surprise recog test,2023.1.3,60.01997465991875,
343,0,343,0,,,,,,,,,,,,,,,,,,,,,,,,,,,,,,,,,,,,1114.9326375999954,1115.949892600067,1113.9496361999772,1113.9496361999772,1113.9496361999772,1113.9496361999772,old_sceneOut_12.png,344,5.0,0.9822748999577016,,,076,11,2025-06-05_14h31.24.001,Surprise recog test,2023.1.3,60.01997465991875,
344,0,344,0,,,,,,,,,,,,,,,,,,,,,,,,,,,,,,,,,,,,1116.7550363000482,,1115.949892600067,1115.949892600067,1115.949892600067,1115.949892600067,old_stationery_41.png,345,5.0,0.806668900186196,,,076,11,2025-06-05_14h31.24.001,Surprise recog test,2023.1.3,60.01997465991875,
345,0,345,0,,,,,,,,,,,,,,,,,,,,,,,,,,,,,,,,,,,,1118.55342989997,1119.5713283999357,1117.787525499938,1117.787525499938,1117.787525499938,1117.787525499938,old_sceneIn_11.png,346,5.0,0.7672986998222768,,,076,11,2025-06-05_14h31.24.001,Surprise recog test,2023.1.3,60.01997465991875,
346,0,346,0,,,,,,,,,,,,,,,,,,,,,,,,,,,,,,,,,,,,1121.6592598001007,,1119.5713283999357,1119.5713283999357,1119.5713283999357,1119.5713283999357,old_sceneIn_19.png,347,5.0,2.085335399955511,,,076,11,2025-06-05_14h31.24.001,Surprise recog test,2023.1.3,60.01997465991875,
347,0,347,0,,,,,,,,,,,,,,,,,,,,,,,,,,,,,,,,,,,,1123.974308700068,1124.9904322999064,1122.6784338001162,1122.6784338001162,1122.6784338001162,1122.6784338001162,new_stationery_40.png,348,5.0,1.2908799001015723,,,076,11,2025-06-05_14h31.24.001,Surprise recog test,2023.1.3,60.01997465991875,
348,0,348,0,,,,,,,,,,,,,,,,,,,,,,,,,,,,,,,,,,,,1127.1366572999395,1128.1504311999306,1124.9904322999064,1124.9904322999064,1124.9904322999064,1124.9904322999064,old_fruit_17.png,349,4.0,2.147520999889821,,,076,11,2025-06-05_14h31.24.001,Surprise recog test,2023.1.3,60.01997465991875,
349,0,349,0,,,,,,,,,,,,,,,,,,,,,,,,,,,,,,,,,,,,1130.5957035999745,1131.6036515999585,1128.1504311999306,1128.1504311999306,1128.1504311999306,1128.1504311999306,old_stationery_9.png,350,1.0,2.437516000121832,,,076,11,2025-06-05_14h31.24.001,Surprise recog test,2023.1.3,60.01997465991875,
350,0,350,0,,,,,,,,,,,,,,,,,,,,,,,,,,,,,,,,,,,,1133.1677029998973,,1131.6036515999585,1131.6036515999585,1131.6036515999585,1131.6036515999585,new_stationery_13.png,351,4.0,1.5603052999358624,,,076,11,2025-06-05_14h31.24.001,Surprise recog test,2023.1.3,60.01997465991875,
