trial_loop.thisRepN,trial_loop.thisTrialN,trial_loop.thisN,trial_loop.thisIndex,VAS_slider.started,VAS_text.started,VAS_notstressed_text.started,VAS_stressed_text.started,continue_input.started,continue_text.started,label0.started,label10.started,label20.started,label30.started,label40.started,label50.started,label60.started,label70.started,label80.started,label90.started,label100.started,VAS_slider.response,VAS_slider.rt,VAS_slider.history,Answer_VAS,continue_input.keys,continue_input.rt,continue_input.duration,instruction_text.started,continue_text_2.started,continue_input_2.started,continue_input_2.keys,continue_input_2.rt,continue_input_2.duration,example_text.started,example_slider_2.started,example_image.started,example_slider_2.response,example_slider_2.rt,fixcross.started,fixcross.stopped,front_square.started,stim_images.started,trial_inst_images.started,slider_images.started,thisImg,trial_count,slider_images.response,slider_images.rt,outro.started,participant,condition,date,expName,psychopyVersion,frameRate,
,,,,275.431697699707,275.431697699707,275.431697699707,275.431697699707,275.431697699707,275.431697699707,275.431697699707,275.431697699707,275.431697699707,275.431697699707,275.431697699707,275.431697699707,275.431697699707,275.431697699707,275.431697699707,275.431697699707,275.431697699707,None,None,[],1.199999999999998,space,31.77397320047021,None,,,,,,,,,,,,,,,,,,,,,,,077,00,2025-06-17_14h12.34.885,Surprise recog test,2023.1.3,60.01161828187628,
,,,,,,,,,,,,,,,,,,,,,,,,,,,,307.26565960003063,307.26565960003063,307.26565960003063,space,13.79676470020786,None,,,,,,,,,,,,,,,,,077,00,2025-06-17_14h12.34.885,Surprise recog test,2023.1.3,60.01161828187628,
0,0,0,0,,,,,,,,,,,,,,,,,,,,,,,,,,,,,,,321.1911210999824,321.1911210999824,321.1911210999824,2.0,12.03572740033269,337.2263993998058,338.24932069983333,334.1900126999244,334.1900126999244,334.1900126999244,334.1900126999244,old_sceneOut_24.png,1,4.0,3.0427664001472294,,077,00,2025-06-17_14h12.34.885,Surprise recog test,2023.1.3,60.01161828187628,
1,0,1,0,,,,,,,,,,,,,,,,,,,,,,,,,,,,,,,,,,,,340.6971371998079,341.7103856001049,338.24932069983333,338.24932069983333,338.24932069983333,338.24932069983333,old_stationery_19.png,2,4.0,2.4486801996827126,,077,00,2025-06-17_14h12.34.885,Surprise recog test,2023.1.3,60.01161828187628,
2,0,2,0,,,,,,,,,,,,,,,,,,,,,,,,,,,,,,,,,,,,344.52138100005686,345.5317579996772,341.7103856001049,341.7103856001049,341.7103856001049,341.7103856001049,old_fruit_6.png,3,4.0,2.8081414001062512,,077,00,2025-06-17_14h12.34.885,Surprise recog test,2023.1.3,60.01161828187628,
3,0,3,0,,,,,,,,,,,,,,,,,,,,,,,,,,,,,,,,,,,,347.76379049988464,,345.5317579996772,345.5317579996772,345.5317579996772,345.5317579996772,new_stationery_31.png,4,3.0,2.2282211002893746,,077,00,2025-06-17_14h12.34.885,Surprise recog test,2023.1.3,60.01161828187628,
4,0,4,0,,,,,,,,,,,,,,,,,,,,,,,,,,,,,,,,,,,,350.980116199702,351.9915497000329,348.7968468000181,348.7968468000181,348.7968468000181,348.7968468000181,new_fruit_25.png,5,2.0,2.179467299953103,,077,00,2025-06-17_14h12.34.885,Surprise recog test,2023.1.3,60.01161828187628,
5,0,5,0,,,,,,,,,,,,,,,,,,,,,,,,,,,,,,,,,,,,353.7871149997227,354.817518199794,351.9915497000329,351.9915497000329,351.9915497000329,351.9915497000329,new_sceneIn_6.png,6,5.0,1.7887299000285566,,077,00,2025-06-17_14h12.34.885,Surprise recog test,2023.1.3,60.01161828187628,
6,0,6,0,,,,,,,,,,,,,,,,,,,,,,,,,,,,,,,,,,,,356.8770330999978,357.90513319987804,354.817518199794,354.817518199794,354.817518199794,354.817518199794,old_fruit_22.png,7,3.0,2.0607282002456486,,077,00,2025-06-17_14h12.34.885,Surprise recog test,2023.1.3,60.01161828187628,
7,0,7,0,,,,,,,,,,,,,,,,,,,,,,,,,,,,,,,,,,,,359.8602935997769,360.88558200001717,357.90513319987804,357.90513319987804,357.90513319987804,357.90513319987804,old_sceneIn_14.png,8,1.0,1.957006299868226,,077,00,2025-06-17_14h12.34.885,Surprise recog test,2023.1.3,60.01161828187628,
8,0,8,0,,,,,,,,,,,,,,,,,,,,,,,,,,,,,,,,,,,,362.98435029992834,364.0133591997437,360.88558200001717,360.88558200001717,360.88558200001717,360.88558200001717,new_sceneOut_33.png,9,2.0,2.0988088003359735,,077,00,2025-06-17_14h12.34.885,Surprise recog test,2023.1.3,60.01161828187628,
9,0,9,0,,,,,,,,,,,,,,,,,,,,,,,,,,,,,,,,,,,,366.52651329990476,367.53363330010325,364.0133591997437,364.0133591997437,364.0133591997437,364.0133591997437,new_sceneIn_5.png,10,4.0,2.51106319995597,,077,00,2025-06-17_14h12.34.885,Surprise recog test,2023.1.3,60.01161828187628,
10,0,10,0,,,,,,,,,,,,,,,,,,,,,,,,,,,,,,,,,,,,369.863309700042,370.8849901999347,367.53363330010325,367.53363330010325,367.53363330010325,367.53363330010325,new_sceneOut_39.png,11,4.0,2.324806799646467,,077,00,2025-06-17_14h12.34.885,Surprise recog test,2023.1.3,60.01161828187628,
11,0,11,0,,,,,,,,,,,,,,,,,,,,,,,,,,,,,,,,,,,,372.79266189970076,373.8039170000702,370.8849901999347,370.8849901999347,370.8849901999347,370.8849901999347,new_fruit_33.png,12,5.0,1.9121220000088215,,077,00,2025-06-17_14h12.34.885,Surprise recog test,2023.1.3,60.01161828187628,
12,0,12,0,,,,,,,,,,,,,,,,,,,,,,,,,,,,,,,,,,,,375.53381059970707,376.54283039970323,373.8039170000702,373.8039170000702,373.8039170000702,373.8039170000702,old_stationery_16.png,13,4.0,1.7257042997516692,,077,00,2025-06-17_14h12.34.885,Surprise recog test,2023.1.3,60.01161828187628,
13,0,13,0,,,,,,,,,,,,,,,,,,,,,,,,,,,,,,,,,,,,378.4921188997105,379.5102363997139,376.54283039970323,376.54283039970323,376.54283039970323,376.54283039970323,old_stationery_23.png,14,2.0,1.9410275998525321,,077,00,2025-06-17_14h12.34.885,Surprise recog test,2023.1.3,60.01161828187628,
14,0,14,0,,,,,,,,,,,,,,,,,,,,,,,,,,,,,,,,,,,,381.3147909999825,382.33622319996357,379.5102363997139,379.5102363997139,379.5102363997139,379.5102363997139,old_sceneOut_17.png,15,5.0,1.8007570002228022,,077,00,2025-06-17_14h12.34.885,Surprise recog test,2023.1.3,60.01161828187628,
15,0,15,0,,,,,,,,,,,,,,,,,,,,,,,,,,,,,,,,,,,,384.1830033999868,385.2100025000982,382.33622319996357,382.33622319996357,382.33622319996357,382.33622319996357,new_stationery_37.png,16,4.0,1.8473887001164258,,077,00,2025-06-17_14h12.34.885,Surprise recog test,2023.1.3,60.01161828187628,
16,0,16,0,,,,,,,,,,,,,,,,,,,,,,,,,,,,,,,,,,,,386.72433859994635,387.7349735000171,385.2100025000982,385.2100025000982,385.2100025000982,385.2100025000982,new_stationery_14.png,17,4.0,1.5149840000085533,,077,00,2025-06-17_14h12.34.885,Surprise recog test,2023.1.3,60.01161828187628,
17,0,17,0,,,,,,,,,,,,,,,,,,,,,,,,,,,,,,,,,,,,390.154155400116,391.1842827000655,387.7349735000171,387.7349735000171,387.7349735000171,387.7349735000171,new_sceneOut_7.png,18,5.0,2.4144478999078274,,077,00,2025-06-17_14h12.34.885,Surprise recog test,2023.1.3,60.01161828187628,
18,0,18,0,,,,,,,,,,,,,,,,,,,,,,,,,,,,,,,,,,,,393.400242799893,394.4238776997663,391.1842827000655,391.1842827000655,391.1842827000655,391.1842827000655,new_sceneIn_31.png,19,5.0,2.219395300373435,,077,00,2025-06-17_14h12.34.885,Surprise recog test,2023.1.3,60.01161828187628,
19,0,19,0,,,,,,,,,,,,,,,,,,,,,,,,,,,,,,,,,,,,396.68483779998496,397.702952099964,394.4238776997663,394.4238776997663,394.4238776997663,394.4238776997663,old_fruit_24.png,20,4.0,2.264709699898958,,077,00,2025-06-17_14h12.34.885,Surprise recog test,2023.1.3,60.01161828187628,
20,0,20,0,,,,,,,,,,,,,,,,,,,,,,,,,,,,,,,,,,,,399.68878989992663,400.7106898999773,397.702952099964,397.702952099964,397.702952099964,397.702952099964,new_stationery_23.png,21,3.0,1.9854684001766145,,077,00,2025-06-17_14h12.34.885,Surprise recog test,2023.1.3,60.01161828187628,
21,0,21,0,,,,,,,,,,,,,,,,,,,,,,,,,,,,,,,,,,,,402.34819009993225,403.37061040010303,400.7106898999773,400.7106898999773,400.7106898999773,400.7106898999773,old_sceneIn_46.png,22,5.0,1.6402950999327004,,077,00,2025-06-17_14h12.34.885,Surprise recog test,2023.1.3,60.01161828187628,
22,0,22,0,,,,,,,,,,,,,,,,,,,,,,,,,,,,,,,,,,,,404.9689575000666,405.9822832001373,403.37061040010303,403.37061040010303,403.37061040010303,403.37061040010303,new_stationery_21.png,23,5.0,1.597039199899882,,077,00,2025-06-17_14h12.34.885,Surprise recog test,2023.1.3,60.01161828187628,
23,0,23,0,,,,,,,,,,,,,,,,,,,,,,,,,,,,,,,,,,,,408.0156644000672,,405.9822832001373,405.9822832001373,405.9822832001373,405.9822832001373,new_stationery_35.png,24,1.0,2.0287811998277903,,077,00,2025-06-17_14h12.34.885,Surprise recog test,2023.1.3,60.01161828187628,
24,0,24,0,,,,,,,,,,,,,,,,,,,,,,,,,,,,,,,,,,,,411.55081399995834,,409.0516217998229,409.0516217998229,409.0516217998229,409.0516217998229,old_stationery_15.png,25,3.0,2.5028320997953415,,077,00,2025-06-17_14h12.34.885,Surprise recog test,2023.1.3,60.01161828187628,
25,0,25,0,,,,,,,,,,,,,,,,,,,,,,,,,,,,,,,,,,,,414.05912380013615,415.07966469973326,412.5766318999231,412.5766318999231,412.5766318999231,412.5766318999231,new_sceneOut_8.png,26,4.0,1.4822971997782588,,077,00,2025-06-17_14h12.34.885,Surprise recog test,2023.1.3,60.01161828187628,
26,0,26,0,,,,,,,,,,,,,,,,,,,,,,,,,,,,,,,,,,,,417.59406989999115,418.6148588997312,415.07966469973326,415.07966469973326,415.07966469973326,415.07966469973326,old_stationery_1.png,27,4.0,2.5117307999171317,,077,00,2025-06-17_14h12.34.885,Surprise recog test,2023.1.3,60.01161828187628,
27,0,27,0,,,,,,,,,,,,,,,,,,,,,,,,,,,,,,,,,,,,420.00445939972997,421.0226471996866,418.6148588997312,418.6148588997312,418.6148588997312,418.6148588997312,old_sceneOut_32.png,28,5.0,1.3897765995934606,,077,00,2025-06-17_14h12.34.885,Surprise recog test,2023.1.3,60.01161828187628,
28,0,28,0,,,,,,,,,,,,,,,,,,,,,,,,,,,,,,,,,,,,422.40725679975003,423.41077549988404,421.0226471996866,421.0226471996866,421.0226471996866,421.0226471996866,old_sceneOut_28.png,29,5.0,1.3854847000911832,,077,00,2025-06-17_14h12.34.885,Surprise recog test,2023.1.3,60.01161828187628,
29,0,29,0,,,,,,,,,,,,,,,,,,,,,,,,,,,,,,,,,,,,426.42196880001575,427.43435009988025,423.41077549988404,423.41077549988404,423.41077549988404,423.41077549988404,old_sceneIn_35.png,30,4.0,3.006428000051528,,077,00,2025-06-17_14h12.34.885,Surprise recog test,2023.1.3,60.01161828187628,
30,0,30,0,,,,,,,,,,,,,,,,,,,,,,,,,,,,,,,,,,,,429.3276809998788,430.34753759996966,427.43435009988025,427.43435009988025,427.43435009988025,427.43435009988025,new_sceneOut_46.png,31,4.0,1.888187600299716,,077,00,2025-06-17_14h12.34.885,Surprise recog test,2023.1.3,60.01161828187628,
31,0,31,0,,,,,,,,,,,,,,,,,,,,,,,,,,,,,,,,,,,,431.7956658997573,432.8180725998245,430.34753759996966,430.34753759996966,430.34753759996966,430.34753759996966,old_sceneOut_1.png,32,4.0,1.449007899966091,,077,00,2025-06-17_14h12.34.885,Surprise recog test,2023.1.3,60.01161828187628,
32,0,32,0,,,,,,,,,,,,,,,,,,,,,,,,,,,,,,,,,,,,433.8018684000708,,432.8180725998245,432.8180725998245,432.8180725998245,432.8180725998245,new_sceneOut_6.png,33,4.0,0.9862389001064003,,077,00,2025-06-17_14h12.34.885,Surprise recog test,2023.1.3,60.01161828187628,
33,0,33,0,,,,,,,,,,,,,,,,,,,,,,,,,,,,,,,,,,,,436.8240515999496,437.84843639982864,434.82336709974334,434.82336709974334,434.82336709974334,434.82336709974334,new_sceneOut_18.png,34,5.0,1.995646100025624,,077,00,2025-06-17_14h12.34.885,Surprise recog test,2023.1.3,60.01161828187628,
34,0,34,0,,,,,,,,,,,,,,,,,,,,,,,,,,,,,,,,,,,,439.37490199971944,,437.84843639982864,437.84843639982864,437.84843639982864,437.84843639982864,old_stationery_45.png,35,3.0,1.5226773000322282,,077,00,2025-06-17_14h12.34.885,Surprise recog test,2023.1.3,60.01161828187628,
35,0,35,0,,,,,,,,,,,,,,,,,,,,,,,,,,,,,,,,,,,,443.1945976000279,,440.4087849999778,440.4087849999778,440.4087849999778,440.4087849999778,old_sceneOut_5.png,36,4.0,2.788711799774319,,077,00,2025-06-17_14h12.34.885,Surprise recog test,2023.1.3,60.01161828187628,
36,0,36,0,,,,,,,,,,,,,,,,,,,,,,,,,,,,,,,,,,,,445.6652552001178,446.6940289000049,444.2265284000896,444.2265284000896,444.2265284000896,444.2265284000896,new_sceneOut_12.png,37,5.0,1.4399439003318548,,077,00,2025-06-17_14h12.34.885,Surprise recog test,2023.1.3,60.01161828187628,
37,0,37,0,,,,,,,,,,,,,,,,,,,,,,,,,,,,,,,,,,,,448.70057850005105,449.72469249973074,446.6940289000049,446.6940289000049,446.6940289000049,446.6940289000049,old_stationery_41.png,38,3.0,2.0082571003586054,,077,00,2025-06-17_14h12.34.885,Surprise recog test,2023.1.3,60.01161828187628,
38,0,38,0,,,,,,,,,,,,,,,,,,,,,,,,,,,,,,,,,,,,451.4254946000874,452.4509414997883,449.72469249973074,449.72469249973074,449.72469249973074,449.72469249973074,new_sceneOut_5.png,39,4.0,1.6996439001522958,,077,00,2025-06-17_14h12.34.885,Surprise recog test,2023.1.3,60.01161828187628,
39,0,39,0,,,,,,,,,,,,,,,,,,,,,,,,,,,,,,,,,,,,453.94189570005983,454.967814499978,452.4509414997883,452.4509414997883,452.4509414997883,452.4509414997883,old_fruit_27.png,40,2.0,1.4910425003618002,,077,00,2025-06-17_14h12.34.885,Surprise recog test,2023.1.3,60.01161828187628,
40,0,40,0,,,,,,,,,,,,,,,,,,,,,,,,,,,,,,,,,,,,456.30004070000723,457.31995839998126,454.967814499978,454.967814499978,454.967814499978,454.967814499978,new_stationery_36.png,41,2.0,1.3334035999141634,,077,00,2025-06-17_14h12.34.885,Surprise recog test,2023.1.3,60.01161828187628,
41,0,41,0,,,,,,,,,,,,,,,,,,,,,,,,,,,,,,,,,,,,458.7595436000265,459.7902214997448,457.31995839998126,457.31995839998126,457.31995839998126,457.31995839998126,old_stationery_27.png,42,3.0,1.4395924001000822,,077,00,2025-06-17_14h12.34.885,Surprise recog test,2023.1.3,60.01161828187628,
42,0,42,0,,,,,,,,,,,,,,,,,,,,,,,,,,,,,,,,,,,,462.1945372996852,463.2252456001006,459.7902214997448,459.7902214997448,459.7902214997448,459.7902214997448,new_sceneOut_16.png,43,3.0,2.4051822000183165,,077,00,2025-06-17_14h12.34.885,Surprise recog test,2023.1.3,60.01161828187628,
43,0,43,0,,,,,,,,,,,,,,,,,,,,,,,,,,,,,,,,,,,,464.6209657997824,465.63170319981873,463.2252456001006,463.2252456001006,463.2252456001006,463.2252456001006,old_sceneIn_12.png,44,4.0,1.396014700178057,,077,00,2025-06-17_14h12.34.885,Surprise recog test,2023.1.3,60.01161828187628,
44,0,44,0,,,,,,,,,,,,,,,,,,,,,,,,,,,,,,,,,,,,467.3589348997921,468.3791579999961,465.63170319981873,465.63170319981873,465.63170319981873,465.63170319981873,new_fruit_6.png,45,3.0,1.720800600014627,,077,00,2025-06-17_14h12.34.885,Surprise recog test,2023.1.3,60.01161828187628,
45,0,45,0,,,,,,,,,,,,,,,,,,,,,,,,,,,,,,,,,,,,470.1312230001204,,468.3791579999961,468.3791579999961,468.3791579999961,468.3791579999961,old_fruit_21.png,46,2.0,1.7536177998408675,,077,00,2025-06-17_14h12.34.885,Surprise recog test,2023.1.3,60.01161828187628,
46,0,46,0,,,,,,,,,,,,,,,,,,,,,,,,,,,,,,,,,,,,472.7314093997702,473.7383655998856,471.1550154997967,471.1550154997967,471.1550154997967,471.1550154997967,new_sceneIn_39.png,47,3.0,1.5720333997160196,,077,00,2025-06-17_14h12.34.885,Surprise recog test,2023.1.3,60.01161828187628,
47,0,47,0,,,,,,,,,,,,,,,,,,,,,,,,,,,,,,,,,,,,475.525889699813,476.5514762001112,473.7383655998856,473.7383655998856,473.7383655998856,473.7383655998856,old_sceneOut_34.png,48,3.0,1.7834822000004351,,077,00,2025-06-17_14h12.34.885,Surprise recog test,2023.1.3,60.01161828187628,
48,0,48,0,,,,,,,,,,,,,,,,,,,,,,,,,,,,,,,,,,,,478.92117629991844,479.9390086000785,476.5514762001112,476.5514762001112,476.5514762001112,476.5514762001112,new_stationery_1.png,49,3.0,2.3690998000092804,,077,00,2025-06-17_14h12.34.885,Surprise recog test,2023.1.3,60.01161828187628,
49,0,49,0,,,,,,,,,,,,,,,,,,,,,,,,,,,,,,,,,,,,482.27828849991783,483.309935499914,479.9390086000785,479.9390086000785,479.9390086000785,479.9390086000785,new_fruit_38.png,50,3.0,2.3419689000584185,,077,00,2025-06-17_14h12.34.885,Surprise recog test,2023.1.3,60.01161828187628,
50,0,50,0,,,,,,,,,,,,,,,,,,,,,,,,,,,,,,,,,,,,485.02603079983965,486.0448924000375,483.309935499914,483.309935499914,483.309935499914,483.309935499914,new_stationery_41.png,51,5.0,1.718670000322163,,077,00,2025-06-17_14h12.34.885,Surprise recog test,2023.1.3,60.01161828187628,
51,0,51,0,,,,,,,,,,,,,,,,,,,,,,,,,,,,,,,,,,,,487.41480719996616,,486.0448924000375,486.0448924000375,486.0448924000375,486.0448924000375,new_fruit_18.png,52,4.0,1.3708207001909614,,077,00,2025-06-17_14h12.34.885,Surprise recog test,2023.1.3,60.01161828187628,
52,0,52,0,,,,,,,,,,,,,,,,,,,,,,,,,,,,,,,,,,,,489.9712918000296,490.99296869989485,488.4456853000447,488.4456853000447,488.4456853000447,488.4456853000447,new_stationery_28.png,53,3.0,1.5249597998335958,,077,00,2025-06-17_14h12.34.885,Surprise recog test,2023.1.3,60.01161828187628,
53,0,53,0,,,,,,,,,,,,,,,,,,,,,,,,,,,,,,,,,,,,493.1836763001047,,490.99296869989485,490.99296869989485,490.99296869989485,490.99296869989485,new_sceneOut_13.png,54,5.0,2.188806400168687,,077,00,2025-06-17_14h12.34.885,Surprise recog test,2023.1.3,60.01161828187628,
54,0,54,0,,,,,,,,,,,,,,,,,,,,,,,,,,,,,,,,,,,,495.9567002998665,496.97833639988676,494.2142294999212,494.2142294999212,494.2142294999212,494.2142294999212,new_sceneIn_43.png,55,5.0,1.7438520998694003,,077,00,2025-06-17_14h12.34.885,Surprise recog test,2023.1.3,60.01161828187628,
55,0,55,0,,,,,,,,,,,,,,,,,,,,,,,,,,,,,,,,,,,,498.55288300011307,499.5728714996949,496.97833639988676,496.97833639988676,496.97833639988676,496.97833639988676,old_stationery_14.png,56,2.0,1.5731378998607397,,077,00,2025-06-17_14h12.34.885,Surprise recog test,2023.1.3,60.01161828187628,
56,0,56,0,,,,,,,,,,,,,,,,,,,,,,,,,,,,,,,,,,,,501.2456235997379,502.2745815999806,499.5728714996949,499.5728714996949,499.5728714996949,499.5728714996949,new_stationery_46.png,57,4.0,1.675463399849832,,077,00,2025-06-17_14h12.34.885,Surprise recog test,2023.1.3,60.01161828187628,
57,0,57,0,,,,,,,,,,,,,,,,,,,,,,,,,,,,,,,,,,,,503.6810405999422,504.71154069993645,502.2745815999806,502.2745815999806,502.2745815999806,502.2745815999806,old_sceneOut_31.png,58,4.0,1.4075277000665665,,077,00,2025-06-17_14h12.34.885,Surprise recog test,2023.1.3,60.01161828187628,
58,0,58,0,,,,,,,,,,,,,,,,,,,,,,,,,,,,,,,,,,,,506.1925701997243,507.2118095997721,504.71154069993645,504.71154069993645,504.71154069993645,504.71154069993645,new_fruit_34.png,59,4.0,1.477594300173223,,077,00,2025-06-17_14h12.34.885,Surprise recog test,2023.1.3,60.01161828187628,
59,0,59,0,,,,,,,,,,,,,,,,,,,,,,,,,,,,,,,,,,,,508.76027589989826,509.76991479983553,507.2118095997721,507.2118095997721,507.2118095997721,507.2118095997721,new_sceneOut_31.png,60,4.0,1.549049099907279,,077,00,2025-06-17_14h12.34.885,Surprise recog test,2023.1.3,60.01161828187628,
60,0,60,0,,,,,,,,,,,,,,,,,,,,,,,,,,,,,,,,,,,,511.4394462998025,512.4651649999432,509.76991479983553,509.76991479983553,509.76991479983553,509.76991479983553,old_fruit_40.png,61,3.0,1.6643845001235604,,077,00,2025-06-17_14h12.34.885,Surprise recog test,2023.1.3,60.01161828187628,
61,0,61,0,,,,,,,,,,,,,,,,,,,,,,,,,,,,,,,,,,,,514.0657986998558,515.0873189996928,512.4651649999432,512.4651649999432,512.4651649999432,512.4651649999432,new_fruit_39.png,62,4.0,1.6007612999528646,,077,00,2025-06-17_14h12.34.885,Surprise recog test,2023.1.3,60.01161828187628,
62,0,62,0,,,,,,,,,,,,,,,,,,,,,,,,,,,,,,,,,,,,517.3540066997521,,515.0873189996928,515.0873189996928,515.0873189996928,515.0873189996928,old_sceneIn_1.png,63,5.0,2.2665615999139845,,077,00,2025-06-17_14h12.34.885,Surprise recog test,2023.1.3,60.01161828187628,
63,0,63,0,,,,,,,,,,,,,,,,,,,,,,,,,,,,,,,,,,,,520.5698965997435,521.5908049000427,518.3765114000998,518.3765114000998,518.3765114000998,518.3765114000998,new_stationery_44.png,64,3.0,2.1899458998814225,,077,00,2025-06-17_14h12.34.885,Surprise recog test,2023.1.3,60.01161828187628,
64,0,64,0,,,,,,,,,,,,,,,,,,,,,,,,,,,,,,,,,,,,523.3618021998554,524.390703999903,521.5908049000427,521.5908049000427,521.5908049000427,521.5908049000427,old_stationery_34.png,65,2.0,1.7713838000781834,,077,00,2025-06-17_14h12.34.885,Surprise recog test,2023.1.3,60.01161828187628,
65,0,65,0,,,,,,,,,,,,,,,,,,,,,,,,,,,,,,,,,,,,526.0560228000395,527.072774999775,524.390703999903,524.390703999903,524.390703999903,524.390703999903,new_sceneOut_36.png,66,4.0,1.6640532002784312,,077,00,2025-06-17_14h12.34.885,Surprise recog test,2023.1.3,60.01161828187628,
66,0,66,0,,,,,,,,,,,,,,,,,,,,,,,,,,,,,,,,,,,,529.1952014998533,530.2125622997992,527.072774999775,527.072774999775,527.072774999775,527.072774999775,old_fruit_42.png,67,1.0,2.115720000118017,,077,00,2025-06-17_14h12.34.885,Surprise recog test,2023.1.3,60.01161828187628,
67,0,67,0,,,,,,,,,,,,,,,,,,,,,,,,,,,,,,,,,,,,531.6062277997844,532.6313231000677,530.2125622997992,530.2125622997992,530.2125622997992,530.2125622997992,new_fruit_50.png,68,3.0,1.3964164000935853,,077,00,2025-06-17_14h12.34.885,Surprise recog test,2023.1.3,60.01161828187628,
68,0,68,0,,,,,,,,,,,,,,,,,,,,,,,,,,,,,,,,,,,,534.5376543998718,535.5574861001223,532.6313231000677,532.6313231000677,532.6313231000677,532.6313231000677,old_sceneOut_9.png,69,4.0,1.9088098001666367,,077,00,2025-06-17_14h12.34.885,Surprise recog test,2023.1.3,60.01161828187628,
69,0,69,0,,,,,,,,,,,,,,,,,,,,,,,,,,,,,,,,,,,,536.7886246996932,,535.5574861001223,535.5574861001223,535.5574861001223,535.5574861001223,new_fruit_12.png,70,4.0,1.227140599861741,,077,00,2025-06-17_14h12.34.885,Surprise recog test,2023.1.3,60.01161828187628,
70,0,70,0,,,,,,,,,,,,,,,,,,,,,,,,,,,,,,,,,,,,538.9632692998275,539.980169699993,537.8194876001216,537.8194876001216,537.8194876001216,537.8194876001216,new_stationery_43.png,71,4.0,1.143404200207442,,077,00,2025-06-17_14h12.34.885,Surprise recog test,2023.1.3,60.01161828187628,
71,0,71,0,,,,,,,,,,,,,,,,,,,,,,,,,,,,,,,,,,,,542.6650621998124,543.6918273000047,539.980169699993,539.980169699993,539.980169699993,539.980169699993,new_sceneOut_19.png,72,4.0,2.682176399976015,,077,00,2025-06-17_14h12.34.885,Surprise recog test,2023.1.3,60.01161828187628,
72,0,72,0,,,,,,,,,,,,,,,,,,,,,,,,,,,,,,,,,,,,546.0483522997238,547.0709468000568,543.6918273000047,543.6918273000047,543.6918273000047,543.6918273000047,new_sceneIn_12.png,73,4.0,2.356601800303906,,077,00,2025-06-17_14h12.34.885,Surprise recog test,2023.1.3,60.01161828187628,
73,0,73,0,,,,,,,,,,,,,,,,,,,,,,,,,,,,,,,,,,,,549.0940954000689,550.1126775997691,547.0709468000568,547.0709468000568,547.0709468000568,547.0709468000568,old_stationery_42.png,74,2.0,2.0223185000941157,,077,00,2025-06-17_14h12.34.885,Surprise recog test,2023.1.3,60.01161828187628,
74,0,74,0,,,,,,,,,,,,,,,,,,,,,,,,,,,,,,,,,,,,551.7675994001329,,550.1126775997691,550.1126775997691,550.1126775997691,550.1126775997691,new_sceneIn_3.png,75,5.0,1.6570814000442624,,077,00,2025-06-17_14h12.34.885,Surprise recog test,2023.1.3,60.01161828187628,
75,0,75,0,,,,,,,,,,,,,,,,,,,,,,,,,,,,,,,,,,,,555.0180112998933,556.032397700008,552.7926007998176,552.7926007998176,552.7926007998176,552.7926007998176,old_sceneIn_2.png,76,5.0,2.2249817000702024,,077,00,2025-06-17_14h12.34.885,Surprise recog test,2023.1.3,60.01161828187628,
76,0,76,0,,,,,,,,,,,,,,,,,,,,,,,,,,,,,,,,,,,,557.8424941999838,558.872119799722,556.032397700008,556.032397700008,556.032397700008,556.032397700008,new_sceneIn_25.png,77,5.0,1.8084298996254802,,077,00,2025-06-17_14h12.34.885,Surprise recog test,2023.1.3,60.01161828187628,
77,0,77,0,,,,,,,,,,,,,,,,,,,,,,,,,,,,,,,,,,,,560.7496869000606,561.7671635998413,558.872119799722,558.872119799722,558.872119799722,558.872119799722,old_sceneOut_43.png,78,5.0,1.8788848002441227,,077,00,2025-06-17_14h12.34.885,Surprise recog test,2023.1.3,60.01161828187628,
78,0,78,0,,,,,,,,,,,,,,,,,,,,,,,,,,,,,,,,,,,,563.2399766999297,564.2522889999673,561.7671635998413,561.7671635998413,561.7671635998413,561.7671635998413,new_sceneIn_2.png,79,5.0,1.4703301996923983,,077,00,2025-06-17_14h12.34.885,Surprise recog test,2023.1.3,60.01161828187628,
79,0,79,0,,,,,,,,,,,,,,,,,,,,,,,,,,,,,,,,,,,,566.4309266000055,567.4635419999249,564.2522889999673,564.2522889999673,564.2522889999673,564.2522889999673,old_sceneOut_26.png,80,5.0,2.176593199837953,,077,00,2025-06-17_14h12.34.885,Surprise recog test,2023.1.3,60.01161828187628,
80,0,80,0,,,,,,,,,,,,,,,,,,,,,,,,,,,,,,,,,,,,568.6330527998507,569.6639642999507,567.4635419999249,567.4635419999249,567.4635419999249,567.4635419999249,new_fruit_40.png,81,5.0,1.1685662996023893,,077,00,2025-06-17_14h12.34.885,Surprise recog test,2023.1.3,60.01161828187628,
81,0,81,0,,,,,,,,,,,,,,,,,,,,,,,,,,,,,,,,,,,,571.2284591998905,572.2388117997907,569.6639642999507,569.6639642999507,569.6639642999507,569.6639642999507,new_sceneOut_22.png,82,5.0,1.5670805000700057,,077,00,2025-06-17_14h12.34.885,Surprise recog test,2023.1.3,60.01161828187628,
82,0,82,0,,,,,,,,,,,,,,,,,,,,,,,,,,,,,,,,,,,,574.11426689988,575.1197866997682,572.2388117997907,572.2388117997907,572.2388117997907,572.2388117997907,old_sceneIn_24.png,83,3.0,1.8699008002877235,,077,00,2025-06-17_14h12.34.885,Surprise recog test,2023.1.3,60.01161828187628,
83,0,83,0,,,,,,,,,,,,,,,,,,,,,,,,,,,,,,,,,,,,576.7786282999441,577.8053107997403,575.1197866997682,575.1197866997682,575.1197866997682,575.1197866997682,old_stationery_50.png,84,1.0,1.6540878000669181,,077,00,2025-06-17_14h12.34.885,Surprise recog test,2023.1.3,60.01161828187628,
84,0,84,0,,,,,,,,,,,,,,,,,,,,,,,,,,,,,,,,,,,,579.1469187997282,580.157478899695,577.8053107997403,577.8053107997403,577.8053107997403,577.8053107997403,old_sceneOut_36.png,85,4.0,1.341319200117141,,077,00,2025-06-17_14h12.34.885,Surprise recog test,2023.1.3,60.01161828187628,
85,0,85,0,,,,,,,,,,,,,,,,,,,,,,,,,,,,,,,,,,,,581.171509699896,582.194212500006,580.157478899695,580.157478899695,580.157478899695,580.157478899695,new_sceneOut_30.png,86,4.0,1.008264500182122,,077,00,2025-06-17_14h12.34.885,Surprise recog test,2023.1.3,60.01161828187628,
86,0,86,0,,,,,,,,,,,,,,,,,,,,,,,,,,,,,,,,,,,,583.4402739000507,584.4589197998866,582.194212500006,582.194212500006,582.194212500006,582.194212500006,new_sceneIn_44.png,87,4.0,1.247983899898827,,077,00,2025-06-17_14h12.34.885,Surprise recog test,2023.1.3,60.01161828187628,
87,0,87,0,,,,,,,,,,,,,,,,,,,,,,,,,,,,,,,,,,,,586.070856299717,587.0944380001165,584.4589197998866,584.4589197998866,584.4589197998866,584.4589197998866,old_sceneIn_13.png,88,3.0,1.6110590999014676,,077,00,2025-06-17_14h12.34.885,Surprise recog test,2023.1.3,60.01161828187628,
88,0,88,0,,,,,,,,,,,,,,,,,,,,,,,,,,,,,,,,,,,,588.794467299711,589.8023632997647,587.0944380001165,587.0944380001165,587.0944380001165,587.0944380001165,new_fruit_43.png,89,4.0,1.6948744002729654,,077,00,2025-06-17_14h12.34.885,Surprise recog test,2023.1.3,60.01161828187628,
89,0,89,0,,,,,,,,,,,,,,,,,,,,,,,,,,,,,,,,,,,,591.5457041999325,592.5672371000983,589.8023632997647,589.8023632997647,589.8023632997647,589.8023632997647,old_sceneIn_7.png,90,5.0,1.7381098000332713,,077,00,2025-06-17_14h12.34.885,Surprise recog test,2023.1.3,60.01161828187628,
90,0,90,0,,,,,,,,,,,,,,,,,,,,,,,,,,,,,,,,,,,,594.3458108999766,595.3656544000842,592.5672371000983,592.5672371000983,592.5672371000983,592.5672371000983,new_sceneOut_1.png,91,4.0,1.7779112001881003,,077,00,2025-06-17_14h12.34.885,Surprise recog test,2023.1.3,60.01161828187628,
91,0,91,0,,,,,,,,,,,,,,,,,,,,,,,,,,,,,,,,,,,,596.8028061999939,597.8215701999143,595.3656544000842,595.3656544000842,595.3656544000842,595.3656544000842,old_sceneOut_19.png,92,4.0,1.4386215000413358,,077,00,2025-06-17_14h12.34.885,Surprise recog test,2023.1.3,60.01161828187628,
92,0,92,0,,,,,,,,,,,,,,,,,,,,,,,,,,,,,,,,,,,,599.2966769998893,600.3170026997104,597.8215701999143,597.8215701999143,597.8215701999143,597.8215701999143,new_fruit_26.png,93,3.0,1.474453100003302,,077,00,2025-06-17_14h12.34.885,Surprise recog test,2023.1.3,60.01161828187628,
93,0,93,0,,,,,,,,,,,,,,,,,,,,,,,,,,,,,,,,,,,,601.7412542998791,,600.3170026997104,600.3170026997104,600.3170026997104,600.3170026997104,new_stationery_32.png,94,4.0,1.4226264003664255,,077,00,2025-06-17_14h12.34.885,Surprise recog test,2023.1.3,60.01161828187628,
94,0,94,0,,,,,,,,,,,,,,,,,,,,,,,,,,,,,,,,,,,,604.5091011999175,605.520862699952,602.7599323000759,602.7599323000759,602.7599323000759,602.7599323000759,old_sceneIn_39.png,95,1.0,1.7428786996752024,,077,00,2025-06-17_14h12.34.885,Surprise recog test,2023.1.3,60.01161828187628,
95,0,95,0,,,,,,,,,,,,,,,,,,,,,,,,,,,,,,,,,,,,608.2627713000402,,605.520862699952,605.520862699952,605.520862699952,605.520862699952,old_stationery_36.png,96,3.0,2.7398445000872016,,077,00,2025-06-17_14h12.34.885,Surprise recog test,2023.1.3,60.01161828187628,
96,0,96,0,,,,,,,,,,,,,,,,,,,,,,,,,,,,,,,,,,,,611.1877784999087,612.2131425999105,609.2927985996939,609.2927985996939,609.2927985996939,609.2927985996939,old_sceneOut_49.png,97,4.0,1.8936641998589039,,077,00,2025-06-17_14h12.34.885,Surprise recog test,2023.1.3,60.01161828187628,
97,0,97,0,,,,,,,,,,,,,,,,,,,,,,,,,,,,,,,,,,,,614.1718994998373,615.1987640997395,612.2131425999105,612.2131425999105,612.2131425999105,612.2131425999105,old_sceneIn_22.png,98,5.0,1.958746699616313,,077,00,2025-06-17_14h12.34.885,Surprise recog test,2023.1.3,60.01161828187628,
98,0,98,0,,,,,,,,,,,,,,,,,,,,,,,,,,,,,,,,,,,,616.8384234998375,,615.1987640997395,615.1987640997395,615.1987640997395,615.1987640997395,old_sceneIn_34.png,99,4.0,1.6406375002115965,,077,00,2025-06-17_14h12.34.885,Surprise recog test,2023.1.3,60.01161828187628,
99,0,99,0,,,,,,,,,,,,,,,,,,,,,,,,,,,,,,,,,,,,619.7430515000597,620.7649988001212,617.8678298997693,617.8678298997693,617.8678298997693,617.8678298997693,old_sceneOut_15.png,100,5.0,1.876883499789983,,077,00,2025-06-17_14h12.34.885,Surprise recog test,2023.1.3,60.01161828187628,
100,0,100,0,,,,,,,,,,,,,,,,,,,,,,,,,,,,,,,,,,,,622.2121838997118,623.252699200064,620.7649988001212,620.7649988001212,620.7649988001212,620.7649988001212,old_sceneOut_16.png,101,4.0,1.4460781998932362,,077,00,2025-06-17_14h12.34.885,Surprise recog test,2023.1.3,60.01161828187628,
101,0,101,0,,,,,,,,,,,,,,,,,,,,,,,,,,,,,,,,,,,,625.1091936999001,626.1233489997685,623.252699200064,623.252699200064,623.252699200064,623.252699200064,old_sceneOut_23.png,102,5.0,1.8661151002161205,,077,00,2025-06-17_14h12.34.885,Surprise recog test,2023.1.3,60.01161828187628,
102,0,102,0,,,,,,,,,,,,,,,,,,,,,,,,,,,,,,,,,,,,627.2417608001269,628.2642339998856,626.1233489997685,626.1233489997685,626.1233489997685,626.1233489997685,old_sceneOut_14.png,103,5.0,1.1177956000901759,,077,00,2025-06-17_14h12.34.885,Surprise recog test,2023.1.3,60.01161828187628,
103,0,103,0,,,,,,,,,,,,,,,,,,,,,,,,,,,,,,,,,,,,630.4829667001031,,628.2642339998856,628.2642339998856,628.2642339998856,628.2642339998856,new_sceneIn_50.png,104,5.0,2.219795700162649,,077,00,2025-06-17_14h12.34.885,Surprise recog test,2023.1.3,60.01161828187628,
104,0,104,0,,,,,,,,,,,,,,,,,,,,,,,,,,,,,,,,,,,,633.5749439001083,634.5972747998312,631.5031260000542,631.5031260000542,631.5031260000542,631.5031260000542,old_stationery_10.png,105,1.0,2.0677566998638213,,077,00,2025-06-17_14h12.34.885,Surprise recog test,2023.1.3,60.01161828187628,
105,0,105,0,,,,,,,,,,,,,,,,,,,,,,,,,,,,,,,,,,,,636.6945274998434,637.7129158000462,634.5972747998312,634.5972747998312,634.5972747998312,634.5972747998312,new_fruit_11.png,106,4.0,2.0998626998625696,,077,00,2025-06-17_14h12.34.885,Surprise recog test,2023.1.3,60.01161828187628,
106,0,106,0,,,,,,,,,,,,,,,,,,,,,,,,,,,,,,,,,,,,638.7774147000164,639.8016085997224,637.7129158000462,637.7129158000462,637.7129158000462,637.7129158000462,old_sceneOut_4.png,107,4.0,1.0641241003759205,,077,00,2025-06-17_14h12.34.885,Surprise recog test,2023.1.3,60.01161828187628,
107,0,107,0,,,,,,,,,,,,,,,,,,,,,,,,,,,,,,,,,,,,641.2772288001142,642.3074742997997,639.8016085997224,639.8016085997224,639.8016085997224,639.8016085997224,new_stationery_26.png,108,4.0,1.4765719999559224,,077,00,2025-06-17_14h12.34.885,Surprise recog test,2023.1.3,60.01161828187628,
108,0,108,0,,,,,,,,,,,,,,,,,,,,,,,,,,,,,,,,,,,,643.9475658000447,644.9763011997566,642.3074742997997,642.3074742997997,642.3074742997997,642.3074742997997,old_sceneIn_43.png,109,5.0,1.6379551999270916,,077,00,2025-06-17_14h12.34.885,Surprise recog test,2023.1.3,60.01161828187628,
109,0,109,0,,,,,,,,,,,,,,,,,,,,,,,,,,,,,,,,,,,,646.7800477999263,,644.9763011997566,644.9763011997566,644.9763011997566,644.9763011997566,new_stationery_2.png,110,1.0,1.805847099982202,,077,00,2025-06-17_14h12.34.885,Surprise recog test,2023.1.3,60.01161828187628,
110,0,110,0,,,,,,,,,,,,,,,,,,,,,,,,,,,,,,,,,,,,649.2082024998963,650.2290250998922,647.7968121999875,647.7968121999875,647.7968121999875,647.7968121999875,old_fruit_30.png,111,2.0,1.4064970002509654,,077,00,2025-06-17_14h12.34.885,Surprise recog test,2023.1.3,60.01161828187628,
111,0,111,0,,,,,,,,,,,,,,,,,,,,,,,,,,,,,,,,,,,,652.8560935999267,653.890182999894,650.2290250998922,650.2290250998922,650.2290250998922,650.2290250998922,old_sceneOut_46.png,112,4.0,2.629949700087309,,077,00,2025-06-17_14h12.34.885,Surprise recog test,2023.1.3,60.01161828187628,
112,0,112,0,,,,,,,,,,,,,,,,,,,,,,,,,,,,,,,,,,,,655.6387995998375,656.6648442000151,653.890182999894,653.890182999894,653.890182999894,653.890182999894,new_sceneIn_46.png,113,5.0,1.7528346995823085,,077,00,2025-06-17_14h12.34.885,Surprise recog test,2023.1.3,60.01161828187628,
113,0,113,0,,,,,,,,,,,,,,,,,,,,,,,,,,,,,,,,,,,,659.0413147998042,660.0719781997614,656.6648442000151,656.6648442000151,656.6648442000151,656.6648442000151,new_fruit_16.png,114,2.0,2.3770365002565086,,077,00,2025-06-17_14h12.34.885,Surprise recog test,2023.1.3,60.01161828187628,
114,0,114,0,,,,,,,,,,,,,,,,,,,,,,,,,,,,,,,,,,,,661.602778099943,662.6133550000377,660.0719781997614,660.0719781997614,660.0719781997614,660.0719781997614,new_sceneOut_37.png,115,5.0,1.5317116002552211,,077,00,2025-06-17_14h12.34.885,Surprise recog test,2023.1.3,60.01161828187628,
115,0,115,0,,,,,,,,,,,,,,,,,,,,,,,,,,,,,,,,,,,,664.0494719999842,665.0723119997419,662.6133550000377,662.6133550000377,662.6133550000377,662.6133550000377,old_sceneOut_47.png,116,5.0,1.431479100137949,,077,00,2025-06-17_14h12.34.885,Surprise recog test,2023.1.3,60.01161828187628,
116,0,116,0,,,,,,,,,,,,,,,,,,,,,,,,,,,,,,,,,,,,666.9119591997005,,665.0723119997419,665.0723119997419,665.0723119997419,665.0723119997419,new_stationery_15.png,117,2.0,1.838364899624139,,077,00,2025-06-17_14h12.34.885,Surprise recog test,2023.1.3,60.01161828187628,
117,0,117,0,,,,,,,,,,,,,,,,,,,,,,,,,,,,,,,,,,,,670.064614799805,,667.9478035997599,667.9478035997599,667.9478035997599,667.9478035997599,new_fruit_20.png,118,4.0,2.119667399674654,,077,00,2025-06-17_14h12.34.885,Surprise recog test,2023.1.3,60.01161828187628,
118,0,118,0,,,,,,,,,,,,,,,,,,,,,,,,,,,,,,,,,,,,672.7709404998459,673.7892672996968,671.0984539999627,671.0984539999627,671.0984539999627,671.0984539999627,old_stationery_38.png,119,4.0,1.6737592001445591,,077,00,2025-06-17_14h12.34.885,Surprise recog test,2023.1.3,60.01161828187628,
119,0,119,0,,,,,,,,,,,,,,,,,,,,,,,,,,,,,,,,,,,,676.3394320998341,677.3610788998194,673.7892672996968,673.7892672996968,673.7892672996968,673.7892672996968,old_sceneIn_20.png,120,4.0,2.5464858999475837,,077,00,2025-06-17_14h12.34.885,Surprise recog test,2023.1.3,60.01161828187628,
120,0,120,0,,,,,,,,,,,,,,,,,,,,,,,,,,,,,,,,,,,,679.275019899942,680.30495660007,677.3610788998194,677.3610788998194,677.3610788998194,677.3610788998194,old_sceneIn_40.png,121,4.0,1.9118943000212312,,077,00,2025-06-17_14h12.34.885,Surprise recog test,2023.1.3,60.01161828187628,
121,0,121,0,,,,,,,,,,,,,,,,,,,,,,,,,,,,,,,,,,,,681.1952798999846,682.2238916996866,680.30495660007,680.30495660007,680.30495660007,680.30495660007,old_sceneOut_25.png,122,4.0,0.8893488999456167,,077,00,2025-06-17_14h12.34.885,Surprise recog test,2023.1.3,60.01161828187628,
122,0,122,0,,,,,,,,,,,,,,,,,,,,,,,,,,,,,,,,,,,,683.1465215999633,684.1715831998736,682.2238916996866,682.2238916996866,682.2238916996866,682.2238916996866,new_stationery_11.png,123,4.0,0.9229609002359211,,077,00,2025-06-17_14h12.34.885,Surprise recog test,2023.1.3,60.01161828187628,
123,0,123,0,,,,,,,,,,,,,,,,,,,,,,,,,,,,,,,,,,,,686.1716668000445,687.1952134999447,684.1715831998736,684.1715831998736,684.1715831998736,684.1715831998736,old_sceneIn_41.png,124,1.0,1.9978816998191178,,077,00,2025-06-17_14h12.34.885,Surprise recog test,2023.1.3,60.01161828187628,
124,0,124,0,,,,,,,,,,,,,,,,,,,,,,,,,,,,,,,,,,,,688.3114509000443,689.3197582997382,687.1952134999447,687.1952134999447,687.1952134999447,687.1952134999447,old_sceneOut_44.png,125,4.0,1.1171364998444915,,077,00,2025-06-17_14h12.34.885,Surprise recog test,2023.1.3,60.01161828187628,
125,0,125,0,,,,,,,,,,,,,,,,,,,,,,,,,,,,,,,,,,,,690.8524835999124,691.8694080999121,689.3197582997382,689.3197582997382,689.3197582997382,689.3197582997382,new_fruit_42.png,126,4.0,1.527950800023973,,077,00,2025-06-17_14h12.34.885,Surprise recog test,2023.1.3,60.01161828187628,
126,0,126,0,,,,,,,,,,,,,,,,,,,,,,,,,,,,,,,,,,,,693.1267895000055,694.1396139999852,691.8694080999121,691.8694080999121,691.8694080999121,691.8694080999121,old_stationery_2.png,127,4.0,1.2532077003270388,,077,00,2025-06-17_14h12.34.885,Surprise recog test,2023.1.3,60.01161828187628,
127,0,127,0,,,,,,,,,,,,,,,,,,,,,,,,,,,,,,,,,,,,696.4247808000073,697.4552938998677,694.1396139999852,694.1396139999852,694.1396139999852,694.1396139999852,new_sceneIn_10.png,128,4.0,2.280316000338644,,077,00,2025-06-17_14h12.34.885,Surprise recog test,2023.1.3,60.01161828187628,
128,0,128,0,,,,,,,,,,,,,,,,,,,,,,,,,,,,,,,,,,,,699.3540059998631,700.3614734997973,697.4552938998677,697.4552938998677,697.4552938998677,697.4552938998677,old_sceneIn_10.png,129,4.0,1.899139900226146,,077,00,2025-06-17_14h12.34.885,Surprise recog test,2023.1.3,60.01161828187628,
129,0,129,0,,,,,,,,,,,,,,,,,,,,,,,,,,,,,,,,,,,,702.5895992000587,703.6081588999368,700.3614734997973,700.3614734997973,700.3614734997973,700.3614734997973,new_sceneIn_42.png,130,5.0,2.2243449999950826,,077,00,2025-06-17_14h12.34.885,Surprise recog test,2023.1.3,60.01161828187628,
130,0,130,0,,,,,,,,,,,,,,,,,,,,,,,,,,,,,,,,,,,,705.3639822998084,706.391912299674,703.6081588999368,703.6081588999368,703.6081588999368,703.6081588999368,new_stationery_39.png,131,4.0,1.7574535999447107,,077,00,2025-06-17_14h12.34.885,Surprise recog test,2023.1.3,60.01161828187628,
131,0,131,0,,,,,,,,,,,,,,,,,,,,,,,,,,,,,,,,,,,,708.5244475998916,709.5537144998088,706.391912299674,706.391912299674,706.391912299674,706.391912299674,old_fruit_9.png,132,2.0,2.1321688001044095,,077,00,2025-06-17_14h12.34.885,Surprise recog test,2023.1.3,60.01161828187628,
132,0,132,0,,,,,,,,,,,,,,,,,,,,,,,,,,,,,,,,,,,,710.9722377001308,711.9881490999833,709.5537144998088,709.5537144998088,709.5537144998088,709.5537144998088,old_sceneOut_27.png,133,5.0,1.4247202002443373,,077,00,2025-06-17_14h12.34.885,Surprise recog test,2023.1.3,60.01161828187628,
133,0,133,0,,,,,,,,,,,,,,,,,,,,,,,,,,,,,,,,,,,,713.4645639001392,714.4783979998901,711.9881490999833,711.9881490999833,711.9881490999833,711.9881490999833,old_fruit_11.png,134,1.0,1.4711079001426697,,077,00,2025-06-17_14h12.34.885,Surprise recog test,2023.1.3,60.01161828187628,
134,0,134,0,,,,,,,,,,,,,,,,,,,,,,,,,,,,,,,,,,,,717.1089685996994,718.1420204997994,714.4783979998901,714.4783979998901,714.4783979998901,714.4783979998901,new_stationery_13.png,135,4.0,2.6300864000804722,,077,00,2025-06-17_14h12.34.885,Surprise recog test,2023.1.3,60.01161828187628,
135,0,135,0,,,,,,,,,,,,,,,,,,,,,,,,,,,,,,,,,,,,719.6949594998732,720.7103180000558,718.1420204997994,718.1420204997994,718.1420204997994,718.1420204997994,old_sceneIn_29.png,136,5.0,1.554956499952823,,077,00,2025-06-17_14h12.34.885,Surprise recog test,2023.1.3,60.01161828187628,
136,0,136,0,,,,,,,,,,,,,,,,,,,,,,,,,,,,,,,,,,,,722.3917441000231,,720.7103180000558,720.7103180000558,720.7103180000558,720.7103180000558,new_sceneIn_33.png,137,5.0,1.6776629001833498,,077,00,2025-06-17_14h12.34.885,Surprise recog test,2023.1.3,60.01161828187628,
137,0,137,0,,,,,,,,,,,,,,,,,,,,,,,,,,,,,,,,,,,,724.4679390997626,725.4927117000334,723.4132916000672,723.4132916000672,723.4132916000672,723.4132916000672,old_sceneOut_13.png,138,5.0,1.0503310998901725,,077,00,2025-06-17_14h12.34.885,Surprise recog test,2023.1.3,60.01161828187628,
138,0,138,0,,,,,,,,,,,,,,,,,,,,,,,,,,,,,,,,,,,,726.8275597998872,727.8302361997776,725.4927117000334,725.4927117000334,725.4927117000334,725.4927117000334,new_sceneOut_45.png,139,5.0,1.3320802003145218,,077,00,2025-06-17_14h12.34.885,Surprise recog test,2023.1.3,60.01161828187628,
139,0,139,0,,,,,,,,,,,,,,,,,,,,,,,,,,,,,,,,,,,,729.2913374998607,730.3035420998931,727.8302361997776,727.8302361997776,727.8302361997776,727.8302361997776,new_sceneIn_41.png,140,5.0,1.4524638997390866,,077,00,2025-06-17_14h12.34.885,Surprise recog test,2023.1.3,60.01161828187628,
140,0,140,0,,,,,,,,,,,,,,,,,,,,,,,,,,,,,,,,,,,,732.6063187001273,733.6350698997267,730.3035420998931,730.3035420998931,730.3035420998931,730.3035420998931,new_sceneIn_40.png,141,4.0,2.2987687001004815,,077,00,2025-06-17_14h12.34.885,Surprise recog test,2023.1.3,60.01161828187628,
141,0,141,0,,,,,,,,,,,,,,,,,,,,,,,,,,,,,,,,,,,,735.5336869000457,736.5536541999318,733.6350698997267,733.6350698997267,733.6350698997267,733.6350698997267,new_sceneIn_21.png,142,5.0,1.8996268003247678,,077,00,2025-06-17_14h12.34.885,Surprise recog test,2023.1.3,60.01161828187628,
142,0,142,0,,,,,,,,,,,,,,,,,,,,,,,,,,,,,,,,,,,,738.3955779001117,739.4214459001087,736.5536541999318,736.5536541999318,736.5536541999318,736.5536541999318,old_fruit_5.png,143,1.0,1.841712700203061,,077,00,2025-06-17_14h12.34.885,Surprise recog test,2023.1.3,60.01161828187628,
143,0,143,0,,,,,,,,,,,,,,,,,,,,,,,,,,,,,,,,,,,,740.8717662999406,741.8925064997748,739.4214459001087,739.4214459001087,739.4214459001087,739.4214459001087,old_sceneOut_2.png,144,4.0,1.4503395999781787,,077,00,2025-06-17_14h12.34.885,Surprise recog test,2023.1.3,60.01161828187628,
144,0,144,0,,,,,,,,,,,,,,,,,,,,,,,,,,,,,,,,,,,,743.4299209997989,744.4616155000404,741.8925064997748,741.8925064997748,741.8925064997748,741.8925064997748,new_stationery_47.png,145,3.0,1.5398116996511817,,077,00,2025-06-17_14h12.34.885,Surprise recog test,2023.1.3,60.01161828187628,
145,0,145,0,,,,,,,,,,,,,,,,,,,,,,,,,,,,,,,,,,,,746.1161110000685,747.1358046997339,744.4616155000404,744.4616155000404,744.4616155000404,744.4616155000404,old_fruit_39.png,146,2.0,1.657102100085467,,077,00,2025-06-17_14h12.34.885,Surprise recog test,2023.1.3,60.01161828187628,
146,0,146,0,,,,,,,,,,,,,,,,,,,,,,,,,,,,,,,,,,,,749.1315754000098,,747.1358046997339,747.1358046997339,747.1358046997339,747.1358046997339,new_sceneIn_26.png,147,4.0,1.9909205003641546,,077,00,2025-06-17_14h12.34.885,Surprise recog test,2023.1.3,60.01161828187628,
147,0,147,0,,,,,,,,,,,,,,,,,,,,,,,,,,,,,,,,,,,,751.5304113999009,752.5379288997501,750.1625417997129,750.1625417997129,750.1625417997129,750.1625417997129,old_sceneOut_8.png,148,5.0,1.3676475998945534,,077,00,2025-06-17_14h12.34.885,Surprise recog test,2023.1.3,60.01161828187628,
148,0,148,0,,,,,,,,,,,,,,,,,,,,,,,,,,,,,,,,,,,,754.3746295999736,755.3911532997154,752.5379288997501,752.5379288997501,752.5379288997501,752.5379288997501,old_fruit_49.png,149,3.0,1.8311211997643113,,077,00,2025-06-17_14h12.34.885,Surprise recog test,2023.1.3,60.01161828187628,
149,0,149,0,,,,,,,,,,,,,,,,,,,,,,,,,,,,,,,,,,,,757.039566999767,758.0719292000867,755.3911532997154,755.3911532997154,755.3911532997154,755.3911532997154,new_sceneIn_15.png,150,4.0,1.6448399000801146,,077,00,2025-06-17_14h12.34.885,Surprise recog test,2023.1.3,60.01161828187628,
150,0,150,0,,,,,,,,,,,,,,,,,,,,,,,,,,,,,,,,,,,,759.6910875998437,,758.0719292000867,758.0719292000867,758.0719292000867,758.0719292000867,old_sceneIn_44.png,151,4.0,1.6209444999694824,,077,00,2025-06-17_14h12.34.885,Surprise recog test,2023.1.3,60.01161828187628,
151,0,151,0,,,,,,,,,,,,,,,,,,,,,,,,,,,,,,,,,,,,762.0959135997109,763.1218420998193,760.7107911999337,760.7107911999337,760.7107911999337,760.7107911999337,old_stationery_37.png,152,3.0,1.3782521998509765,,077,00,2025-06-17_14h12.34.885,Surprise recog test,2023.1.3,60.01161828187628,
152,0,152,0,,,,,,,,,,,,,,,,,,,,,,,,,,,,,,,,,,,,764.8414771999232,765.8498863996938,763.1218420998193,763.1218420998193,763.1218420998193,763.1218420998193,new_stationery_10.png,153,3.0,1.721229000017047,,077,00,2025-06-17_14h12.34.885,Surprise recog test,2023.1.3,60.01161828187628,
153,0,153,0,,,,,,,,,,,,,,,,,,,,,,,,,,,,,,,,,,,,768.3283537998796,769.3406392997131,765.8498863996938,765.8498863996938,765.8498863996938,765.8498863996938,new_stationery_22.png,154,2.0,2.4724845001474023,,077,00,2025-06-17_14h12.34.885,Surprise recog test,2023.1.3,60.01161828187628,
154,0,154,0,,,,,,,,,,,,,,,,,,,,,,,,,,,,,,,,,,,,770.8626449001022,771.8708973000757,769.3406392997131,769.3406392997131,769.3406392997131,769.3406392997131,old_fruit_28.png,155,3.0,1.515272400341928,,077,00,2025-06-17_14h12.34.885,Surprise recog test,2023.1.3,60.01161828187628,
155,0,155,0,,,,,,,,,,,,,,,,,,,,,,,,,,,,,,,,,,,,773.3939279997721,774.4067824999802,771.8708973000757,771.8708973000757,771.8708973000757,771.8708973000757,old_sceneOut_29.png,156,4.0,1.516269600018859,,077,00,2025-06-17_14h12.34.885,Surprise recog test,2023.1.3,60.01161828187628,
156,0,156,0,,,,,,,,,,,,,,,,,,,,,,,,,,,,,,,,,,,,776.1883006999269,777.2135323998518,774.4067824999802,774.4067824999802,774.4067824999802,774.4067824999802,new_sceneOut_48.png,157,4.0,1.7774223000742495,,077,00,2025-06-17_14h12.34.885,Surprise recog test,2023.1.3,60.01161828187628,
157,0,157,0,,,,,,,,,,,,,,,,,,,,,,,,,,,,,,,,,,,,779.2076972997747,780.2264213999733,777.2135323998518,777.2135323998518,777.2135323998518,777.2135323998518,new_sceneOut_32.png,158,5.0,1.9952778997831047,,077,00,2025-06-17_14h12.34.885,Surprise recog test,2023.1.3,60.01161828187628,
158,0,158,0,,,,,,,,,,,,,,,,,,,,,,,,,,,,,,,,,,,,781.9140876000747,782.9433172000572,780.2264213999733,780.2264213999733,780.2264213999733,780.2264213999733,new_sceneIn_28.png,159,4.0,1.6826379001140594,,077,00,2025-06-17_14h12.34.885,Surprise recog test,2023.1.3,60.01161828187628,
159,0,159,0,,,,,,,,,,,,,,,,,,,,,,,,,,,,,,,,,,,,784.6924410001375,785.71027519973,782.9433172000572,782.9433172000572,782.9433172000572,782.9433172000572,new_sceneIn_38.png,160,3.0,1.7495740000158548,,077,00,2025-06-17_14h12.34.885,Surprise recog test,2023.1.3,60.01161828187628,
160,0,160,0,,,,,,,,,,,,,,,,,,,,,,,,,,,,,,,,,,,,787.5058232001029,788.5198125001043,785.71027519973,785.71027519973,785.71027519973,785.71027519973,old_sceneIn_9.png,161,4.0,1.7970425002276897,,077,00,2025-06-17_14h12.34.885,Surprise recog test,2023.1.3,60.01161828187628,
161,0,161,0,,,,,,,,,,,,,,,,,,,,,,,,,,,,,,,,,,,,789.9947000998072,791.0154773998074,788.5198125001043,788.5198125001043,788.5198125001043,788.5198125001043,old_sceneOut_18.png,162,5.0,1.4710939000360668,,077,00,2025-06-17_14h12.34.885,Surprise recog test,2023.1.3,60.01161828187628,
162,0,162,0,,,,,,,,,,,,,,,,,,,,,,,,,,,,,,,,,,,,792.104952099733,793.1328173000365,791.0154773998074,791.0154773998074,791.0154773998074,791.0154773998074,new_sceneIn_35.png,163,5.0,1.0921713998541236,,077,00,2025-06-17_14h12.34.885,Surprise recog test,2023.1.3,60.01161828187628,
163,0,163,0,,,,,,,,,,,,,,,,,,,,,,,,,,,,,,,,,,,,794.133036899846,795.1542058996856,793.1328173000365,793.1328173000365,793.1328173000365,793.1328173000365,new_sceneOut_4.png,164,5.0,1.0011867000721395,,077,00,2025-06-17_14h12.34.885,Surprise recog test,2023.1.3,60.01161828187628,
164,0,164,0,,,,,,,,,,,,,,,,,,,,,,,,,,,,,,,,,,,,795.8872493999079,,795.1542058996856,795.1542058996856,795.1542058996856,795.1542058996856,old_sceneOut_21.png,165,5.0,0.7335269004106522,,077,00,2025-06-17_14h12.34.885,Surprise recog test,2023.1.3,60.01161828187628,
165,0,165,0,,,,,,,,,,,,,,,,,,,,,,,,,,,,,,,,,,,,798.4985690000467,799.5220121997409,796.9224652000703,796.9224652000703,796.9224652000703,796.9224652000703,old_sceneIn_50.png,166,5.0,1.5791742000728846,,077,00,2025-06-17_14h12.34.885,Surprise recog test,2023.1.3,60.01161828187628,
166,0,166,0,,,,,,,,,,,,,,,,,,,,,,,,,,,,,,,,,,,,802.0063009001315,803.0243858001195,799.5220121997409,799.5220121997409,799.5220121997409,799.5220121997409,old_stationery_17.png,167,5.0,2.4829873996786773,,077,00,2025-06-17_14h12.34.885,Surprise recog test,2023.1.3,60.01161828187628,
167,0,167,0,,,,,,,,,,,,,,,,,,,,,,,,,,,,,,,,,,,,805.2367438999936,806.2535989996977,803.0243858001195,803.0243858001195,803.0243858001195,803.0243858001195,new_sceneOut_27.png,168,5.0,2.2135033002123237,,077,00,2025-06-17_14h12.34.885,Surprise recog test,2023.1.3,60.01161828187628,
168,0,168,0,,,,,,,,,,,,,,,,,,,,,,,,,,,,,,,,,,,,808.1118697999045,809.128057599999,806.2535989996977,806.2535989996977,806.2535989996977,806.2535989996977,new_fruit_8.png,169,4.0,1.8578286999836564,,077,00,2025-06-17_14h12.34.885,Surprise recog test,2023.1.3,60.01161828187628,
169,0,169,0,,,,,,,,,,,,,,,,,,,,,,,,,,,,,,,,,,,,811.7856875997968,812.8054185998626,809.128057599999,809.128057599999,809.128057599999,809.128057599999,old_fruit_10.png,170,3.0,2.658348400145769,,077,00,2025-06-17_14h12.34.885,Surprise recog test,2023.1.3,60.01161828187628,
170,0,170,0,,,,,,,,,,,,,,,,,,,,,,,,,,,,,,,,,,,,814.3000413998961,815.3074941998348,812.8054185998626,812.8054185998626,812.8054185998626,812.8054185998626,old_sceneOut_42.png,171,4.0,1.4877080000005662,,077,00,2025-06-17_14h12.34.885,Surprise recog test,2023.1.3,60.01161828187628,
171,0,171,0,,,,,,,,,,,,,,,,,,,,,,,,,,,,,,,,,,,,816.9779880996794,818.0070079998113,815.3074941998348,815.3074941998348,815.3074941998348,815.3074941998348,new_stationery_33.png,172,3.0,1.6657874998636544,,077,00,2025-06-17_14h12.34.885,Surprise recog test,2023.1.3,60.01161828187628,
172,0,172,0,,,,,,,,,,,,,,,,,,,,,,,,,,,,,,,,,,,,819.4520461997017,820.4675508998334,818.0070079998113,818.0070079998113,818.0070079998113,818.0070079998113,new_stationery_42.png,173,3.0,1.4477200997062027,,077,00,2025-06-17_14h12.34.885,Surprise recog test,2023.1.3,60.01161828187628,
173,0,173,0,,,,,,,,,,,,,,,,,,,,,,,,,,,,,,,,,,,,821.8382776998915,822.844693900086,820.4675508998334,820.4675508998334,820.4675508998334,820.4675508998334,new_sceneOut_43.png,174,3.0,1.3652868000790477,,077,00,2025-06-17_14h12.34.885,Surprise recog test,2023.1.3,60.01161828187628,
174,0,174,0,,,,,,,,,,,,,,,,,,,,,,,,,,,,,,,,,,,,825.0550909996964,826.0627649999224,822.844693900086,822.844693900086,822.844693900086,822.844693900086,old_fruit_8.png,175,1.0,2.205472100060433,,077,00,2025-06-17_14h12.34.885,Surprise recog test,2023.1.3,60.01161828187628,
175,0,175,0,,,,,,,,,,,,,,,,,,,,,,,,,,,,,,,,,,,,829.9616650999524,830.9687156998552,826.0627649999224,826.0627649999224,826.0627649999224,826.0627649999224,old_sceneIn_47.png,176,2.0,3.888976899906993,,077,00,2025-06-17_14h12.34.885,Surprise recog test,2023.1.3,60.01161828187628,
176,0,176,0,,,,,,,,,,,,,,,,,,,,,,,,,,,,,,,,,,,,832.9808728997596,833.9855761998333,830.9687156998552,830.9687156998552,830.9687156998552,830.9687156998552,new_fruit_4.png,177,3.0,2.004046400077641,,077,00,2025-06-17_14h12.34.885,Surprise recog test,2023.1.3,60.01161828187628,
177,0,177,0,,,,,,,,,,,,,,,,,,,,,,,,,,,,,,,,,,,,835.933266100008,836.9381134998985,833.9855761998333,833.9855761998333,833.9855761998333,833.9855761998333,old_stationery_46.png,178,3.0,1.9379921997897327,,077,00,2025-06-17_14h12.34.885,Surprise recog test,2023.1.3,60.01161828187628,
178,0,178,0,,,,,,,,,,,,,,,,,,,,,,,,,,,,,,,,,,,,838.6522285998799,839.6570733999833,836.9381134998985,836.9381134998985,836.9381134998985,836.9381134998985,old_stationery_9.png,179,1.0,1.7037297999486327,,077,00,2025-06-17_14h12.34.885,Surprise recog test,2023.1.3,60.01161828187628,
179,0,179,0,,,,,,,,,,,,,,,,,,,,,,,,,,,,,,,,,,,,841.5380289000459,842.5422517000698,839.6570733999833,839.6570733999833,839.6570733999833,839.6570733999833,new_stationery_3.png,180,4.0,1.8706571999937296,,077,00,2025-06-17_14h12.34.885,Surprise recog test,2023.1.3,60.01161828187628,
180,0,180,0,,,,,,,,,,,,,,,,,,,,,,,,,,,,,,,,,,,,844.7406373997219,845.7458267998882,842.5422517000698,842.5422517000698,842.5422517000698,842.5422517000698,old_fruit_16.png,181,2.0,2.1877577998675406,,077,00,2025-06-17_14h12.34.885,Surprise recog test,2023.1.3,60.01161828187628,
181,0,181,0,,,,,,,,,,,,,,,,,,,,,,,,,,,,,,,,,,,,847.6430587000214,848.647396999877,845.7458267998882,845.7458267998882,845.7458267998882,845.7458267998882,new_sceneIn_22.png,182,4.0,1.8876026002690196,,077,00,2025-06-17_14h12.34.885,Surprise recog test,2023.1.3,60.01161828187628,
182,0,182,0,,,,,,,,,,,,,,,,,,,,,,,,,,,,,,,,,,,,852.797300199978,853.802468799986,848.647396999877,848.647396999877,848.647396999877,848.647396999877,new_fruit_5.png,183,4.0,4.1394682000391185,,077,00,2025-06-17_14h12.34.885,Surprise recog test,2023.1.3,60.01161828187628,
183,0,183,0,,,,,,,,,,,,,,,,,,,,,,,,,,,,,,,,,,,,855.6497545000166,856.6545027997345,853.802468799986,853.802468799986,853.802468799986,853.802468799986,new_sceneIn_34.png,184,4.0,1.841139500029385,,077,00,2025-06-17_14h12.34.885,Surprise recog test,2023.1.3,60.01161828187628,
184,0,184,0,,,,,,,,,,,,,,,,,,,,,,,,,,,,,,,,,,,,858.5688443998806,859.5740589997731,856.6545027997345,856.6545027997345,856.6545027997345,856.6545027997345,old_sceneOut_10.png,185,5.0,1.9043333996087313,,077,00,2025-06-17_14h12.34.885,Surprise recog test,2023.1.3,60.01161828187628,
185,0,185,0,,,,,,,,,,,,,,,,,,,,,,,,,,,,,,,,,,,,861.1376050999388,862.1425898997113,859.5740589997731,859.5740589997731,859.5740589997731,859.5740589997731,new_sceneIn_14.png,186,5.0,1.5539278001524508,,077,00,2025-06-17_14h12.34.885,Surprise recog test,2023.1.3,60.01161828187628,
186,0,186,0,,,,,,,,,,,,,,,,,,,,,,,,,,,,,,,,,,,,863.0892261001281,864.093859499786,862.1425898997113,862.1425898997113,862.1425898997113,862.1425898997113,new_sceneIn_49.png,187,5.0,0.937374799977988,,077,00,2025-06-17_14h12.34.885,Surprise recog test,2023.1.3,60.01161828187628,
187,0,187,0,,,,,,,,,,,,,,,,,,,,,,,,,,,,,,,,,,,,864.9073970997706,865.9124491000548,864.093859499786,864.093859499786,864.093859499786,864.093859499786,old_sceneIn_4.png,188,5.0,0.803982499986887,,077,00,2025-06-17_14h12.34.885,Surprise recog test,2023.1.3,60.01161828187628,
188,0,188,0,,,,,,,,,,,,,,,,,,,,,,,,,,,,,,,,,,,,867.0591933997348,868.0666433000006,865.9124491000548,865.9124491000548,865.9124491000548,865.9124491000548,old_stationery_32.png,189,5.0,1.137774399947375,,077,00,2025-06-17_14h12.34.885,Surprise recog test,2023.1.3,60.01161828187628,
189,0,189,0,,,,,,,,,,,,,,,,,,,,,,,,,,,,,,,,,,,,870.2220282997005,871.2413312001154,868.0666433000006,868.0666433000006,868.0666433000006,868.0666433000006,old_sceneIn_45.png,190,4.0,2.152429500129074,,077,00,2025-06-17_14h12.34.885,Surprise recog test,2023.1.3,60.01161828187628,
190,0,190,0,,,,,,,,,,,,,,,,,,,,,,,,,,,,,,,,,,,,873.286504900083,874.3192229000852,871.2413312001154,871.2413312001154,871.2413312001154,871.2413312001154,old_stationery_25.png,191,2.0,2.0402299999259412,,077,00,2025-06-17_14h12.34.885,Surprise recog test,2023.1.3,60.01161828187628,
191,0,191,0,,,,,,,,,,,,,,,,,,,,,,,,,,,,,,,,,,,,875.8754652999341,876.8911995999515,874.3192229000852,874.3192229000852,874.3192229000852,874.3192229000852,new_sceneOut_2.png,192,3.0,1.5590152000077069,,077,00,2025-06-17_14h12.34.885,Surprise recog test,2023.1.3,60.01161828187628,
192,0,192,0,,,,,,,,,,,,,,,,,,,,,,,,,,,,,,,,,,,,878.7278267000802,879.7457388998009,876.8911995999515,876.8911995999515,876.8911995999515,876.8911995999515,new_sceneOut_24.png,193,4.0,1.8287626998499036,,077,00,2025-06-17_14h12.34.885,Surprise recog test,2023.1.3,60.01161828187628,
193,0,193,0,,,,,,,,,,,,,,,,,,,,,,,,,,,,,,,,,,,,882.1989506999962,883.2185158999637,879.7457388998009,879.7457388998009,879.7457388998009,879.7457388998009,new_sceneIn_32.png,194,4.0,2.450223000254482,,077,00,2025-06-17_14h12.34.885,Surprise recog test,2023.1.3,60.01161828187628,
194,0,194,0,,,,,,,,,,,,,,,,,,,,,,,,,,,,,,,,,,,,885.0918441000395,886.1145589998923,883.2185158999637,883.2185158999637,883.2185158999637,883.2185158999637,old_fruit_14.png,195,1.0,1.8728045001626015,,077,00,2025-06-17_14h12.34.885,Surprise recog test,2023.1.3,60.01161828187628,
195,0,195,0,,,,,,,,,,,,,,,,,,,,,,,,,,,,,,,,,,,,888.5023293998092,889.5195873999037,886.1145589998923,886.1145589998923,886.1145589998923,886.1145589998923,old_sceneIn_6.png,196,4.0,2.3899903995916247,,077,00,2025-06-17_14h12.34.885,Surprise recog test,2023.1.3,60.01161828187628,
196,0,196,0,,,,,,,,,,,,,,,,,,,,,,,,,,,,,,,,,,,,891.4394471999258,892.4649769999087,889.5195873999037,889.5195873999037,889.5195873999037,889.5195873999037,new_stationery_9.png,197,3.0,1.918012599926442,,077,00,2025-06-17_14h12.34.885,Surprise recog test,2023.1.3,60.01161828187628,
197,0,197,0,,,,,,,,,,,,,,,,,,,,,,,,,,,,,,,,,,,,894.0223636999726,895.0449517997913,892.4649769999087,892.4649769999087,892.4649769999087,892.4649769999087,new_stationery_6.png,198,5.0,1.5587811996228993,,077,00,2025-06-17_14h12.34.885,Surprise recog test,2023.1.3,60.01161828187628,
198,0,198,0,,,,,,,,,,,,,,,,,,,,,,,,,,,,,,,,,,,,896.5919005000032,897.6177169997245,895.0449517997913,895.0449517997913,895.0449517997913,895.0449517997913,old_sceneOut_48.png,199,4.0,1.5445143999531865,,077,00,2025-06-17_14h12.34.885,Surprise recog test,2023.1.3,60.01161828187628,
199,0,199,0,,,,,,,,,,,,,,,,,,,,,,,,,,,,,,,,,,,,899.4528409000486,900.4711531000212,897.6177169997245,897.6177169997245,897.6177169997245,897.6177169997245,old_fruit_12.png,200,3.0,1.8307532002218068,,077,00,2025-06-17_14h12.34.885,Surprise recog test,2023.1.3,60.01161828187628,
200,0,200,0,,,,,,,,,,,,,,,,,,,,,,,,,,,,,,,,,,,,902.3686311999336,903.3826313000172,900.4711531000212,900.4711531000212,900.4711531000212,900.4711531000212,new_sceneIn_9.png,201,3.0,1.8989966996014118,,077,00,2025-06-17_14h12.34.885,Surprise recog test,2023.1.3,60.01161828187628,
201,0,201,0,,,,,,,,,,,,,,,,,,,,,,,,,,,,,,,,,,,,905.0826467000879,906.107696000021,903.3826313000172,903.3826313000172,903.3826313000172,903.3826313000172,new_fruit_23.png,202,4.0,1.6997719998471439,,077,00,2025-06-17_14h12.34.885,Surprise recog test,2023.1.3,60.01161828187628,
202,0,202,0,,,,,,,,,,,,,,,,,,,,,,,,,,,,,,,,,,,,908.3278300999664,909.348621699959,906.107696000021,906.107696000021,906.107696000021,906.107696000021,old_fruit_26.png,203,3.0,2.2211450999602675,,077,00,2025-06-17_14h12.34.885,Surprise recog test,2023.1.3,60.01161828187628,
203,0,203,0,,,,,,,,,,,,,,,,,,,,,,,,,,,,,,,,,,,,910.8858996001072,911.9149947999977,909.348621699959,909.348621699959,909.348621699959,909.348621699959,new_fruit_13.png,204,3.0,1.5372923002578318,,077,00,2025-06-17_14h12.34.885,Surprise recog test,2023.1.3,60.01161828187628,
204,0,204,0,,,,,,,,,,,,,,,,,,,,,,,,,,,,,,,,,,,,913.3266533999704,914.3360651000403,911.9149947999977,911.9149947999977,911.9149947999977,911.9149947999977,old_fruit_41.png,205,3.0,1.4113680999726057,,077,00,2025-06-17_14h12.34.885,Surprise recog test,2023.1.3,60.01161828187628,
205,0,205,0,,,,,,,,,,,,,,,,,,,,,,,,,,,,,,,,,,,,915.6864367998205,,914.3360651000403,914.3360651000403,914.3360651000403,914.3360651000403,old_sceneOut_40.png,206,3.0,1.3443310000002384,,077,00,2025-06-17_14h12.34.885,Surprise recog test,2023.1.3,60.01161828187628,
206,0,206,0,,,,,,,,,,,,,,,,,,,,,,,,,,,,,,,,,,,,919.0024309,920.0218285997398,916.7209067000076,916.7209067000076,916.7209067000076,916.7209067000076,old_sceneIn_37.png,207,5.0,2.2780566001310945,,077,00,2025-06-17_14h12.34.885,Surprise recog test,2023.1.3,60.01161828187628,
207,0,207,0,,,,,,,,,,,,,,,,,,,,,,,,,,,,,,,,,,,,920.94489839999,921.9769007000141,920.0218285997398,920.0218285997398,920.0218285997398,920.0218285997398,new_stationery_29.png,208,5.0,0.923846899997443,,077,00,2025-06-17_14h12.34.885,Surprise recog test,2023.1.3,60.01161828187628,
208,0,208,0,,,,,,,,,,,,,,,,,,,,,,,,,,,,,,,,,,,,923.0103225000203,924.03825519979,921.9769007000141,921.9769007000141,921.9769007000141,921.9769007000141,old_stationery_3.png,209,5.0,1.0358745004050434,,077,00,2025-06-17_14h12.34.885,Surprise recog test,2023.1.3,60.01161828187628,
209,0,209,0,,,,,,,,,,,,,,,,,,,,,,,,,,,,,,,,,,,,925.0827751997858,926.1050048000179,924.03825519979,924.03825519979,924.03825519979,924.03825519979,new_sceneOut_35.png,210,5.0,1.0456626997329295,,077,00,2025-06-17_14h12.34.885,Surprise recog test,2023.1.3,60.01161828187628,
210,0,210,0,,,,,,,,,,,,,,,,,,,,,,,,,,,,,,,,,,,,927.2259216997772,928.2405194998719,926.1050048000179,926.1050048000179,926.1050048000179,926.1050048000179,new_stationery_16.png,211,5.0,1.1168074002489448,,077,00,2025-06-17_14h12.34.885,Surprise recog test,2023.1.3,60.01161828187628,
211,0,211,0,,,,,,,,,,,,,,,,,,,,,,,,,,,,,,,,,,,,929.2299760999158,,928.2405194998719,928.2405194998719,928.2405194998719,928.2405194998719,new_fruit_46.png,212,5.0,0.9907238003797829,,077,00,2025-06-17_14h12.34.885,Surprise recog test,2023.1.3,60.01161828187628,
212,0,212,0,,,,,,,,,,,,,,,,,,,,,,,,,,,,,,,,,,,,932.5706996996887,933.6010401998647,930.2670633997768,930.2670633997768,930.2670633997768,930.2670633997768,old_stationery_49.png,213,1.0,2.3052866999059916,,077,00,2025-06-17_14h12.34.885,Surprise recog test,2023.1.3,60.01161828187628,
213,0,213,0,,,,,,,,,,,,,,,,,,,,,,,,,,,,,,,,,,,,936.450994499959,937.4694984001108,933.6010401998647,933.6010401998647,933.6010401998647,933.6010401998647,old_stationery_22.png,214,4.0,2.8516559000127017,,077,00,2025-06-17_14h12.34.885,Surprise recog test,2023.1.3,60.01161828187628,
214,0,214,0,,,,,,,,,,,,,,,,,,,,,,,,,,,,,,,,,,,,938.6829427997582,939.7070283996873,937.4694984001108,937.4694984001108,937.4694984001108,937.4694984001108,new_fruit_9.png,215,4.0,1.2161373998969793,,077,00,2025-06-17_14h12.34.885,Surprise recog test,2023.1.3,60.01161828187628,
215,0,215,0,,,,,,,,,,,,,,,,,,,,,,,,,,,,,,,,,,,,940.7752096997574,941.804204700049,939.7070283996873,939.7070283996873,939.7070283996873,939.7070283996873,old_fruit_36.png,216,4.0,1.070486200042069,,077,00,2025-06-17_14h12.34.885,Surprise recog test,2023.1.3,60.01161828187628,
216,0,216,0,,,,,,,,,,,,,,,,,,,,,,,,,,,,,,,,,,,,944.4580274997279,945.4690727000125,941.804204700049,941.804204700049,941.804204700049,941.804204700049,old_fruit_4.png,217,4.0,2.6562326001003385,,077,00,2025-06-17_14h12.34.885,Surprise recog test,2023.1.3,60.01161828187628,
217,0,217,0,,,,,,,,,,,,,,,,,,,,,,,,,,,,,,,,,,,,947.1577175999992,948.1755331996828,945.4690727000125,945.4690727000125,945.4690727000125,945.4690727000125,old_fruit_44.png,218,2.0,1.688576000276953,,077,00,2025-06-17_14h12.34.885,Surprise recog test,2023.1.3,60.01161828187628,
218,0,218,0,,,,,,,,,,,,,,,,,,,,,,,,,,,,,,,,,,,,949.7589882998727,950.7822499000467,948.1755331996828,948.1755331996828,948.1755331996828,948.1755331996828,new_sceneIn_18.png,219,5.0,1.5822377996519208,,077,00,2025-06-17_14h12.34.885,Surprise recog test,2023.1.3,60.01161828187628,
219,0,219,0,,,,,,,,,,,,,,,,,,,,,,,,,,,,,,,,,,,,953.2139135999605,954.2335379999131,950.7822499000467,950.7822499000467,950.7822499000467,950.7822499000467,new_sceneOut_40.png,220,3.0,2.4286470003426075,,077,00,2025-06-17_14h12.34.885,Surprise recog test,2023.1.3,60.01161828187628,
220,0,220,0,,,,,,,,,,,,,,,,,,,,,,,,,,,,,,,,,,,,955.7642295998521,956.7795265996829,954.2335379999131,954.2335379999131,954.2335379999131,954.2335379999131,old_sceneOut_45.png,221,4.0,1.5301357000134885,,077,00,2025-06-17_14h12.34.885,Surprise recog test,2023.1.3,60.01161828187628,
221,0,221,0,,,,,,,,,,,,,,,,,,,,,,,,,,,,,,,,,,,,958.59840289969,959.6169281997718,956.7795265996829,956.7795265996829,956.7795265996829,956.7795265996829,old_sceneIn_25.png,222,4.0,1.8191722999326885,,077,00,2025-06-17_14h12.34.885,Surprise recog test,2023.1.3,60.01161828187628,
222,0,222,0,,,,,,,,,,,,,,,,,,,,,,,,,,,,,,,,,,,,961.7213145997375,962.7279334999621,959.6169281997718,959.6169281997718,959.6169281997718,959.6169281997718,new_fruit_1.png,223,3.0,2.100929500069469,,077,00,2025-06-17_14h12.34.885,Surprise recog test,2023.1.3,60.01161828187628,
223,0,223,0,,,,,,,,,,,,,,,,,,,,,,,,,,,,,,,,,,,,965.4871155000292,966.5112534998916,962.7279334999621,962.7279334999621,962.7279334999621,962.7279334999621,old_sceneIn_33.png,224,4.0,2.7523207999765873,,077,00,2025-06-17_14h12.34.885,Surprise recog test,2023.1.3,60.01161828187628,
224,0,224,0,,,,,,,,,,,,,,,,,,,,,,,,,,,,,,,,,,,,969.871332900133,970.8918622997589,966.5112534998916,966.5112534998916,966.5112534998916,966.5112534998916,old_fruit_46.png,225,4.0,3.361989500001073,,077,00,2025-06-17_14h12.34.885,Surprise recog test,2023.1.3,60.01161828187628,
225,0,225,0,,,,,,,,,,,,,,,,,,,,,,,,,,,,,,,,,,,,973.0407099998556,974.0664216000587,970.8918622997589,970.8918622997589,970.8918622997589,970.8918622997589,old_fruit_20.png,226,4.0,2.148124100174755,,077,00,2025-06-17_14h12.34.885,Surprise recog test,2023.1.3,60.01161828187628,
226,0,226,0,,,,,,,,,,,,,,,,,,,,,,,,,,,,,,,,,,,,975.4887438998558,976.5083812996745,974.0664216000587,974.0664216000587,974.0664216000587,974.0664216000587,old_sceneIn_17.png,227,4.0,1.4242377998307347,,077,00,2025-06-17_14h12.34.885,Surprise recog test,2023.1.3,60.01161828187628,
227,0,227,0,,,,,,,,,,,,,,,,,,,,,,,,,,,,,,,,,,,,978.3542956998572,,976.5083812996745,976.5083812996745,976.5083812996745,976.5083812996745,new_fruit_41.png,228,4.0,1.840881499927491,,077,00,2025-06-17_14h12.34.885,Surprise recog test,2023.1.3,60.01161828187628,
228,0,228,0,,,,,,,,,,,,,,,,,,,,,,,,,,,,,,,,,,,,980.7704476998188,981.786275899969,979.3904601000249,979.3904601000249,979.3904601000249,979.3904601000249,old_stationery_30.png,229,4.0,1.3777077998965979,,077,00,2025-06-17_14h12.34.885,Surprise recog test,2023.1.3,60.01161828187628,
229,0,229,0,,,,,,,,,,,,,,,,,,,,,,,,,,,,,,,,,,,,983.4003616999835,984.4203474000096,981.786275899969,981.786275899969,981.786275899969,981.786275899969,new_sceneIn_11.png,230,4.0,1.6152714998461306,,077,00,2025-06-17_14h12.34.885,Surprise recog test,2023.1.3,60.01161828187628,
230,0,230,0,,,,,,,,,,,,,,,,,,,,,,,,,,,,,,,,,,,,986.5585739999078,987.5740366997197,984.4203474000096,984.4203474000096,984.4203474000096,984.4203474000096,new_fruit_2.png,231,3.0,2.1328402999788523,,077,00,2025-06-17_14h12.34.885,Surprise recog test,2023.1.3,60.01161828187628,
231,0,231,0,,,,,,,,,,,,,,,,,,,,,,,,,,,,,,,,,,,,989.2365036997944,990.2539284001105,987.5740366997197,987.5740366997197,987.5740366997197,987.5740366997197,old_sceneIn_8.png,232,5.0,1.6626915000379086,,077,00,2025-06-17_14h12.34.885,Surprise recog test,2023.1.3,60.01161828187628,
232,0,232,0,,,,,,,,,,,,,,,,,,,,,,,,,,,,,,,,,,,,991.9300069999881,992.938234299887,990.2539284001105,990.2539284001105,990.2539284001105,990.2539284001105,old_stationery_48.png,233,1.0,1.6721818000078201,,077,00,2025-06-17_14h12.34.885,Surprise recog test,2023.1.3,60.01161828187628,
233,0,233,0,,,,,,,,,,,,,,,,,,,,,,,,,,,,,,,,,,,,994.6794384997338,995.7014592001215,992.938234299887,992.938234299887,992.938234299887,992.938234299887,new_sceneOut_25.png,234,5.0,1.7368427002802491,,077,00,2025-06-17_14h12.34.885,Surprise recog test,2023.1.3,60.01161828187628,
234,0,234,0,,,,,,,,,,,,,,,,,,,,,,,,,,,,,,,,,,,,998.6792290001176,999.7125360998325,995.7014592001215,995.7014592001215,995.7014592001215,995.7014592001215,old_stationery_8.png,235,4.0,2.9801841997541487,,077,00,2025-06-17_14h12.34.885,Surprise recog test,2023.1.3,60.01161828187628,
235,0,235,0,,,,,,,,,,,,,,,,,,,,,,,,,,,,,,,,,,,,1001.3933549998328,1002.4245337001048,999.7125360998325,999.7125360998325,999.7125360998325,999.7125360998325,old_sceneIn_18.png,236,4.0,1.6838354002684355,,077,00,2025-06-17_14h12.34.885,Surprise recog test,2023.1.3,60.01161828187628,
236,0,236,0,,,,,,,,,,,,,,,,,,,,,,,,,,,,,,,,,,,,1003.707311199978,1004.7275733998977,1002.4245337001048,1002.4245337001048,1002.4245337001048,1002.4245337001048,old_sceneOut_6.png,237,4.0,1.2841668999753892,,077,00,2025-06-17_14h12.34.885,Surprise recog test,2023.1.3,60.01161828187628,
237,0,237,0,,,,,,,,,,,,,,,,,,,,,,,,,,,,,,,,,,,,1005.7764423000626,,1004.7275733998977,1004.7275733998977,1004.7275733998977,1004.7275733998977,new_sceneIn_47.png,238,4.0,1.051022999919951,,077,00,2025-06-17_14h12.34.885,Surprise recog test,2023.1.3,60.01161828187628,
238,0,238,0,,,,,,,,,,,,,,,,,,,,,,,,,,,,,,,,,,,,1009.0602218997665,1010.0694778999314,1006.7969856997952,1006.7969856997952,1006.7969856997952,1006.7969856997952,new_sceneIn_23.png,239,1.0,2.2601028997451067,,077,00,2025-06-17_14h12.34.885,Surprise recog test,2023.1.3,60.01161828187628,
239,0,239,0,,,,,,,,,,,,,,,,,,,,,,,,,,,,,,,,,,,,1011.5774872000329,1012.5974475000985,1010.0694778999314,1010.0694778999314,1010.0694778999314,1010.0694778999314,new_sceneIn_13.png,240,5.0,1.503843699581921,,077,00,2025-06-17_14h12.34.885,Surprise recog test,2023.1.3,60.01161828187628,
240,0,240,0,,,,,,,,,,,,,,,,,,,,,,,,,,,,,,,,,,,,1014.131230100058,1015.139486100059,1012.5974475000985,1012.5974475000985,1012.5974475000985,1012.5974475000985,new_sceneIn_30.png,241,4.0,1.5327162998728454,,077,00,2025-06-17_14h12.34.885,Surprise recog test,2023.1.3,60.01161828187628,
241,0,241,0,,,,,,,,,,,,,,,,,,,,,,,,,,,,,,,,,,,,1017.1598640000448,1018.1751135997474,1015.139486100059,1015.139486100059,1015.139486100059,1015.139486100059,old_stationery_43.png,242,2.0,2.014032299630344,,077,00,2025-06-17_14h12.34.885,Surprise recog test,2023.1.3,60.01161828187628,
242,0,242,0,,,,,,,,,,,,,,,,,,,,,,,,,,,,,,,,,,,,1020.0313963997178,1021.0488642998971,1018.1751135997474,1018.1751135997474,1018.1751135997474,1018.1751135997474,new_sceneOut_50.png,243,5.0,1.851959700230509,,077,00,2025-06-17_14h12.34.885,Surprise recog test,2023.1.3,60.01161828187628,
243,0,243,0,,,,,,,,,,,,,,,,,,,,,,,,,,,,,,,,,,,,1022.30942519987,1023.3292784998193,1021.0488642998971,1021.0488642998971,1021.0488642998971,1021.0488642998971,new_sceneOut_20.png,244,5.0,1.2609431999735534,,077,00,2025-06-17_14h12.34.885,Surprise recog test,2023.1.3,60.01161828187628,
244,0,244,0,,,,,,,,,,,,,,,,,,,,,,,,,,,,,,,,,,,,1024.9762319000438,,1023.3292784998193,1023.3292784998193,1023.3292784998193,1023.3292784998193,new_stationery_8.png,245,5.0,1.6433107000775635,,077,00,2025-06-17_14h12.34.885,Surprise recog test,2023.1.3,60.01161828187628,
245,0,245,0,,,,,,,,,,,,,,,,,,,,,,,,,,,,,,,,,,,,1028.0835414999165,1029.1230393000878,1025.9986938997172,1025.9986938997172,1025.9986938997172,1025.9986938997172,new_fruit_31.png,246,4.0,2.078820100054145,,077,00,2025-06-17_14h12.34.885,Surprise recog test,2023.1.3,60.01161828187628,
246,0,246,0,,,,,,,,,,,,,,,,,,,,,,,,,,,,,,,,,,,,1031.1457376000471,1032.1634897999465,1029.1230393000878,1029.1230393000878,1029.1230393000878,1029.1230393000878,old_sceneOut_11.png,247,3.0,2.0237552002072334,,077,00,2025-06-17_14h12.34.885,Surprise recog test,2023.1.3,60.01161828187628,
247,0,247,0,,,,,,,,,,,,,,,,,,,,,,,,,,,,,,,,,,,,1033.8387905997224,1034.865991699975,1032.1634897999465,1032.1634897999465,1032.1634897999465,1032.1634897999465,new_sceneOut_9.png,248,4.0,1.6753674000501633,,077,00,2025-06-17_14h12.34.885,Surprise recog test,2023.1.3,60.01161828187628,
248,0,248,0,,,,,,,,,,,,,,,,,,,,,,,,,,,,,,,,,,,,1036.651797299739,1037.671400600113,1034.865991699975,1034.865991699975,1034.865991699975,1034.865991699975,old_sceneIn_21.png,249,4.0,1.787735799793154,,077,00,2025-06-17_14h12.34.885,Surprise recog test,2023.1.3,60.01161828187628,
249,0,249,0,,,,,,,,,,,,,,,,,,,,,,,,,,,,,,,,,,,,1039.4847594997846,1040.4943532999605,1037.671400600113,1037.671400600113,1037.671400600113,1037.671400600113,new_sceneIn_1.png,250,5.0,1.8138477997854352,,077,00,2025-06-17_14h12.34.885,Surprise recog test,2023.1.3,60.01161828187628,
250,0,250,0,,,,,,,,,,,,,,,,,,,,,,,,,,,,,,,,,,,,1042.3389734998345,1043.3614476998337,1040.4943532999605,1040.4943532999605,1040.4943532999605,1040.4943532999605,new_sceneOut_42.png,251,4.0,1.8389002000913024,,077,00,2025-06-17_14h12.34.885,Surprise recog test,2023.1.3,60.01161828187628,
251,0,251,0,,,,,,,,,,,,,,,,,,,,,,,,,,,,,,,,,,,,1046.3118356997147,,1043.3614476998337,1043.3614476998337,1043.3614476998337,1043.3614476998337,old_fruit_50.png,252,3.0,2.9528548000380397,,077,00,2025-06-17_14h12.34.885,Surprise recog test,2023.1.3,60.01161828187628,
252,0,252,0,,,,,,,,,,,,,,,,,,,,,,,,,,,,,,,,,,,,1048.8771696998738,1049.8974238997325,1047.346261699684,1047.346261699684,1047.346261699684,1047.346261699684,new_fruit_28.png,253,3.0,1.5306241996586323,,077,00,2025-06-17_14h12.34.885,Surprise recog test,2023.1.3,60.01161828187628,
253,0,253,0,,,,,,,,,,,,,,,,,,,,,,,,,,,,,,,,,,,,1051.9567331997678,1052.978892199695,1049.8974238997325,1049.8974238997325,1049.8974238997325,1049.8974238997325,new_sceneOut_26.png,254,4.0,2.059807399753481,,077,00,2025-06-17_14h12.34.885,Surprise recog test,2023.1.3,60.01161828187628,
254,0,254,0,,,,,,,,,,,,,,,,,,,,,,,,,,,,,,,,,,,,1054.332516499795,1055.3520808997564,1052.978892199695,1052.978892199695,1052.978892199695,1052.978892199695,new_fruit_35.png,255,4.0,1.3556119003333151,,077,00,2025-06-17_14h12.34.885,Surprise recog test,2023.1.3,60.01161828187628,
255,0,255,0,,,,,,,,,,,,,,,,,,,,,,,,,,,,,,,,,,,,1056.73882219987,1057.769675699994,1055.3520808997564,1055.3520808997564,1055.3520808997564,1055.3520808997564,old_sceneIn_30.png,256,4.0,1.3876709998585284,,077,00,2025-06-17_14h12.34.885,Surprise recog test,2023.1.3,60.01161828187628,
256,0,256,0,,,,,,,,,,,,,,,,,,,,,,,,,,,,,,,,,,,,1060.600688399747,1061.6219139997847,1057.769675699994,1057.769675699994,1057.769675699994,1057.769675699994,new_stationery_12.png,257,4.0,2.830011199694127,,077,00,2025-06-17_14h12.34.885,Surprise recog test,2023.1.3,60.01161828187628,
257,0,257,0,,,,,,,,,,,,,,,,,,,,,,,,,,,,,,,,,,,,1063.1987449997105,1064.2211917997338,1061.6219139997847,1061.6219139997847,1061.6219139997847,1061.6219139997847,old_fruit_15.png,258,1.0,1.5749796000309289,,077,00,2025-06-17_14h12.34.885,Surprise recog test,2023.1.3,60.01161828187628,
258,0,258,0,,,,,,,,,,,,,,,,,,,,,,,,,,,,,,,,,,,,1066.4451659000479,,1064.2211917997338,1064.2211917997338,1064.2211917997338,1064.2211917997338,old_sceneOut_50.png,259,4.0,2.2249457999132574,,077,00,2025-06-17_14h12.34.885,Surprise recog test,2023.1.3,60.01161828187628,
259,0,259,0,,,,,,,,,,,,,,,,,,,,,,,,,,,,,,,,,,,,1068.8069994999096,1069.8257021997124,1067.4760078997351,1067.4760078997351,1067.4760078997351,1067.4760078997351,new_fruit_48.png,260,4.0,1.3320908001624048,,077,00,2025-06-17_14h12.34.885,Surprise recog test,2023.1.3,60.01161828187628,
260,0,260,0,,,,,,,,,,,,,,,,,,,,,,,,,,,,,,,,,,,,1072.2132313000038,1073.2330966000445,1069.8257021997124,1069.8257021997124,1069.8257021997124,1069.8257021997124,new_fruit_37.png,261,4.0,2.3895992999896407,,077,00,2025-06-17_14h12.34.885,Surprise recog test,2023.1.3,60.01161828187628,
261,0,261,0,,,,,,,,,,,,,,,,,,,,,,,,,,,,,,,,,,,,1076.0329546998255,1077.037301799748,1073.2330966000445,1073.2330966000445,1073.2330966000445,1073.2330966000445,old_sceneIn_27.png,262,4.0,2.801173700019717,,077,00,2025-06-17_14h12.34.885,Surprise recog test,2023.1.3,60.01161828187628,
262,0,262,0,,,,,,,,,,,,,,,,,,,,,,,,,,,,,,,,,,,,1078.7186237997375,1079.7383308000863,1077.037301799748,1077.037301799748,1077.037301799748,1077.037301799748,new_stationery_40.png,263,5.0,1.6737704002298415,,077,00,2025-06-17_14h12.34.885,Surprise recog test,2023.1.3,60.01161828187628,
263,0,263,0,,,,,,,,,,,,,,,,,,,,,,,,,,,,,,,,,,,,1081.4133767997846,1082.4383012000471,1079.7383308000863,1079.7383308000863,1079.7383308000863,1079.7383308000863,new_fruit_15.png,264,5.0,1.6781468000262976,,077,00,2025-06-17_14h12.34.885,Surprise recog test,2023.1.3,60.01161828187628,
264,0,264,0,,,,,,,,,,,,,,,,,,,,,,,,,,,,,,,,,,,,1084.3333009998314,1085.3533958001062,1082.4383012000471,1082.4383012000471,1082.4383012000471,1082.4383012000471,old_fruit_7.png,265,5.0,1.8954121000133455,,077,00,2025-06-17_14h12.34.885,Surprise recog test,2023.1.3,60.01161828187628,
265,0,265,0,,,,,,,,,,,,,,,,,,,,,,,,,,,,,,,,,,,,1087.109894900117,1088.1142413998023,1085.3533958001062,1085.3533958001062,1085.3533958001062,1085.3533958001062,new_sceneIn_7.png,266,5.0,1.756255800370127,,077,00,2025-06-17_14h12.34.885,Surprise recog test,2023.1.3,60.01161828187628,
266,0,266,0,,,,,,,,,,,,,,,,,,,,,,,,,,,,,,,,,,,,1089.216243899893,1090.2480268999934,1088.1142413998023,1088.1142413998023,1088.1142413998023,1088.1142413998023,new_fruit_14.png,267,5.0,1.098026500083506,,077,00,2025-06-17_14h12.34.885,Surprise recog test,2023.1.3,60.01161828187628,
267,0,267,0,,,,,,,,,,,,,,,,,,,,,,,,,,,,,,,,,,,,1092.6944373999722,1093.7163101998158,1090.2480268999934,1090.2480268999934,1090.2480268999934,1090.2480268999934,old_sceneIn_23.png,268,5.0,2.4501197999343276,,077,00,2025-06-17_14h12.34.885,Surprise recog test,2023.1.3,60.01161828187628,
268,0,268,0,,,,,,,,,,,,,,,,,,,,,,,,,,,,,,,,,,,,1095.0671276999637,1096.0802564998157,1093.7163101998158,1093.7163101998158,1093.7163101998158,1093.7163101998158,old_sceneIn_16.png,269,5.0,1.3518564999103546,,077,00,2025-06-17_14h12.34.885,Surprise recog test,2023.1.3,60.01161828187628,
269,0,269,0,,,,,,,,,,,,,,,,,,,,,,,,,,,,,,,,,,,,1097.4424033998512,1098.4661055998877,1096.0802564998157,1096.0802564998157,1096.0802564998157,1096.0802564998157,new_sceneIn_17.png,270,5.0,1.3638841998763382,,077,00,2025-06-17_14h12.34.885,Surprise recog test,2023.1.3,60.01161828187628,
270,0,270,0,,,,,,,,,,,,,,,,,,,,,,,,,,,,,,,,,,,,1099.572656400036,,1098.4661055998877,1098.4661055998877,1098.4661055998877,1098.4661055998877,old_sceneOut_39.png,271,5.0,1.108285800088197,,077,00,2025-06-17_14h12.34.885,Surprise recog test,2023.1.3,60.01161828187628,
271,0,271,0,,,,,,,,,,,,,,,,,,,,,,,,,,,,,,,,,,,,1103.0793715999462,1104.1070345998742,1100.6074739997275,1100.6074739997275,1100.6074739997275,1100.6074739997275,old_fruit_13.png,272,4.0,2.475156500004232,,077,00,2025-06-17_14h12.34.885,Surprise recog test,2023.1.3,60.01161828187628,
272,0,272,0,,,,,,,,,,,,,,,,,,,,,,,,,,,,,,,,,,,,1107.3878076998517,1108.4130965997465,1104.1070345998742,1104.1070345998742,1104.1070345998742,1104.1070345998742,old_stationery_13.png,273,3.0,3.2810551999136806,,077,00,2025-06-17_14h12.34.885,Surprise recog test,2023.1.3,60.01161828187628,
273,0,273,0,,,,,,,,,,,,,,,,,,,,,,,,,,,,,,,,,,,,1110.1629707999527,1111.1851253998466,1108.4130965997465,1108.4130965997465,1108.4130965997465,1108.4130965997465,old_sceneIn_32.png,274,4.0,1.7508757999166846,,077,00,2025-06-17_14h12.34.885,Surprise recog test,2023.1.3,60.01161828187628,
274,0,274,0,,,,,,,,,,,,,,,,,,,,,,,,,,,,,,,,,,,,1112.6886946000159,1113.713372899685,1111.1851253998466,1111.1851253998466,1111.1851253998466,1111.1851253998466,old_sceneOut_41.png,275,4.0,1.5081009003333747,,077,00,2025-06-17_14h12.34.885,Surprise recog test,2023.1.3,60.01161828187628,
275,0,275,0,,,,,,,,,,,,,,,,,,,,,,,,,,,,,,,,,,,,1115.4088272997178,1116.4217817001045,1113.713372899685,1113.713372899685,1113.713372899685,1113.713372899685,old_stationery_26.png,276,1.0,1.6968705002218485,,077,00,2025-06-17_14h12.34.885,Surprise recog test,2023.1.3,60.01161828187628,
276,0,276,0,,,,,,,,,,,,,,,,,,,,,,,,,,,,,,,,,,,,1118.0374090000987,,1116.4217817001045,1116.4217817001045,1116.4217817001045,1116.4217817001045,old_fruit_37.png,277,4.0,1.6118214996531606,,077,00,2025-06-17_14h12.34.885,Surprise recog test,2023.1.3,60.01161828187628,
277,0,277,0,,,,,,,,,,,,,,,,,,,,,,,,,,,,,,,,,,,,1120.4366751001216,1121.4637481998652,1119.0733483000658,1119.0733483000658,1119.0733483000658,1119.0733483000658,new_sceneIn_16.png,278,5.0,1.3662930000573397,,077,00,2025-06-17_14h12.34.885,Surprise recog test,2023.1.3,60.01161828187628,
278,0,278,0,,,,,,,,,,,,,,,,,,,,,,,,,,,,,,,,,,,,1123.675572199747,,1121.4637481998652,1121.4637481998652,1121.4637481998652,1121.4637481998652,old_sceneIn_38.png,279,3.0,2.216717000119388,,077,00,2025-06-17_14h12.34.885,Surprise recog test,2023.1.3,60.01161828187628,
279,0,279,0,,,,,,,,,,,,,,,,,,,,,,,,,,,,,,,,,,,,1126.224603000097,1127.2452683998272,1124.704479899723,1124.704479899723,1124.704479899723,1124.704479899723,new_stationery_7.png,280,4.0,1.5192414000630379,,077,00,2025-06-17_14h12.34.885,Surprise recog test,2023.1.3,60.01161828187628,
280,0,280,0,,,,,,,,,,,,,,,,,,,,,,,,,,,,,,,,,,,,1128.0929959998466,1129.115122300107,1127.2452683998272,1127.2452683998272,1127.2452683998272,1127.2452683998272,old_sceneOut_37.png,281,4.0,0.846013399772346,,077,00,2025-06-17_14h12.34.885,Surprise recog test,2023.1.3,60.01161828187628,
281,0,281,0,,,,,,,,,,,,,,,,,,,,,,,,,,,,,,,,,,,,1129.9953903998248,1131.0146991997026,1129.115122300107,1129.115122300107,1129.115122300107,1129.115122300107,old_sceneIn_26.png,282,4.0,0.8810596000403166,,077,00,2025-06-17_14h12.34.885,Surprise recog test,2023.1.3,60.01161828187628,
282,0,282,0,,,,,,,,,,,,,,,,,,,,,,,,,,,,,,,,,,,,1132.5157900000922,,1131.0146991997026,1131.0146991997026,1131.0146991997026,1131.0146991997026,old_fruit_32.png,283,4.0,1.4995840000919998,,077,00,2025-06-17_14h12.34.885,Surprise recog test,2023.1.3,60.01161828187628,
283,0,283,0,,,,,,,,,,,,,,,,,,,,,,,,,,,,,,,,,,,,1134.5483844997361,1135.5640259999782,1133.5491255996749,1133.5491255996749,1133.5491255996749,1133.5491255996749,new_fruit_22.png,284,4.0,1.0000865999609232,,077,00,2025-06-17_14h12.34.885,Surprise recog test,2023.1.3,60.01161828187628,
284,0,284,0,,,,,,,,,,,,,,,,,,,,,,,,,,,,,,,,,,,,1137.7471548998728,1138.7681018998846,1135.5640259999782,1135.5640259999782,1135.5640259999782,1135.5640259999782,old_sceneIn_36.png,285,5.0,2.182972699869424,,077,00,2025-06-17_14h12.34.885,Surprise recog test,2023.1.3,60.01161828187628,
285,0,285,0,,,,,,,,,,,,,,,,,,,,,,,,,,,,,,,,,,,,1140.1515150000341,1141.1660917000845,1138.7681018998846,1138.7681018998846,1138.7681018998846,1138.7681018998846,old_stationery_7.png,286,5.0,1.3855785997584462,,077,00,2025-06-17_14h12.34.885,Surprise recog test,2023.1.3,60.01161828187628,
286,0,286,0,,,,,,,,,,,,,,,,,,,,,,,,,,,,,,,,,,,,1142.9652236998081,1143.9841470001265,1141.1660917000845,1141.1660917000845,1141.1660917000845,1141.1660917000845,new_stationery_48.png,287,4.0,1.8000508998520672,,077,00,2025-06-17_14h12.34.885,Surprise recog test,2023.1.3,60.01161828187628,
287,0,287,0,,,,,,,,,,,,,,,,,,,,,,,,,,,,,,,,,,,,1145.6075359000824,1146.6277727000415,1143.9841470001265,1143.9841470001265,1143.9841470001265,1143.9841470001265,old_sceneOut_7.png,288,5.0,1.6189508000388741,,077,00,2025-06-17_14h12.34.885,Surprise recog test,2023.1.3,60.01161828187628,
288,0,288,0,,,,,,,,,,,,,,,,,,,,,,,,,,,,,,,,,,,,1148.5697956001386,1149.5929001998156,1146.6277727000415,1146.6277727000415,1146.6277727000415,1146.6277727000415,old_stationery_18.png,289,1.0,1.9416100000962615,,077,00,2025-06-17_14h12.34.885,Surprise recog test,2023.1.3,60.01161828187628,
289,0,289,0,,,,,,,,,,,,,,,,,,,,,,,,,,,,,,,,,,,,1151.4517302000895,1152.46858959971,1149.5929001998156,1149.5929001998156,1149.5929001998156,1149.5929001998156,old_fruit_17.png,290,2.0,1.86191640002653,,077,00,2025-06-17_14h12.34.885,Surprise recog test,2023.1.3,60.01161828187628,
290,0,290,0,,,,,,,,,,,,,,,,,,,,,,,,,,,,,,,,,,,,1154.0117474999279,1155.031521399971,1152.46858959971,1152.46858959971,1152.46858959971,1152.46858959971,old_stationery_29.png,291,2.0,1.5386286997236311,,077,00,2025-06-17_14h12.34.885,Surprise recog test,2023.1.3,60.01161828187628,
291,0,291,0,,,,,,,,,,,,,,,,,,,,,,,,,,,,,,,,,,,,1156.5578525001183,1157.5817963997833,1155.031521399971,1155.031521399971,1155.031521399971,1155.031521399971,old_stationery_28.png,292,2.0,1.527872999664396,,077,00,2025-06-17_14h12.34.885,Surprise recog test,2023.1.3,60.01161828187628,
292,0,292,0,,,,,,,,,,,,,,,,,,,,,,,,,,,,,,,,,,,,1159.5458856998011,1160.5726266996935,1157.5817963997833,1157.5817963997833,1157.5817963997833,1157.5817963997833,old_sceneIn_48.png,293,5.0,1.9641629001125693,,077,00,2025-06-17_14h12.34.885,Surprise recog test,2023.1.3,60.01161828187628,
293,0,293,0,,,,,,,,,,,,,,,,,,,,,,,,,,,,,,,,,,,,1161.720967500005,1162.7424149001017,1160.5726266996935,1160.5726266996935,1160.5726266996935,1160.5726266996935,old_sceneIn_11.png,294,5.0,1.146204300224781,,077,00,2025-06-17_14h12.34.885,Surprise recog test,2023.1.3,60.01161828187628,
294,0,294,0,,,,,,,,,,,,,,,,,,,,,,,,,,,,,,,,,,,,1164.1256566001102,,1162.7424149001017,1162.7424149001017,1162.7424149001017,1162.7424149001017,new_sceneIn_4.png,295,5.0,1.3853410999290645,,077,00,2025-06-17_14h12.34.885,Surprise recog test,2023.1.3,60.01161828187628,
295,0,295,0,,,,,,,,,,,,,,,,,,,,,,,,,,,,,,,,,,,,1166.5823653996922,1167.6079647997394,1165.1467162999325,1165.1467162999325,1165.1467162999325,1165.1467162999325,new_sceneOut_49.png,296,5.0,1.4283615997992456,,077,00,2025-06-17_14h12.34.885,Surprise recog test,2023.1.3,60.01161828187628,
296,0,296,0,,,,,,,,,,,,,,,,,,,,,,,,,,,,,,,,,,,,1171.7715942999348,1172.7920618001372,1167.6079647997394,1167.6079647997394,1167.6079647997394,1167.6079647997394,old_fruit_43.png,297,2.0,4.162603400181979,,077,00,2025-06-17_14h12.34.885,Surprise recog test,2023.1.3,60.01161828187628,
297,0,297,0,,,,,,,,,,,,,,,,,,,,,,,,,,,,,,,,,,,,1174.8225746997632,1175.8497454999015,1172.7920618001372,1172.7920618001372,1172.7920618001372,1172.7920618001372,old_fruit_25.png,298,3.0,2.031321099959314,,077,00,2025-06-17_14h12.34.885,Surprise recog test,2023.1.3,60.01161828187628,
298,0,298,0,,,,,,,,,,,,,,,,,,,,,,,,,,,,,,,,,,,,1178.225850299932,1179.2546667996794,1175.8497454999015,1175.8497454999015,1175.8497454999015,1175.8497454999015,old_fruit_2.png,299,2.0,2.3769537997432053,,077,00,2025-06-17_14h12.34.885,Surprise recog test,2023.1.3,60.01161828187628,
299,0,299,0,,,,,,,,,,,,,,,,,,,,,,,,,,,,,,,,,,,,1180.35584679991,,1179.2546667996794,1179.2546667996794,1179.2546667996794,1179.2546667996794,old_stationery_39.png,300,2.0,1.1001590001396835,,077,00,2025-06-17_14h12.34.885,Surprise recog test,2023.1.3,60.01161828187628,
300,0,300,0,,,,,,,,,,,,,,,,,,,,,,,,,,,,,,,,,,,,1183.0485187000595,1184.0644433000125,1181.3902460997924,1181.3902460997924,1181.3902460997924,1181.3902460997924,new_fruit_32.png,301,3.0,1.659844800364226,,077,00,2025-06-17_14h12.34.885,Surprise recog test,2023.1.3,60.01161828187628,
301,0,301,0,,,,,,,,,,,,,,,,,,,,,,,,,,,,,,,,,,,,1185.5909337997437,1186.6089490000159,1184.0644433000125,1184.0644433000125,1184.0644433000125,1184.0644433000125,old_stationery_4.png,302,3.0,1.5211129002273083,,077,00,2025-06-17_14h12.34.885,Surprise recog test,2023.1.3,60.01161828187628,
302,0,302,0,,,,,,,,,,,,,,,,,,,,,,,,,,,,,,,,,,,,1188.1987797999755,1189.2273552999832,1186.6089490000159,1186.6089490000159,1186.6089490000159,1186.6089490000159,old_sceneOut_22.png,303,4.0,1.591768099926412,,077,00,2025-06-17_14h12.34.885,Surprise recog test,2023.1.3,60.01161828187628,
303,0,303,0,,,,,,,,,,,,,,,,,,,,,,,,,,,,,,,,,,,,1191.1473381998949,,1189.2273552999832,1189.2273552999832,1189.2273552999832,1189.2273552999832,old_sceneOut_3.png,304,4.0,1.92211680021137,,077,00,2025-06-17_14h12.34.885,Surprise recog test,2023.1.3,60.01161828187628,
304,0,304,0,,,,,,,,,,,,,,,,,,,,,,,,,,,,,,,,,,,,1194.205636699684,1195.2333029997535,1192.1792536997236,1192.1792536997236,1192.1792536997236,1192.1792536997236,old_stationery_35.png,305,4.0,2.0270950999110937,,077,00,2025-06-17_14h12.34.885,Surprise recog test,2023.1.3,60.01161828187628,
305,0,305,0,,,,,,,,,,,,,,,,,,,,,,,,,,,,,,,,,,,,1196.4468657998368,1197.4709493997507,1195.2333029997535,1195.2333029997535,1195.2333029997535,1195.2333029997535,new_stationery_50.png,306,4.0,1.2164986999705434,,077,00,2025-06-17_14h12.34.885,Surprise recog test,2023.1.3,60.01161828187628,
306,0,306,0,,,,,,,,,,,,,,,,,,,,,,,,,,,,,,,,,,,,1198.3877154998481,,1197.4709493997507,1197.4709493997507,1197.4709493997507,1197.4709493997507,new_stationery_5.png,307,4.0,0.9168040999211371,,077,00,2025-06-17_14h12.34.885,Surprise recog test,2023.1.3,60.01161828187628,
307,0,307,0,,,,,,,,,,,,,,,,,,,,,,,,,,,,,,,,,,,,1202.0542580997571,1203.0676798997447,1199.4091825997457,1199.4091825997457,1199.4091825997457,1199.4091825997457,old_stationery_6.png,308,3.0,2.6410416001453996,,077,00,2025-06-17_14h12.34.885,Surprise recog test,2023.1.3,60.01161828187628,
308,0,308,0,,,,,,,,,,,,,,,,,,,,,,,,,,,,,,,,,,,,1204.305056899786,1205.3157379999757,1203.0676798997447,1203.0676798997447,1203.0676798997447,1203.0676798997447,old_sceneIn_3.png,309,4.0,1.2344173998571932,,077,00,2025-06-17_14h12.34.885,Surprise recog test,2023.1.3,60.01161828187628,
309,0,309,0,,,,,,,,,,,,,,,,,,,,,,,,,,,,,,,,,,,,1207.5395705997944,1208.550630199723,1205.3157379999757,1205.3157379999757,1205.3157379999757,1205.3157379999757,old_stationery_21.png,310,3.0,2.218450900167227,,077,00,2025-06-17_14h12.34.885,Surprise recog test,2023.1.3,60.01161828187628,
310,0,310,0,,,,,,,,,,,,,,,,,,,,,,,,,,,,,,,,,,,,1209.9653928996995,,1208.550630199723,1208.550630199723,1208.550630199723,1208.550630199723,old_fruit_19.png,311,3.0,1.41093759983778,,077,00,2025-06-17_14h12.34.885,Surprise recog test,2023.1.3,60.01161828187628,
311,0,311,0,,,,,,,,,,,,,,,,,,,,,,,,,,,,,,,,,,,,1213.6307256999426,1214.6458906996995,1210.9948495998979,1210.9948495998979,1210.9948495998979,1210.9948495998979,old_fruit_1.png,312,4.0,2.6316194999963045,,077,00,2025-06-17_14h12.34.885,Surprise recog test,2023.1.3,60.01161828187628,
312,0,312,0,,,,,,,,,,,,,,,,,,,,,,,,,,,,,,,,,,,,1216.3644586997107,1217.3725799000822,1214.6458906996995,1214.6458906996995,1214.6458906996995,1214.6458906996995,new_stationery_27.png,313,3.0,1.7174875000491738,,077,00,2025-06-17_14h12.34.885,Surprise recog test,2023.1.3,60.01161828187628,
313,0,313,0,,,,,,,,,,,,,,,,,,,,,,,,,,,,,,,,,,,,1219.3594204001129,1220.3852770999074,1217.3725799000822,1217.3725799000822,1217.3725799000822,1217.3725799000822,new_fruit_44.png,314,4.0,1.981498499866575,,077,00,2025-06-17_14h12.34.885,Surprise recog test,2023.1.3,60.01161828187628,
314,0,314,0,,,,,,,,,,,,,,,,,,,,,,,,,,,,,,,,,,,,1222.9578255000524,,1220.3852770999074,1220.3852770999074,1220.3852770999074,1220.3852770999074,old_stationery_31.png,315,3.0,2.5748427999205887,,077,00,2025-06-17_14h12.34.885,Surprise recog test,2023.1.3,60.01161828187628,
315,0,315,0,,,,,,,,,,,,,,,,,,,,,,,,,,,,,,,,,,,,1225.6271967999637,,1223.991610799916,1223.991610799916,1223.991610799916,1223.991610799916,new_fruit_7.png,316,4.0,1.6401472999714315,,077,00,2025-06-17_14h12.34.885,Surprise recog test,2023.1.3,60.01161828187628,
316,0,316,0,,,,,,,,,,,,,,,,,,,,,,,,,,,,,,,,,,,,1228.6858009998687,1229.7136643999256,1226.6622069999576,1226.6622069999576,1226.6622069999576,1226.6622069999576,old_sceneOut_30.png,317,4.0,2.0233943997882307,,077,00,2025-06-17_14h12.34.885,Surprise recog test,2023.1.3,60.01161828187628,
317,0,317,0,,,,,,,,,,,,,,,,,,,,,,,,,,,,,,,,,,,,1231.2154453000985,,1229.7136643999256,1229.7136643999256,1229.7136643999256,1229.7136643999256,old_stationery_11.png,318,3.0,1.5037127998657525,,077,00,2025-06-17_14h12.34.885,Surprise recog test,2023.1.3,60.01161828187628,
318,0,318,0,,,,,,,,,,,,,,,,,,,,,,,,,,,,,,,,,,,,1234.2795015997253,1235.289268099703,1232.24662300013,1232.24662300013,1232.24662300013,1232.24662300013,new_sceneOut_44.png,319,5.0,2.0339791998267174,,077,00,2025-06-17_14h12.34.885,Surprise recog test,2023.1.3,60.01161828187628,
319,0,319,0,,,,,,,,,,,,,,,,,,,,,,,,,,,,,,,,,,,,1236.802189799957,,1235.289268099703,1235.289268099703,1235.289268099703,1235.289268099703,new_sceneOut_28.png,320,4.0,1.509170999750495,,077,00,2025-06-17_14h12.34.885,Surprise recog test,2023.1.3,60.01161828187628,
320,0,320,0,,,,,,,,,,,,,,,,,,,,,,,,,,,,,,,,,,,,1240.069882699754,1241.0764200999402,1237.8300091000274,1237.8300091000274,1237.8300091000274,1237.8300091000274,old_sceneIn_15.png,321,4.0,2.2379099996760488,,077,00,2025-06-17_14h12.34.885,Surprise recog test,2023.1.3,60.01161828187628,
321,0,321,0,,,,,,,,,,,,,,,,,,,,,,,,,,,,,,,,,,,,1243.3851572996937,1244.409712200053,1241.0764200999402,1241.0764200999402,1241.0764200999402,1241.0764200999402,old_stationery_5.png,322,3.0,2.3061533998697996,,077,00,2025-06-17_14h12.34.885,Surprise recog test,2023.1.3,60.01161828187628,
322,0,322,0,,,,,,,,,,,,,,,,,,,,,,,,,,,,,,,,,,,,1247.277049199678,1248.2914112000726,1244.409712200053,1244.409712200053,1244.409712200053,1244.409712200053,old_fruit_23.png,323,2.0,2.871143799740821,,077,00,2025-06-17_14h12.34.885,Surprise recog test,2023.1.3,60.01161828187628,
323,0,323,0,,,,,,,,,,,,,,,,,,,,,,,,,,,,,,,,,,,,1250.3607399999164,1251.3782401997596,1248.2914112000726,1248.2914112000726,1248.2914112000726,1248.2914112000726,old_sceneIn_31.png,324,4.0,2.0701091000810266,,077,00,2025-06-17_14h12.34.885,Surprise recog test,2023.1.3,60.01161828187628,
324,0,324,0,,,,,,,,,,,,,,,,,,,,,,,,,,,,,,,,,,,,1254.3863395000808,1255.4188040001318,1251.3782401997596,1251.3782401997596,1251.3782401997596,1251.3782401997596,new_fruit_21.png,325,4.0,3.01015459978953,,077,00,2025-06-17_14h12.34.885,Surprise recog test,2023.1.3,60.01161828187628,
325,0,325,0,,,,,,,,,,,,,,,,,,,,,,,,,,,,,,,,,,,,1256.8334409999661,1257.841346600093,1255.4188040001318,1255.4188040001318,1255.4188040001318,1255.4188040001318,new_fruit_29.png,326,4.0,1.414531999733299,,077,00,2025-06-17_14h12.34.885,Surprise recog test,2023.1.3,60.01161828187628,
326,0,326,0,,,,,,,,,,,,,,,,,,,,,,,,,,,,,,,,,,,,1260.2553793000989,,1257.841346600093,1257.841346600093,1257.841346600093,1257.841346600093,new_sceneIn_29.png,327,4.0,2.410184499807656,,077,00,2025-06-17_14h12.34.885,Surprise recog test,2023.1.3,60.01161828187628,
327,0,327,0,,,,,,,,,,,,,,,,,,,,,,,,,,,,,,,,,,,,1262.7516879998147,1263.7831844999455,1261.2904467000626,1261.2904467000626,1261.2904467000626,1261.2904467000626,new_fruit_3.png,328,4.0,1.4630558998323977,,077,00,2025-06-17_14h12.34.885,Surprise recog test,2023.1.3,60.01161828187628,
328,0,328,0,,,,,,,,,,,,,,,,,,,,,,,,,,,,,,,,,,,,1265.7477386998944,1266.7779989996925,1263.7831844999455,1263.7831844999455,1263.7831844999455,1263.7831844999455,old_fruit_33.png,329,1.0,1.9660368002951145,,077,00,2025-06-17_14h12.34.885,Surprise recog test,2023.1.3,60.01161828187628,
329,0,329,0,,,,,,,,,,,,,,,,,,,,,,,,,,,,,,,,,,,,1268.4597024996765,1269.48399099987,1266.7779989996925,1266.7779989996925,1266.7779989996925,1266.7779989996925,new_stationery_49.png,330,4.0,1.6769894999451935,,077,00,2025-06-17_14h12.34.885,Surprise recog test,2023.1.3,60.01161828187628,
330,0,330,0,,,,,,,,,,,,,,,,,,,,,,,,,,,,,,,,,,,,1271.8756677997299,1272.8991865999997,1269.48399099987,1269.48399099987,1269.48399099987,1269.48399099987,new_stationery_45.png,331,3.0,2.3939497000537813,,077,00,2025-06-17_14h12.34.885,Surprise recog test,2023.1.3,60.01161828187628,
331,0,331,0,,,,,,,,,,,,,,,,,,,,,,,,,,,,,,,,,,,,1275.537410600111,1276.5585519000888,1272.8991865999997,1272.8991865999997,1272.8991865999997,1272.8991865999997,new_sceneIn_48.png,332,5.0,2.6402408997528255,,077,00,2025-06-17_14h12.34.885,Surprise recog test,2023.1.3,60.01161828187628,
332,0,332,0,,,,,,,,,,,,,,,,,,,,,,,,,,,,,,,,,,,,1278.3933871998452,1279.4091035998426,1276.5585519000888,1276.5585519000888,1276.5585519000888,1276.5585519000888,new_fruit_30.png,333,5.0,1.8338488000445068,,077,00,2025-06-17_14h12.34.885,Surprise recog test,2023.1.3,60.01161828187628,
333,0,333,0,,,,,,,,,,,,,,,,,,,,,,,,,,,,,,,,,,,,1281.2538012997247,1282.268947399687,1279.4091035998426,1279.4091035998426,1279.4091035998426,1279.4091035998426,new_fruit_27.png,334,4.0,1.8376289000734687,,077,00,2025-06-17_14h12.34.885,Surprise recog test,2023.1.3,60.01161828187628,
334,0,334,0,,,,,,,,,,,,,,,,,,,,,,,,,,,,,,,,,,,,1284.0186131000519,1285.0314843999222,1282.268947399687,1282.268947399687,1282.268947399687,1282.268947399687,new_sceneOut_29.png,335,4.0,1.751135400030762,,077,00,2025-06-17_14h12.34.885,Surprise recog test,2023.1.3,60.01161828187628,
335,0,335,0,,,,,,,,,,,,,,,,,,,,,,,,,,,,,,,,,,,,1287.1445569000207,,1285.0314843999222,1285.0314843999222,1285.0314843999222,1285.0314843999222,new_sceneOut_15.png,336,4.0,2.1078483001329005,,077,00,2025-06-17_14h12.34.885,Surprise recog test,2023.1.3,60.01161828187628,
336,0,336,0,,,,,,,,,,,,,,,,,,,,,,,,,,,,,,,,,,,,1290.463623299729,,1288.1658624000847,1288.1658624000847,1288.1658624000847,1288.1658624000847,new_stationery_34.png,337,5.0,2.2935311999171972,,077,00,2025-06-17_14h12.34.885,Surprise recog test,2023.1.3,60.01161828187628,
337,0,337,0,,,,,,,,,,,,,,,,,,,,,,,,,,,,,,,,,,,,1293.904151099734,1294.9225564999506,1291.484019299969,1291.484019299969,1291.484019299969,1291.484019299969,new_sceneIn_8.png,338,4.0,2.415653200354427,,077,00,2025-06-17_14h12.34.885,Surprise recog test,2023.1.3,60.01161828187628,
338,0,338,0,,,,,,,,,,,,,,,,,,,,,,,,,,,,,,,,,,,,1296.616630599834,1297.6210826998577,1294.9225564999506,1294.9225564999506,1294.9225564999506,1294.9225564999506,old_fruit_18.png,339,1.0,1.6890798001550138,,077,00,2025-06-17_14h12.34.885,Surprise recog test,2023.1.3,60.01161828187628,
339,0,339,0,,,,,,,,,,,,,,,,,,,,,,,,,,,,,,,,,,,,1299.2018411997706,1300.2195958998054,1297.6210826998577,1297.6210826998577,1297.6210826998577,1297.6210826998577,old_stationery_40.png,340,1.0,1.5759342000819743,,077,00,2025-06-17_14h12.34.885,Surprise recog test,2023.1.3,60.01161828187628,
340,0,340,0,,,,,,,,,,,,,,,,,,,,,,,,,,,,,,,,,,,,1302.6048137000762,1303.6124808997847,1300.2195958998054,1300.2195958998054,1300.2195958998054,1300.2195958998054,old_sceneIn_28.png,341,1.0,2.3817285001277924,,077,00,2025-06-17_14h12.34.885,Surprise recog test,2023.1.3,60.01161828187628,
341,0,341,0,,,,,,,,,,,,,,,,,,,,,,,,,,,,,,,,,,,,1305.3465531999245,1306.3766465000808,1303.6124808997847,1303.6124808997847,1303.6124808997847,1303.6124808997847,old_fruit_35.png,342,2.0,1.7304365998134017,,077,00,2025-06-17_14h12.34.885,Surprise recog test,2023.1.3,60.01161828187628,
342,0,342,0,,,,,,,,,,,,,,,,,,,,,,,,,,,,,,,,,,,,1308.4839487997815,1309.5142200998962,1306.3766465000808,1306.3766465000808,1306.3766465000808,1306.3766465000808,old_fruit_48.png,343,3.0,2.109662299975753,,077,00,2025-06-17_14h12.34.885,Surprise recog test,2023.1.3,60.01161828187628,
343,0,343,0,,,,,,,,,,,,,,,,,,,,,,,,,,,,,,,,,,,,1311.3183492999524,1312.3479665000923,1309.5142200998962,1309.5142200998962,1309.5142200998962,1309.5142200998962,new_fruit_19.png,344,4.0,1.8031526999548078,,077,00,2025-06-17_14h12.34.885,Surprise recog test,2023.1.3,60.01161828187628,
344,0,344,0,,,,,,,,,,,,,,,,,,,,,,,,,,,,,,,,,,,,1313.5804188000038,1314.5955119999126,1312.3479665000923,1312.3479665000923,1312.3479665000923,1312.3479665000923,new_sceneOut_21.png,345,4.0,1.2342130998149514,,077,00,2025-06-17_14h12.34.885,Surprise recog test,2023.1.3,60.01161828187628,
345,0,345,0,,,,,,,,,,,,,,,,,,,,,,,,,,,,,,,,,,,,1315.704822300002,1316.7375741996802,1314.5955119999126,1314.5955119999126,1314.5955119999126,1314.5955119999126,new_sceneIn_37.png,346,4.0,1.1111520999111235,,077,00,2025-06-17_14h12.34.885,Surprise recog test,2023.1.3,60.01161828187628,
346,0,346,0,,,,,,,,,,,,,,,,,,,,,,,,,,,,,,,,,,,,1317.9166084998287,1318.930228000041,1316.7375741996802,1316.7375741996802,1316.7375741996802,1316.7375741996802,old_sceneOut_35.png,347,4.0,1.1815852001309395,,077,00,2025-06-17_14h12.34.885,Surprise recog test,2023.1.3,60.01161828187628,
347,0,347,0,,,,,,,,,,,,,,,,,,,,,,,,,,,,,,,,,,,,1320.7699045999907,1321.7832192997448,1318.930228000041,1318.930228000041,1318.930228000041,1318.930228000041,new_sceneIn_45.png,348,5.0,1.83764210017398,,077,00,2025-06-17_14h12.34.885,Surprise recog test,2023.1.3,60.01161828187628,
348,0,348,0,,,,,,,,,,,,,,,,,,,,,,,,,,,,,,,,,,,,1323.1578257000074,,1321.7832192997448,1321.7832192997448,1321.7832192997448,1321.7832192997448,new_sceneOut_34.png,349,5.0,1.374952900223434,,077,00,2025-06-17_14h12.34.885,Surprise recog test,2023.1.3,60.01161828187628,
349,0,349,0,,,,,,,,,,,,,,,,,,,,,,,,,,,,,,,,,,,,1326.1729361996986,1327.1930554998107,1324.1831609001383,1324.1831609001383,1324.1831609001383,1324.1831609001383,new_fruit_47.png,350,4.0,1.987332500051707,,077,00,2025-06-17_14h12.34.885,Surprise recog test,2023.1.3,60.01161828187628,
350,0,350,0,,,,,,,,,,,,,,,,,,,,,,,,,,,,,,,,,,,,1329.670660499949,1330.6896816999651,1327.1930554998107,1327.1930554998107,1327.1930554998107,1327.1930554998107,old_sceneIn_5.png,351,2.0,2.474934599827975,,077,00,2025-06-17_14h12.34.885,Surprise recog test,2023.1.3,60.01161828187628,
