trial_loop.thisRepN,trial_loop.thisTrialN,trial_loop.thisN,trial_loop.thisIndex,VAS_slider.started,VAS_text.started,VAS_notstressed_text.started,VAS_stressed_text.started,continue_input.started,continue_text.started,label0.started,label10.started,label20.started,label30.started,label40.started,label50.started,label60.started,label70.started,label80.started,label90.started,label100.started,VAS_slider.response,VAS_slider.rt,VAS_slider.history,Answer_VAS,continue_input.keys,instruction_text.started,continue_text_2.started,continue_input_2.started,continue_input_2.keys,continue_input_2.rt,continue_input_2.duration,example_text.started,example_slider_2.started,example_image.started,example_slider_2.response,example_slider_2.rt,fixcross.started,fixcross.stopped,front_square.started,stim_images.started,trial_inst_images.started,slider_images.started,thisImg,trial_count,slider_images.response,slider_images.rt,slider_images.stopped,outro.started,participant,condition,date,expName,psychopyVersion,frameRate,
,,,,220.95135359999998,220.95135359999998,220.95135359999998,220.95135359999998,220.95135359999998,220.95135359999998,220.95135359999998,220.95135359999998,220.95135359999998,220.95135359999998,220.95135359999998,220.95135359999998,220.95135359999998,220.95135359999998,220.95135359999998,220.95135359999998,220.95135359999998,1.988888888888889,10.21855439999996,"[(1.988888888888889, 10.21855439999996)]",1.988888888888889,None,,,,,,,,,,,,,,,,,,,,,,,,078,10,2025-06-24_16h40.42.064,Surprise recog test,2023.1.3,59.96548386747622,
,,,,,,,,,,,,,,,,,,,,,,,,,,231.24254899999997,231.24254899999997,231.24254899999997,space,34.73878050000005,None,,,,,,,,,,,,,,,,,,078,10,2025-06-24_16h40.42.064,Surprise recog test,2023.1.3,59.96548386747622,
0,0,0,0,,,,,,,,,,,,,,,,,,,,,,,,,,,,,266.12277589999997,266.12277589999997,266.12277589999997,4.0,29.260202800000002,298.97816409999996,299.99416440000005,296.32493049999994,296.32493049999994,296.32493049999994,296.32493049999994,new_sceneOut_48.png,1,5.0,2.6587217999999666,,,078,10,2025-06-24_16h40.42.064,Surprise recog test,2023.1.3,59.96548386747622,
1,0,1,0,,,,,,,,,,,,,,,,,,,,,,,,,,,,,,,,,,303.02660489999994,,299.99416440000005,299.99416440000005,299.99416440000005,299.99416440000005,new_sceneIn_10.png,2,3.0,3.0293805999999677,,,078,10,2025-06-24_16h40.42.064,Surprise recog test,2023.1.3,59.96548386747622,
2,0,2,0,,,,,,,,,,,,,,,,,,,,,,,,,,,,,,,,,,306.215962,307.2342566,304.04624060000003,304.04624060000003,304.04624060000003,304.04624060000003,new_sceneIn_20.png,3,4.0,2.164163599999995,,,078,10,2025-06-24_16h40.42.064,Surprise recog test,2023.1.3,59.96548386747622,
3,0,3,0,,,,,,,,,,,,,,,,,,,,,,,,,,,,,,,,,,308.9228124,309.9396646,307.2342566,307.2342566,307.2342566,307.2342566,new_fruit_2.png,4,4.0,1.6849194999999781,,,078,10,2025-06-24_16h40.42.064,Surprise recog test,2023.1.3,59.96548386747622,
4,0,4,0,,,,,,,,,,,,,,,,,,,,,,,,,,,,,,,,,,312.78644339999994,,309.9396646,309.9396646,309.9396646,309.9396646,old_sceneOut_30.png,5,4.0,2.8452336999999943,,,078,10,2025-06-24_16h40.42.064,Surprise recog test,2023.1.3,59.96548386747622,
5,0,5,0,,,,,,,,,,,,,,,,,,,,,,,,,,,,,,,,,,316.19762979999996,317.2118703,313.8052252,313.8052252,313.8052252,313.8052252,new_stationery_32.png,6,4.0,2.3892548000000033,,,078,10,2025-06-24_16h40.42.064,Surprise recog test,2023.1.3,59.96548386747622,
6,0,6,0,,,,,,,,,,,,,,,,,,,,,,,,,,,,,,,,,,318.6209017,319.62800300000004,317.2118703,317.2118703,317.2118703,317.2118703,new_sceneOut_38.png,7,4.0,1.3995783999999958,,,078,10,2025-06-24_16h40.42.064,Surprise recog test,2023.1.3,59.96548386747622,
7,0,7,0,,,,,,,,,,,,,,,,,,,,,,,,,,,,,,,,,,321.86459820000005,322.8826,319.62800300000004,319.62800300000004,319.62800300000004,319.62800300000004,old_sceneOut_37.png,8,4.0,2.233102599999995,,,078,10,2025-06-24_16h40.42.064,Surprise recog test,2023.1.3,59.96548386747622,
8,0,8,0,,,,,,,,,,,,,,,,,,,,,,,,,,,,,,,,,,324.6749088,325.6974182,322.8826,322.8826,322.8826,322.8826,old_fruit_30.png,9,1.0,1.788457199999982,,,078,10,2025-06-24_16h40.42.064,Surprise recog test,2023.1.3,59.96548386747622,
9,0,9,0,,,,,,,,,,,,,,,,,,,,,,,,,,,,,,,,,,327.3196404,328.33318969999993,325.6974182,325.6974182,325.6974182,325.6974182,new_sceneIn_6.png,10,5.0,1.6243492000000401,,,078,10,2025-06-24_16h40.42.064,Surprise recog test,2023.1.3,59.96548386747622,
10,0,10,0,,,,,,,,,,,,,,,,,,,,,,,,,,,,,,,,,,330.74761649999994,331.7631294,328.33318969999993,328.33318969999993,328.33318969999993,328.33318969999993,old_sceneIn_38.png,11,2.0,2.4061001000000033,,,078,10,2025-06-24_16h40.42.064,Surprise recog test,2023.1.3,59.96548386747622,
11,0,11,0,,,,,,,,,,,,,,,,,,,,,,,,,,,,,,,,,,333.2840413,334.2917318,331.7631294,331.7631294,331.7631294,331.7631294,old_fruit_12.png,12,2.0,1.5188670999999658,,,078,10,2025-06-24_16h40.42.064,Surprise recog test,2023.1.3,59.96548386747622,
12,0,12,0,,,,,,,,,,,,,,,,,,,,,,,,,,,,,,,,,,336.42707570000005,337.45289519999994,334.2917318,334.2917318,334.2917318,334.2917318,new_stationery_4.png,13,4.0,2.1298724000000107,,,078,10,2025-06-24_16h40.42.064,Surprise recog test,2023.1.3,59.96548386747622,
13,0,13,0,,,,,,,,,,,,,,,,,,,,,,,,,,,,,,,,,,340.5214389,341.54205460000003,337.45289519999994,337.45289519999994,337.45289519999994,337.45289519999994,old_sceneIn_3.png,14,5.0,3.067851399999995,,,078,10,2025-06-24_16h40.42.064,Surprise recog test,2023.1.3,59.96548386747622,
14,0,14,0,,,,,,,,,,,,,,,,,,,,,,,,,,,,,,,,,,343.94433960000003,,341.54205460000003,341.54205460000003,341.54205460000003,341.54205460000003,old_sceneOut_6.png,15,4.0,2.401373299999989,,,078,10,2025-06-24_16h40.42.064,Surprise recog test,2023.1.3,59.96548386747622,
15,0,15,0,,,,,,,,,,,,,,,,,,,,,,,,,,,,,,,,,,347.45572330000005,348.47862570000007,344.9768503,344.9768503,344.9768503,344.9768503,new_sceneIn_29.png,16,5.0,2.4808618000000138,,,078,10,2025-06-24_16h40.42.064,Surprise recog test,2023.1.3,59.96548386747622,
16,0,16,0,,,,,,,,,,,,,,,,,,,,,,,,,,,,,,,,,,350.95372440000006,351.9860788,348.47862570000007,348.47862570000007,348.47862570000007,348.47862570000007,old_fruit_34.png,17,4.0,2.4765082999999777,,,078,10,2025-06-24_16h40.42.064,Surprise recog test,2023.1.3,59.96548386747622,
17,0,17,0,,,,,,,,,,,,,,,,,,,,,,,,,,,,,,,,,,354.3960714,355.41971250000006,351.9860788,351.9860788,351.9860788,351.9860788,old_sceneIn_40.png,18,3.0,2.4135629999999537,,,078,10,2025-06-24_16h40.42.064,Surprise recog test,2023.1.3,59.96548386747622,
18,0,18,0,,,,,,,,,,,,,,,,,,,,,,,,,,,,,,,,,,357.2509679,358.26112450000005,355.41971250000006,355.41971250000006,355.41971250000006,355.41971250000006,new_stationery_3.png,19,4.0,1.832486700000004,,,078,10,2025-06-24_16h40.42.064,Surprise recog test,2023.1.3,59.96548386747622,
19,0,19,0,,,,,,,,,,,,,,,,,,,,,,,,,,,,,,,,,,361.1956553,362.2237605,358.26112450000005,358.26112450000005,358.26112450000005,358.26112450000005,new_stationery_6.png,20,4.0,2.9305914999999914,,,078,10,2025-06-24_16h40.42.064,Surprise recog test,2023.1.3,59.96548386747622,
20,0,20,0,,,,,,,,,,,,,,,,,,,,,,,,,,,,,,,,,,363.88377420000006,364.91115190000005,362.2237605,362.2237605,362.2237605,362.2237605,old_stationery_44.png,21,1.0,1.6630810000000338,,,078,10,2025-06-24_16h40.42.064,Surprise recog test,2023.1.3,59.96548386747622,
21,0,21,0,,,,,,,,,,,,,,,,,,,,,,,,,,,,,,,,,,367.52826590000006,368.53645730000005,364.91115190000005,364.91115190000005,364.91115190000005,364.91115190000005,old_sceneOut_42.png,22,4.0,2.614399400000025,,,078,10,2025-06-24_16h40.42.064,Surprise recog test,2023.1.3,59.96548386747622,
22,0,22,0,,,,,,,,,,,,,,,,,,,,,,,,,,,,,,,,,,371.12689940000007,372.14866330000007,368.53645730000005,368.53645730000005,368.53645730000005,368.53645730000005,new_fruit_29.png,23,1.0,2.5855719999999565,,,078,10,2025-06-24_16h40.42.064,Surprise recog test,2023.1.3,59.96548386747622,
23,0,23,0,,,,,,,,,,,,,,,,,,,,,,,,,,,,,,,,,,375.10487810000006,,372.14866330000007,372.14866330000007,372.14866330000007,372.14866330000007,old_sceneOut_38.png,24,3.0,2.95543669999995,,,078,10,2025-06-24_16h40.42.064,Surprise recog test,2023.1.3,59.96548386747622,
24,0,24,0,,,,,,,,,,,,,,,,,,,,,,,,,,,,,,,,,,377.57242529999996,,376.13890360000005,376.13890360000005,376.13890360000005,376.13890360000005,old_sceneIn_26.png,25,4.0,1.436175800000001,,,078,10,2025-06-24_16h40.42.064,Surprise recog test,2023.1.3,59.96548386747622,
25,0,25,0,,,,,,,,,,,,,,,,,,,,,,,,,,,,,,,,,,380.1088131,,378.6010361,378.6010361,378.6010361,378.6010361,new_sceneOut_43.png,26,1.0,1.5079642999999123,,,078,10,2025-06-24_16h40.42.064,Surprise recog test,2023.1.3,59.96548386747622,
26,0,26,0,,,,,,,,,,,,,,,,,,,,,,,,,,,,,,,,,,382.9221999,383.9288001,381.1284521,381.1284521,381.1284521,381.1284521,old_fruit_2.png,27,3.0,1.7897019999999202,,,078,10,2025-06-24_16h40.42.064,Surprise recog test,2023.1.3,59.96548386747622,
27,0,27,0,,,,,,,,,,,,,,,,,,,,,,,,,,,,,,,,,,385.67069790000005,386.68851770000003,383.9288001,383.9288001,383.9288001,383.9288001,new_sceneOut_21.png,28,3.0,1.737756300000001,,,078,10,2025-06-24_16h40.42.064,Surprise recog test,2023.1.3,59.96548386747622,
28,0,28,0,,,,,,,,,,,,,,,,,,,,,,,,,,,,,,,,,,388.8223131,389.8336634,386.68851770000003,386.68851770000003,386.68851770000003,386.68851770000003,new_sceneOut_42.png,29,5.0,2.133429500000034,,,078,10,2025-06-24_16h40.42.064,Surprise recog test,2023.1.3,59.96548386747622,
29,0,29,0,,,,,,,,,,,,,,,,,,,,,,,,,,,,,,,,,,393.2913859,394.30610939999997,389.8336634,389.8336634,389.8336634,389.8336634,new_stationery_12.png,30,2.0,3.451588500000071,,,078,10,2025-06-24_16h40.42.064,Surprise recog test,2023.1.3,59.96548386747622,
30,0,30,0,,,,,,,,,,,,,,,,,,,,,,,,,,,,,,,,,,396.0052277,,394.30610939999997,394.30610939999997,394.30610939999997,394.30610939999997,new_stationery_20.png,31,5.0,1.6960598999999092,,,078,10,2025-06-24_16h40.42.064,Surprise recog test,2023.1.3,59.96548386747622,
31,0,31,0,,,,,,,,,,,,,,,,,,,,,,,,,,,,,,,,,,399.3527904,400.38124419999997,397.02533230000006,397.02533230000006,397.02533230000006,397.02533230000006,old_sceneIn_43.png,32,5.0,2.3232644999999366,,,078,10,2025-06-24_16h40.42.064,Surprise recog test,2023.1.3,59.96548386747622,
32,0,32,0,,,,,,,,,,,,,,,,,,,,,,,,,,,,,,,,,,402.8953195,,400.38124419999997,400.38124419999997,400.38124419999997,400.38124419999997,new_sceneOut_7.png,33,3.0,2.5174434000000474,,,078,10,2025-06-24_16h40.42.064,Surprise recog test,2023.1.3,59.96548386747622,
33,0,33,0,,,,,,,,,,,,,,,,,,,,,,,,,,,,,,,,,,405.32010880000007,406.33075110000004,403.9123058,403.9123058,403.9123058,403.9123058,new_stationery_37.png,34,4.0,1.4034887000000253,,,078,10,2025-06-24_16h40.42.064,Surprise recog test,2023.1.3,59.96548386747622,
34,0,34,0,,,,,,,,,,,,,,,,,,,,,,,,,,,,,,,,,,408.7361572,409.7521606,406.33075110000004,406.33075110000004,406.33075110000004,406.33075110000004,new_fruit_4.png,35,2.0,2.4001044999999976,,,078,10,2025-06-24_16h40.42.064,Surprise recog test,2023.1.3,59.96548386747622,
35,0,35,0,,,,,,,,,,,,,,,,,,,,,,,,,,,,,,,,,,412.3822364,413.3929802,409.7521606,409.7521606,409.7521606,409.7521606,new_sceneIn_22.png,36,4.0,2.6236820000000307,,,078,10,2025-06-24_16h40.42.064,Surprise recog test,2023.1.3,59.96548386747622,
36,0,36,0,,,,,,,,,,,,,,,,,,,,,,,,,,,,,,,,,,415.39521360000003,416.40560519999997,413.3929802,413.3929802,413.3929802,413.3929802,old_sceneIn_2.png,37,5.0,1.996794100000102,,,078,10,2025-06-24_16h40.42.064,Surprise recog test,2023.1.3,59.96548386747622,
37,0,37,0,,,,,,,,,,,,,,,,,,,,,,,,,,,,,,,,,,417.77001570000004,418.7877804,416.40560519999997,416.40560519999997,416.40560519999997,416.40560519999997,old_stationery_18.png,38,1.0,1.3592762000000675,,,078,10,2025-06-24_16h40.42.064,Surprise recog test,2023.1.3,59.96548386747622,
38,0,38,0,,,,,,,,,,,,,,,,,,,,,,,,,,,,,,,,,,420.56327410000006,421.5952571,418.7877804,418.7877804,418.7877804,418.7877804,new_sceneOut_28.png,39,3.0,1.7699160000000802,,,078,10,2025-06-24_16h40.42.064,Surprise recog test,2023.1.3,59.96548386747622,
39,0,39,0,,,,,,,,,,,,,,,,,,,,,,,,,,,,,,,,,,424.20857020000005,425.22906020000005,421.5952571,421.5952571,421.5952571,421.5952571,new_sceneIn_23.png,40,2.0,2.610365199999933,,,078,10,2025-06-24_16h40.42.064,Surprise recog test,2023.1.3,59.96548386747622,
40,0,40,0,,,,,,,,,,,,,,,,,,,,,,,,,,,,,,,,,,429.63575330000003,430.651665,425.22906020000005,425.22906020000005,425.22906020000005,425.22906020000005,new_sceneIn_47.png,41,3.0,4.407612999999969,,,078,10,2025-06-24_16h40.42.064,Surprise recog test,2023.1.3,59.96548386747622,
41,0,41,0,,,,,,,,,,,,,,,,,,,,,,,,,,,,,,,,,,433.5167417,434.5219035,430.651665,430.651665,430.651665,430.651665,new_stationery_43.png,42,4.0,2.8602207000000135,,,078,10,2025-06-24_16h40.42.064,Surprise recog test,2023.1.3,59.96548386747622,
42,0,42,0,,,,,,,,,,,,,,,,,,,,,,,,,,,,,,,,,,436.09801749999997,437.10934210000005,434.5219035,434.5219035,434.5219035,434.5219035,old_stationery_28.png,43,1.0,1.5724268000000166,,,078,10,2025-06-24_16h40.42.064,Surprise recog test,2023.1.3,59.96548386747622,
43,0,43,0,,,,,,,,,,,,,,,,,,,,,,,,,,,,,,,,,,439.57517630000007,,437.10934210000005,437.10934210000005,437.10934210000005,437.10934210000005,old_sceneOut_18.png,44,3.0,2.46098070000005,,,078,10,2025-06-24_16h40.42.064,Surprise recog test,2023.1.3,59.96548386747622,
44,0,44,0,,,,,,,,,,,,,,,,,,,,,,,,,,,,,,,,,,442.1229075,443.13516330000004,440.5971008,440.5971008,440.5971008,440.5971008,old_sceneIn_1.png,45,4.0,1.522810800000002,,,078,10,2025-06-24_16h40.42.064,Surprise recog test,2023.1.3,59.96548386747622,
45,0,45,0,,,,,,,,,,,,,,,,,,,,,,,,,,,,,,,,,,444.66497260000006,445.6803473,443.13516330000004,443.13516330000004,443.13516330000004,443.13516330000004,old_fruit_18.png,46,2.0,1.5300154999999904,,,078,10,2025-06-24_16h40.42.064,Surprise recog test,2023.1.3,59.96548386747622,
46,0,46,0,,,,,,,,,,,,,,,,,,,,,,,,,,,,,,,,,,447.37144810000007,448.3847955,445.6803473,445.6803473,445.6803473,445.6803473,new_fruit_3.png,47,1.0,1.6874487000000045,,,078,10,2025-06-24_16h40.42.064,Surprise recog test,2023.1.3,59.96548386747622,
47,0,47,0,,,,,,,,,,,,,,,,,,,,,,,,,,,,,,,,,,450.71404800000005,451.7226045,448.3847955,448.3847955,448.3847955,448.3847955,new_fruit_41.png,48,3.0,2.3189644999999928,,,078,10,2025-06-24_16h40.42.064,Surprise recog test,2023.1.3,59.96548386747622,
48,0,48,0,,,,,,,,,,,,,,,,,,,,,,,,,,,,,,,,,,453.3049135,454.32515950000004,451.7226045,451.7226045,451.7226045,451.7226045,old_sceneOut_9.png,49,4.0,1.5804020000000492,,,078,10,2025-06-24_16h40.42.064,Surprise recog test,2023.1.3,59.96548386747622,
49,0,49,0,,,,,,,,,,,,,,,,,,,,,,,,,,,,,,,,,,455.9939306,457.02384900000004,454.32515950000004,454.32515950000004,454.32515950000004,454.32515950000004,new_sceneIn_44.png,50,5.0,1.6645884000000706,,,078,10,2025-06-24_16h40.42.064,Surprise recog test,2023.1.3,59.96548386747622,
50,0,50,0,,,,,,,,,,,,,,,,,,,,,,,,,,,,,,,,,,459.2963771,460.3279662,457.02384900000004,457.02384900000004,457.02384900000004,457.02384900000004,old_sceneIn_47.png,51,4.0,2.2757901999999604,,,078,10,2025-06-24_16h40.42.064,Surprise recog test,2023.1.3,59.96548386747622,
51,0,51,0,,,,,,,,,,,,,,,,,,,,,,,,,,,,,,,,,,463.54172500000004,464.5612505,460.3279662,460.3279662,460.3279662,460.3279662,new_sceneIn_32.png,52,2.0,3.21647889999997,,,078,10,2025-06-24_16h40.42.064,Surprise recog test,2023.1.3,59.96548386747622,
52,0,52,0,,,,,,,,,,,,,,,,,,,,,,,,,,,,,,,,,,466.43408810000005,467.4649124,464.5612505,464.5612505,464.5612505,464.5612505,old_sceneIn_17.png,53,3.0,1.874360700000011,,,078,10,2025-06-24_16h40.42.064,Surprise recog test,2023.1.3,59.96548386747622,
53,0,53,0,,,,,,,,,,,,,,,,,,,,,,,,,,,,,,,,,,470.5037059,471.5415074,467.4649124,467.4649124,467.4649124,467.4649124,old_sceneOut_19.png,54,4.0,3.041571400000066,,,078,10,2025-06-24_16h40.42.064,Surprise recog test,2023.1.3,59.96548386747622,
54,0,54,0,,,,,,,,,,,,,,,,,,,,,,,,,,,,,,,,,,473.31629599999997,474.3270962,471.5415074,471.5415074,471.5415074,471.5415074,old_sceneOut_8.png,55,4.0,1.7754130000000714,,,078,10,2025-06-24_16h40.42.064,Surprise recog test,2023.1.3,59.96548386747622,
55,0,55,0,,,,,,,,,,,,,,,,,,,,,,,,,,,,,,,,,,476.2234591,477.252469,474.3270962,474.3270962,474.3270962,474.3270962,old_fruit_32.png,56,1.0,1.8962235999999848,,,078,10,2025-06-24_16h40.42.064,Surprise recog test,2023.1.3,59.96548386747622,
56,0,56,0,,,,,,,,,,,,,,,,,,,,,,,,,,,,,,,,,,479.2065613,,477.252469,477.252469,477.252469,477.252469,new_sceneIn_31.png,57,5.0,1.9565297999999984,,,078,10,2025-06-24_16h40.42.064,Surprise recog test,2023.1.3,59.96548386747622,
57,0,57,0,,,,,,,,,,,,,,,,,,,,,,,,,,,,,,,,,,483.7010365,484.72346820000007,480.22894740000004,480.22894740000004,480.22894740000004,480.22894740000004,old_stationery_7.png,58,4.0,3.4679405000000543,,,078,10,2025-06-24_16h40.42.064,Surprise recog test,2023.1.3,59.96548386747622,
58,0,58,0,,,,,,,,,,,,,,,,,,,,,,,,,,,,,,,,,,487.5584503,488.57937749999996,484.72346820000007,484.72346820000007,484.72346820000007,484.72346820000007,new_sceneOut_45.png,59,4.0,2.836128799999983,,,078,10,2025-06-24_16h40.42.064,Surprise recog test,2023.1.3,59.96548386747622,
59,0,59,0,,,,,,,,,,,,,,,,,,,,,,,,,,,,,,,,,,490.01433540000005,491.0348113,488.57937749999996,488.57937749999996,488.57937749999996,488.57937749999996,old_fruit_38.png,60,1.0,1.4317862000000332,,,078,10,2025-06-24_16h40.42.064,Surprise recog test,2023.1.3,59.96548386747622,
60,0,60,0,,,,,,,,,,,,,,,,,,,,,,,,,,,,,,,,,,493.4621466,494.4791788,491.0348113,491.0348113,491.0348113,491.0348113,old_sceneOut_40.png,61,4.0,2.428063800000018,,,078,10,2025-06-24_16h40.42.064,Surprise recog test,2023.1.3,59.96548386747622,
61,0,61,0,,,,,,,,,,,,,,,,,,,,,,,,,,,,,,,,,,496.3093013,497.33205470000007,494.4791788,494.4791788,494.4791788,494.4791788,old_sceneIn_34.png,62,3.0,1.8306821000001037,,,078,10,2025-06-24_16h40.42.064,Surprise recog test,2023.1.3,59.96548386747622,
62,0,62,0,,,,,,,,,,,,,,,,,,,,,,,,,,,,,,,,,,500.11306690000004,501.1292301,497.33205470000007,497.33205470000007,497.33205470000007,497.33205470000007,new_sceneOut_34.png,63,4.0,2.779025499999989,,,078,10,2025-06-24_16h40.42.064,Surprise recog test,2023.1.3,59.96548386747622,
63,0,63,0,,,,,,,,,,,,,,,,,,,,,,,,,,,,,,,,,,502.5742527,503.58149220000007,501.1292301,501.1292301,501.1292301,501.1292301,new_fruit_25.png,64,2.0,1.440262999999959,,,078,10,2025-06-24_16h40.42.064,Surprise recog test,2023.1.3,59.96548386747622,
64,0,64,0,,,,,,,,,,,,,,,,,,,,,,,,,,,,,,,,,,506.1851306,507.2015527,503.58149220000007,503.58149220000007,503.58149220000007,503.58149220000007,new_stationery_23.png,65,3.0,2.599168899999995,,,078,10,2025-06-24_16h40.42.064,Surprise recog test,2023.1.3,59.96548386747622,
65,0,65,0,,,,,,,,,,,,,,,,,,,,,,,,,,,,,,,,,,509.747875,510.7603745,507.2015527,507.2015527,507.2015527,507.2015527,new_stationery_38.png,66,4.0,2.542205200000012,,,078,10,2025-06-24_16h40.42.064,Surprise recog test,2023.1.3,59.96548386747622,
66,0,66,0,,,,,,,,,,,,,,,,,,,,,,,,,,,,,,,,,,512.5350151,,510.7603745,510.7603745,510.7603745,510.7603745,new_stationery_45.png,67,1.0,1.7750414999999293,,,078,10,2025-06-24_16h40.42.064,Surprise recog test,2023.1.3,59.96548386747622,
67,0,67,0,,,,,,,,,,,,,,,,,,,,,,,,,,,,,,,,,,515.2787507,516.3059972,513.5677426,513.5677426,513.5677426,513.5677426,new_sceneOut_46.png,68,3.0,1.7129261999999699,,,078,10,2025-06-24_16h40.42.064,Surprise recog test,2023.1.3,59.96548386747622,
68,0,68,0,,,,,,,,,,,,,,,,,,,,,,,,,,,,,,,,,,517.6610744000001,518.6863665,516.3059972,516.3059972,516.3059972,516.3059972,old_sceneOut_20.png,69,4.0,1.3576493000000482,,,078,10,2025-06-24_16h40.42.064,Surprise recog test,2023.1.3,59.96548386747622,
69,0,69,0,,,,,,,,,,,,,,,,,,,,,,,,,,,,,,,,,,520.7629854,521.7858245,518.6863665,518.6863665,518.6863665,518.6863665,new_fruit_50.png,70,3.0,2.0784122000000025,,,078,10,2025-06-24_16h40.42.064,Surprise recog test,2023.1.3,59.96548386747622,
70,0,70,0,,,,,,,,,,,,,,,,,,,,,,,,,,,,,,,,,,525.5004839000001,526.5305470000001,521.7858245,521.7858245,521.7858245,521.7858245,new_fruit_37.png,71,3.0,3.7138724999999795,,,078,10,2025-06-24_16h40.42.064,Surprise recog test,2023.1.3,59.96548386747622,
71,0,71,0,,,,,,,,,,,,,,,,,,,,,,,,,,,,,,,,,,529.0881303,530.1148387000001,526.5305470000001,526.5305470000001,526.5305470000001,526.5305470000001,old_sceneOut_17.png,72,4.0,2.56022889999997,,,078,10,2025-06-24_16h40.42.064,Surprise recog test,2023.1.3,59.96548386747622,
72,0,72,0,,,,,,,,,,,,,,,,,,,,,,,,,,,,,,,,,,532.1744333,533.1973966,530.1148387000001,530.1148387000001,530.1148387000001,530.1148387000001,old_fruit_20.png,73,3.0,2.059510699999919,,,078,10,2025-06-24_16h40.42.064,Surprise recog test,2023.1.3,59.96548386747622,
73,0,73,0,,,,,,,,,,,,,,,,,,,,,,,,,,,,,,,,,,534.9505814,535.969145,533.1973966,533.1973966,533.1973966,533.1973966,new_stationery_19.png,74,4.0,1.753429399999959,,,078,10,2025-06-24_16h40.42.064,Surprise recog test,2023.1.3,59.96548386747622,
74,0,74,0,,,,,,,,,,,,,,,,,,,,,,,,,,,,,,,,,,539.2606848,540.2778422,535.969145,535.969145,535.969145,535.969145,new_sceneIn_8.png,75,4.0,3.2938354000000345,,,078,10,2025-06-24_16h40.42.064,Surprise recog test,2023.1.3,59.96548386747622,
75,0,75,0,,,,,,,,,,,,,,,,,,,,,,,,,,,,,,,,,,542.4341746,543.4613751,540.2778422,540.2778422,540.2778422,540.2778422,new_fruit_7.png,76,5.0,2.1523719000000483,,,078,10,2025-06-24_16h40.42.064,Surprise recog test,2023.1.3,59.96548386747622,
76,0,76,0,,,,,,,,,,,,,,,,,,,,,,,,,,,,,,,,,,545.9120611000001,,543.4613751,543.4613751,543.4613751,543.4613751,new_fruit_34.png,77,4.0,2.4519738999999845,,,078,10,2025-06-24_16h40.42.064,Surprise recog test,2023.1.3,59.96548386747622,
77,0,77,0,,,,,,,,,,,,,,,,,,,,,,,,,,,,,,,,,,548.9595181,549.9759992,546.9434774,546.9434774,546.9434774,546.9434774,old_stationery_47.png,78,1.0,2.0174760999999535,,,078,10,2025-06-24_16h40.42.064,Surprise recog test,2023.1.3,59.96548386747622,
78,0,78,0,,,,,,,,,,,,,,,,,,,,,,,,,,,,,,,,,,550.8155921,,549.9759992,549.9759992,549.9759992,549.9759992,old_stationery_42.png,79,1.0,0.8401797000000215,,,078,10,2025-06-24_16h40.42.064,Surprise recog test,2023.1.3,59.96548386747622,
79,0,79,0,,,,,,,,,,,,,,,,,,,,,,,,,,,,,,,,,,552.765442,553.76958,551.8440369,551.8440369,551.8440369,551.8440369,new_stationery_1.png,80,1.0,0.9165583000000197,,,078,10,2025-06-24_16h40.42.064,Surprise recog test,2023.1.3,59.96548386747622,
80,0,80,0,,,,,,,,,,,,,,,,,,,,,,,,,,,,,,,,,,555.0189846000001,556.0295533,553.76958,553.76958,553.76958,553.76958,old_stationery_9.png,81,1.0,1.245451800000069,,,078,10,2025-06-24_16h40.42.064,Surprise recog test,2023.1.3,59.96548386747622,
81,0,81,0,,,,,,,,,,,,,,,,,,,,,,,,,,,,,,,,,,557.8974451,558.9076394,556.0295533,556.0295533,556.0295533,556.0295533,old_fruit_3.png,82,3.0,1.867972399999985,,,078,10,2025-06-24_16h40.42.064,Surprise recog test,2023.1.3,59.96548386747622,
82,0,82,0,,,,,,,,,,,,,,,,,,,,,,,,,,,,,,,,,,560.8645176,561.8868081,558.9076394,558.9076394,558.9076394,558.9076394,new_fruit_38.png,83,4.0,1.9522590000000264,,,078,10,2025-06-24_16h40.42.064,Surprise recog test,2023.1.3,59.96548386747622,
83,0,83,0,,,,,,,,,,,,,,,,,,,,,,,,,,,,,,,,,,563.8402632,564.8472647,561.8868081,561.8868081,561.8868081,561.8868081,old_sceneIn_6.png,84,1.0,1.9547754000000168,,,078,10,2025-06-24_16h40.42.064,Surprise recog test,2023.1.3,59.96548386747622,
84,0,84,0,,,,,,,,,,,,,,,,,,,,,,,,,,,,,,,,,,566.4998493,567.5192076000001,564.8472647,564.8472647,564.8472647,564.8472647,new_fruit_49.png,85,2.0,1.648557500000038,,,078,10,2025-06-24_16h40.42.064,Surprise recog test,2023.1.3,59.96548386747622,
85,0,85,0,,,,,,,,,,,,,,,,,,,,,,,,,,,,,,,,,,569.8039652,570.8340482,567.5192076000001,567.5192076000001,567.5192076000001,567.5192076000001,new_sceneIn_25.png,86,4.0,2.2806916000000683,,,078,10,2025-06-24_16h40.42.064,Surprise recog test,2023.1.3,59.96548386747622,
86,0,86,0,,,,,,,,,,,,,,,,,,,,,,,,,,,,,,,,,,573.0991067,574.1202117,570.8340482,570.8340482,570.8340482,570.8340482,new_sceneOut_6.png,87,4.0,2.2618966,,,078,10,2025-06-24_16h40.42.064,Surprise recog test,2023.1.3,59.96548386747622,
87,0,87,0,,,,,,,,,,,,,,,,,,,,,,,,,,,,,,,,,,576.9189706,577.9273486000001,574.1202117,574.1202117,574.1202117,574.1202117,old_sceneOut_5.png,88,3.0,2.800286500000084,,,078,10,2025-06-24_16h40.42.064,Surprise recog test,2023.1.3,59.96548386747622,
88,0,88,0,,,,,,,,,,,,,,,,,,,,,,,,,,,,,,,,,,580.0374407,581.0590088,577.9273486000001,577.9273486000001,577.9273486000001,577.9273486000001,new_fruit_48.png,89,3.0,2.1052651999999625,,,078,10,2025-06-24_16h40.42.064,Surprise recog test,2023.1.3,59.96548386747622,
89,0,89,0,,,,,,,,,,,,,,,,,,,,,,,,,,,,,,,,,,582.8191958,583.8428756000001,581.0590088,581.0590088,581.0590088,581.0590088,new_sceneOut_37.png,90,5.0,1.7623929999999746,,,078,10,2025-06-24_16h40.42.064,Surprise recog test,2023.1.3,59.96548386747622,
90,0,90,0,,,,,,,,,,,,,,,,,,,,,,,,,,,,,,,,,,586.0098759,587.0183940000001,583.8428756000001,583.8428756000001,583.8428756000001,583.8428756000001,new_fruit_42.png,91,4.0,2.1688896999999088,,,078,10,2025-06-24_16h40.42.064,Surprise recog test,2023.1.3,59.96548386747622,
91,0,91,0,,,,,,,,,,,,,,,,,,,,,,,,,,,,,,,,,,589.7429534,590.7684722,587.0183940000001,587.0183940000001,587.0183940000001,587.0183940000001,new_sceneOut_27.png,92,4.0,2.719743900000026,,,078,10,2025-06-24_16h40.42.064,Surprise recog test,2023.1.3,59.96548386747622,
92,0,92,0,,,,,,,,,,,,,,,,,,,,,,,,,,,,,,,,,,593.1371805,594.1656433,590.7684722,590.7684722,590.7684722,590.7684722,new_sceneIn_34.png,93,4.0,2.366869299999962,,,078,10,2025-06-24_16h40.42.064,Surprise recog test,2023.1.3,59.96548386747622,
93,0,93,0,,,,,,,,,,,,,,,,,,,,,,,,,,,,,,,,,,597.1749419,598.2065416,594.1656433,594.1656433,594.1656433,594.1656433,new_fruit_21.png,94,2.0,3.011873199999968,,,078,10,2025-06-24_16h40.42.064,Surprise recog test,2023.1.3,59.96548386747622,
94,0,94,0,,,,,,,,,,,,,,,,,,,,,,,,,,,,,,,,,,600.7721218,601.7947058,598.2065416,598.2065416,598.2065416,598.2065416,new_fruit_10.png,95,5.0,2.562717399999997,,,078,10,2025-06-24_16h40.42.064,Surprise recog test,2023.1.3,59.96548386747622,
95,0,95,0,,,,,,,,,,,,,,,,,,,,,,,,,,,,,,,,,,603.7004576,604.7177199,601.7947058,601.7947058,601.7947058,601.7947058,old_fruit_17.png,96,4.0,1.9090920999999526,,,078,10,2025-06-24_16h40.42.064,Surprise recog test,2023.1.3,59.96548386747622,
96,0,96,0,,,,,,,,,,,,,,,,,,,,,,,,,,,,,,,,,,606.7839825,607.8106087,604.7177199,604.7177199,604.7177199,604.7177199,new_sceneIn_43.png,97,5.0,2.063606899999968,,,078,10,2025-06-24_16h40.42.064,Surprise recog test,2023.1.3,59.96548386747622,
97,0,97,0,,,,,,,,,,,,,,,,,,,,,,,,,,,,,,,,,,609.0872302,610.1040941,607.8106087,607.8106087,607.8106087,607.8106087,old_sceneOut_43.png,98,4.0,1.2787652999999182,,,078,10,2025-06-24_16h40.42.064,Surprise recog test,2023.1.3,59.96548386747622,
98,0,98,0,,,,,,,,,,,,,,,,,,,,,,,,,,,,,,,,,,611.7915215,612.8172335,610.1040941,610.1040941,610.1040941,610.1040941,new_sceneIn_14.png,99,4.0,1.683183999999983,,,078,10,2025-06-24_16h40.42.064,Surprise recog test,2023.1.3,59.96548386747622,
99,0,99,0,,,,,,,,,,,,,,,,,,,,,,,,,,,,,,,,,,614.5172455000001,615.5289436,612.8172335,612.8172335,612.8172335,612.8172335,old_sceneOut_26.png,100,4.0,1.7024660999999242,,,078,10,2025-06-24_16h40.42.064,Surprise recog test,2023.1.3,59.96548386747622,
100,0,100,0,,,,,,,,,,,,,,,,,,,,,,,,,,,,,,,,,,617.1657260000001,618.1895581,615.5289436,615.5289436,615.5289436,615.5289436,old_fruit_15.png,101,1.0,1.6340227999999115,,,078,10,2025-06-24_16h40.42.064,Surprise recog test,2023.1.3,59.96548386747622,
101,0,101,0,,,,,,,,,,,,,,,,,,,,,,,,,,,,,,,,,,619.8740568000001,,618.1895581,618.1895581,618.1895581,618.1895581,new_stationery_26.png,102,4.0,1.6863237000000026,,,078,10,2025-06-24_16h40.42.064,Surprise recog test,2023.1.3,59.96548386747622,
102,0,102,0,,,,,,,,,,,,,,,,,,,,,,,,,,,,,,,,,,622.8001738,623.8270294,620.9081653000001,620.9081653000001,620.9081653000001,620.9081653000001,new_stationery_34.png,103,1.0,1.8929782999999816,,,078,10,2025-06-24_16h40.42.064,Surprise recog test,2023.1.3,59.96548386747622,
103,0,103,0,,,,,,,,,,,,,,,,,,,,,,,,,,,,,,,,,,626.3512643,627.3678701,623.8270294,623.8270294,623.8270294,623.8270294,old_stationery_27.png,104,3.0,2.5262321999999813,,,078,10,2025-06-24_16h40.42.064,Surprise recog test,2023.1.3,59.96548386747622,
104,0,104,0,,,,,,,,,,,,,,,,,,,,,,,,,,,,,,,,,,630.1932675,631.2165348,627.3678701,627.3678701,627.3678701,627.3678701,old_fruit_16.png,105,4.0,2.8248591999999917,,,078,10,2025-06-24_16h40.42.064,Surprise recog test,2023.1.3,59.96548386747622,
105,0,105,0,,,,,,,,,,,,,,,,,,,,,,,,,,,,,,,,,,633.2657048,634.2865406,631.2165348,631.2165348,631.2165348,631.2165348,new_sceneOut_19.png,106,3.0,2.047240200000033,,,078,10,2025-06-24_16h40.42.064,Surprise recog test,2023.1.3,59.96548386747622,
106,0,106,0,,,,,,,,,,,,,,,,,,,,,,,,,,,,,,,,,,635.8154871,636.8430391,634.2865406,634.2865406,634.2865406,634.2865406,old_stationery_16.png,107,1.0,1.5310779000000139,,,078,10,2025-06-24_16h40.42.064,Surprise recog test,2023.1.3,59.96548386747622,
107,0,107,0,,,,,,,,,,,,,,,,,,,,,,,,,,,,,,,,,,640.1783859,641.2081149,636.8430391,636.8430391,636.8430391,636.8430391,old_sceneIn_35.png,108,4.0,3.3368259999999736,,,078,10,2025-06-24_16h40.42.064,Surprise recog test,2023.1.3,59.96548386747622,
108,0,108,0,,,,,,,,,,,,,,,,,,,,,,,,,,,,,,,,,,642.9721857000001,643.9906661,641.2081149,641.2081149,641.2081149,641.2081149,old_stationery_11.png,109,1.0,1.7651349999999866,,,078,10,2025-06-24_16h40.42.064,Surprise recog test,2023.1.3,59.96548386747622,
109,0,109,0,,,,,,,,,,,,,,,,,,,,,,,,,,,,,,,,,,645.8594791,646.8777033,643.9906661,643.9906661,643.9906661,643.9906661,new_stationery_50.png,110,5.0,1.861443099999974,,,078,10,2025-06-24_16h40.42.064,Surprise recog test,2023.1.3,59.96548386747622,
110,0,110,0,,,,,,,,,,,,,,,,,,,,,,,,,,,,,,,,,,649.0183358,650.0374217,646.8777033,646.8777033,646.8777033,646.8777033,new_sceneOut_22.png,111,4.0,2.1405039999999644,,,078,10,2025-06-24_16h40.42.064,Surprise recog test,2023.1.3,59.96548386747622,
111,0,111,0,,,,,,,,,,,,,,,,,,,,,,,,,,,,,,,,,,652.6126163,653.6343081,650.0374217,650.0374217,650.0374217,650.0374217,new_sceneIn_15.png,112,5.0,2.571072699999945,,,078,10,2025-06-24_16h40.42.064,Surprise recog test,2023.1.3,59.96548386747622,
112,0,112,0,,,,,,,,,,,,,,,,,,,,,,,,,,,,,,,,,,655.2878893000001,,653.6343081,653.6343081,653.6343081,653.6343081,old_sceneIn_21.png,113,1.0,1.6565475999999535,,,078,10,2025-06-24_16h40.42.064,Surprise recog test,2023.1.3,59.96548386747622,
113,0,113,0,,,,,,,,,,,,,,,,,,,,,,,,,,,,,,,,,,658.5250153000001,659.5508625,656.3129365,656.3129365,656.3129365,656.3129365,old_fruit_13.png,114,4.0,2.2127871999999797,,,078,10,2025-06-24_16h40.42.064,Surprise recog test,2023.1.3,59.96548386747622,
114,0,114,0,,,,,,,,,,,,,,,,,,,,,,,,,,,,,,,,,,661.2752743,,659.5508625,659.5508625,659.5508625,659.5508625,new_fruit_14.png,115,2.0,1.726185600000008,,,078,10,2025-06-24_16h40.42.064,Surprise recog test,2023.1.3,59.96548386747622,
115,0,115,0,,,,,,,,,,,,,,,,,,,,,,,,,,,,,,,,,,665.0920848000001,666.113111,662.3086613,662.3086613,662.3086613,662.3086613,old_fruit_24.png,116,4.0,2.779694100000029,,,078,10,2025-06-24_16h40.42.064,Surprise recog test,2023.1.3,59.96548386747622,
116,0,116,0,,,,,,,,,,,,,,,,,,,,,,,,,,,,,,,,,,669.1133267,670.1353365,666.113111,666.113111,666.113111,666.113111,old_sceneIn_49.png,117,3.0,3.0030023000000483,,,078,10,2025-06-24_16h40.42.064,Surprise recog test,2023.1.3,59.96548386747622,
117,0,117,0,,,,,,,,,,,,,,,,,,,,,,,,,,,,,,,,,,671.3494535,,670.1353365,670.1353365,670.1353365,670.1353365,old_stationery_26.png,118,1.0,1.217845499999953,,,078,10,2025-06-24_16h40.42.064,Surprise recog test,2023.1.3,59.96548386747622,
118,0,118,0,,,,,,,,,,,,,,,,,,,,,,,,,,,,,,,,,,674.2957874,675.3190018,672.3716545,672.3716545,672.3716545,672.3716545,new_sceneIn_17.png,119,5.0,1.9195901000000504,,,078,10,2025-06-24_16h40.42.064,Surprise recog test,2023.1.3,59.96548386747622,
119,0,119,0,,,,,,,,,,,,,,,,,,,,,,,,,,,,,,,,,,676.8562882,,675.3190018,675.3190018,675.3190018,675.3190018,new_sceneOut_3.png,120,4.0,1.538303199999973,,,078,10,2025-06-24_16h40.42.064,Surprise recog test,2023.1.3,59.96548386747622,
120,0,120,0,,,,,,,,,,,,,,,,,,,,,,,,,,,,,,,,,,679.5053078,680.5175370000001,677.8947959,677.8947959,677.8947959,677.8947959,new_sceneIn_42.png,121,5.0,1.6145766999999296,,,078,10,2025-06-24_16h40.42.064,Surprise recog test,2023.1.3,59.96548386747622,
121,0,121,0,,,,,,,,,,,,,,,,,,,,,,,,,,,,,,,,,,682.9262772000001,,680.5175370000001,680.5175370000001,680.5175370000001,680.5175370000001,old_sceneOut_2.png,122,3.0,2.409441499999957,,,078,10,2025-06-24_16h40.42.064,Surprise recog test,2023.1.3,59.96548386747622,
122,0,122,0,,,,,,,,,,,,,,,,,,,,,,,,,,,,,,,,,,685.8246549,686.839701,683.9598198,683.9598198,683.9598198,683.9598198,old_sceneOut_48.png,123,4.0,1.863777500000083,,,078,10,2025-06-24_16h40.42.064,Surprise recog test,2023.1.3,59.96548386747622,
123,0,123,0,,,,,,,,,,,,,,,,,,,,,,,,,,,,,,,,,,689.7093567000001,690.7329637,686.839701,686.839701,686.839701,686.839701,new_fruit_20.png,124,4.0,2.8704985000000534,,,078,10,2025-06-24_16h40.42.064,Surprise recog test,2023.1.3,59.96548386747622,
124,0,124,0,,,,,,,,,,,,,,,,,,,,,,,,,,,,,,,,,,692.440103,693.4574709,690.7329637,690.7329637,690.7329637,690.7329637,old_sceneIn_28.png,125,2.0,1.7098002000000179,,,078,10,2025-06-24_16h40.42.064,Surprise recog test,2023.1.3,59.96548386747622,
125,0,125,0,,,,,,,,,,,,,,,,,,,,,,,,,,,,,,,,,,694.7158953,695.7367411,693.4574709,693.4574709,693.4574709,693.4574709,new_sceneOut_13.png,126,4.0,1.2544159000000263,,,078,10,2025-06-24_16h40.42.064,Surprise recog test,2023.1.3,59.96548386747622,
126,0,126,0,,,,,,,,,,,,,,,,,,,,,,,,,,,,,,,,,,698.4167798,699.4283177,695.7367411,695.7367411,695.7367411,695.7367411,old_sceneIn_46.png,127,3.0,2.6814491999999746,,,078,10,2025-06-24_16h40.42.064,Surprise recog test,2023.1.3,59.96548386747622,
127,0,127,0,,,,,,,,,,,,,,,,,,,,,,,,,,,,,,,,,,701.5743565,702.581376,699.4283177,699.4283177,699.4283177,699.4283177,new_sceneOut_4.png,128,4.0,2.141654200000062,,,078,10,2025-06-24_16h40.42.064,Surprise recog test,2023.1.3,59.96548386747622,
128,0,128,0,,,,,,,,,,,,,,,,,,,,,,,,,,,,,,,,,,705.3431034,706.3511025,702.581376,702.581376,702.581376,702.581376,old_fruit_27.png,129,2.0,2.757988100000034,,,078,10,2025-06-24_16h40.42.064,Surprise recog test,2023.1.3,59.96548386747622,
129,0,129,0,,,,,,,,,,,,,,,,,,,,,,,,,,,,,,,,,,708.2503293,709.2830065,706.3511025,706.3511025,706.3511025,706.3511025,old_stationery_3.png,130,1.0,1.8923087000000578,,,078,10,2025-06-24_16h40.42.064,Surprise recog test,2023.1.3,59.96548386747622,
130,0,130,0,,,,,,,,,,,,,,,,,,,,,,,,,,,,,,,,,,710.3061952,711.3219609,709.2830065,709.2830065,709.2830065,709.2830065,old_stationery_10.png,131,1.0,1.0248461999999563,,,078,10,2025-06-24_16h40.42.064,Surprise recog test,2023.1.3,59.96548386747622,
131,0,131,0,,,,,,,,,,,,,,,,,,,,,,,,,,,,,,,,,,712.1563577000001,713.1768535,711.3219609,711.3219609,711.3219609,711.3219609,old_stationery_50.png,132,1.0,0.8305210999999417,,,078,10,2025-06-24_16h40.42.064,Surprise recog test,2023.1.3,59.96548386747622,
132,0,132,0,,,,,,,,,,,,,,,,,,,,,,,,,,,,,,,,,,715.6493536,716.6699042,713.1768535,713.1768535,713.1768535,713.1768535,new_stationery_40.png,133,4.0,2.4725842000000284,,,078,10,2025-06-24_16h40.42.064,Surprise recog test,2023.1.3,59.96548386747622,
133,0,133,0,,,,,,,,,,,,,,,,,,,,,,,,,,,,,,,,,,718.4715366,719.4924582,716.6699042,716.6699042,716.6699042,716.6699042,old_sceneOut_15.png,134,5.0,1.8017680000000382,,,078,10,2025-06-24_16h40.42.064,Surprise recog test,2023.1.3,59.96548386747622,
134,0,134,0,,,,,,,,,,,,,,,,,,,,,,,,,,,,,,,,,,721.2495264,722.2809874000001,719.4924582,719.4924582,719.4924582,719.4924582,new_sceneOut_29.png,135,4.0,1.7605694999999741,,,078,10,2025-06-24_16h40.42.064,Surprise recog test,2023.1.3,59.96548386747622,
135,0,135,0,,,,,,,,,,,,,,,,,,,,,,,,,,,,,,,,,,723.8988575,724.9297507,722.2809874000001,722.2809874000001,722.2809874000001,722.2809874000001,new_fruit_11.png,136,4.0,1.6213970000000018,,,078,10,2025-06-24_16h40.42.064,Surprise recog test,2023.1.3,59.96548386747622,
136,0,136,0,,,,,,,,,,,,,,,,,,,,,,,,,,,,,,,,,,726.3576765,727.3807267,724.9297507,724.9297507,724.9297507,724.9297507,new_sceneIn_37.png,137,4.0,1.4283140000000003,,,078,10,2025-06-24_16h40.42.064,Surprise recog test,2023.1.3,59.96548386747622,
137,0,137,0,,,,,,,,,,,,,,,,,,,,,,,,,,,,,,,,,,729.3552395,730.3820145,727.3807267,727.3807267,727.3807267,727.3807267,new_sceneOut_36.png,138,5.0,1.9762715000000526,,,078,10,2025-06-24_16h40.42.064,Surprise recog test,2023.1.3,59.96548386747622,
138,0,138,0,,,,,,,,,,,,,,,,,,,,,,,,,,,,,,,,,,731.7049446,732.7361569,730.3820145,730.3820145,730.3820145,730.3820145,old_sceneOut_13.png,139,5.0,1.3250342000000046,,,078,10,2025-06-24_16h40.42.064,Surprise recog test,2023.1.3,59.96548386747622,
139,0,139,0,,,,,,,,,,,,,,,,,,,,,,,,,,,,,,,,,,734.7551697,735.7870302,732.7361569,732.7361569,732.7361569,732.7361569,old_stationery_49.png,140,1.0,2.0208345999999437,,,078,10,2025-06-24_16h40.42.064,Surprise recog test,2023.1.3,59.96548386747622,
140,0,140,0,,,,,,,,,,,,,,,,,,,,,,,,,,,,,,,,,,738.4418526000001,739.474455,735.7870302,735.7870302,735.7870302,735.7870302,old_stationery_32.png,141,4.0,2.654416200000014,,,078,10,2025-06-24_16h40.42.064,Surprise recog test,2023.1.3,59.96548386747622,
141,0,141,0,,,,,,,,,,,,,,,,,,,,,,,,,,,,,,,,,,741.6473262000001,742.6751792,739.474455,739.474455,739.474455,739.474455,new_sceneIn_33.png,142,5.0,2.1733606000000236,,,078,10,2025-06-24_16h40.42.064,Surprise recog test,2023.1.3,59.96548386747622,
142,0,142,0,,,,,,,,,,,,,,,,,,,,,,,,,,,,,,,,,,744.7452476,,742.6751792,742.6751792,742.6751792,742.6751792,old_stationery_5.png,143,1.0,2.072293400000035,,,078,10,2025-06-24_16h40.42.064,Surprise recog test,2023.1.3,59.96548386747622,
143,0,143,0,,,,,,,,,,,,,,,,,,,,,,,,,,,,,,,,,,747.6880778,748.7157157,745.7663461,745.7663461,745.7663461,745.7663461,new_sceneIn_12.png,144,4.0,1.914052399999946,,,078,10,2025-06-24_16h40.42.064,Surprise recog test,2023.1.3,59.96548386747622,
144,0,144,0,,,,,,,,,,,,,,,,,,,,,,,,,,,,,,,,,,750.7793992000001,751.7967671,748.7157157,748.7157157,748.7157157,748.7157157,old_sceneIn_4.png,145,2.0,2.063142599999992,,,078,10,2025-06-24_16h40.42.064,Surprise recog test,2023.1.3,59.96548386747622,
145,0,145,0,,,,,,,,,,,,,,,,,,,,,,,,,,,,,,,,,,753.1508604,,751.7967671,751.7967671,751.7967671,751.7967671,new_sceneOut_33.png,146,3.0,1.3564209999999548,,,078,10,2025-06-24_16h40.42.064,Surprise recog test,2023.1.3,59.96548386747622,
146,0,146,0,,,,,,,,,,,,,,,,,,,,,,,,,,,,,,,,,,756.7516473000001,757.7560574,754.1732711,754.1732711,754.1732711,754.1732711,new_fruit_5.png,147,4.0,2.5690294999999423,,,078,10,2025-06-24_16h40.42.064,Surprise recog test,2023.1.3,59.96548386747622,
147,0,147,0,,,,,,,,,,,,,,,,,,,,,,,,,,,,,,,,,,759.4370998,760.4420059,757.7560574,757.7560574,757.7560574,757.7560574,new_sceneIn_2.png,148,5.0,1.6720722000000023,,,078,10,2025-06-24_16h40.42.064,Surprise recog test,2023.1.3,59.96548386747622,
148,0,148,0,,,,,,,,,,,,,,,,,,,,,,,,,,,,,,,,,,763.4737818,764.4798596,760.4420059,760.4420059,760.4420059,760.4420059,new_sceneOut_8.png,149,4.0,3.021976400000085,,,078,10,2025-06-24_16h40.42.064,Surprise recog test,2023.1.3,59.96548386747622,
149,0,149,0,,,,,,,,,,,,,,,,,,,,,,,,,,,,,,,,,,767.6605783,768.6685272,764.4798596,764.4798596,764.4798596,764.4798596,old_fruit_10.png,150,4.0,3.1730499999999893,,,078,10,2025-06-24_16h40.42.064,Surprise recog test,2023.1.3,59.96548386747622,
150,0,150,0,,,,,,,,,,,,,,,,,,,,,,,,,,,,,,,,,,772.5479739,773.5532777,768.6685272,768.6685272,768.6685272,768.6685272,new_sceneOut_23.png,151,5.0,3.871289899999965,,,078,10,2025-06-24_16h40.42.064,Surprise recog test,2023.1.3,59.96548386747622,
151,0,151,0,,,,,,,,,,,,,,,,,,,,,,,,,,,,,,,,,,776.351309,777.3568964,773.5532777,773.5532777,773.5532777,773.5532777,old_stationery_31.png,152,3.0,2.7877690999999913,,,078,10,2025-06-24_16h40.42.064,Surprise recog test,2023.1.3,59.96548386747622,
152,0,152,0,,,,,,,,,,,,,,,,,,,,,,,,,,,,,,,,,,780.3879855,781.3933219,777.3568964,777.3568964,777.3568964,777.3568964,old_sceneIn_11.png,153,3.0,3.0222790999999916,,,078,10,2025-06-24_16h40.42.064,Surprise recog test,2023.1.3,59.96548386747622,
153,0,153,0,,,,,,,,,,,,,,,,,,,,,,,,,,,,,,,,,,784.2410833,785.2474169,781.3933219,781.3933219,781.3933219,781.3933219,old_stationery_17.png,154,5.0,2.8386802999999645,,,078,10,2025-06-24_16h40.42.064,Surprise recog test,2023.1.3,59.96548386747622,
154,0,154,0,,,,,,,,,,,,,,,,,,,,,,,,,,,,,,,,,,786.3093944,787.3147989,785.2474169,785.2474169,785.2474169,785.2474169,new_stationery_11.png,155,5.0,1.0531499999999596,,,078,10,2025-06-24_16h40.42.064,Surprise recog test,2023.1.3,59.96548386747622,
155,0,155,0,,,,,,,,,,,,,,,,,,,,,,,,,,,,,,,,,,789.078402,790.0832636,787.3147989,787.3147989,787.3147989,787.3147989,new_fruit_47.png,156,4.0,1.7541669000000866,,,078,10,2025-06-24_16h40.42.064,Surprise recog test,2023.1.3,59.96548386747622,
156,0,156,0,,,,,,,,,,,,,,,,,,,,,,,,,,,,,,,,,,794.5162746,795.5206186,790.0832636,790.0832636,790.0832636,790.0832636,new_sceneIn_46.png,157,3.0,4.42378819999999,,,078,10,2025-06-24_16h40.42.064,Surprise recog test,2023.1.3,59.96548386747622,
157,0,157,0,,,,,,,,,,,,,,,,,,,,,,,,,,,,,,,,,,797.452042,798.4575423,795.5206186,795.5206186,795.5206186,795.5206186,new_stationery_27.png,158,5.0,1.9208966999999575,,,078,10,2025-06-24_16h40.42.064,Surprise recog test,2023.1.3,59.96548386747622,
158,0,158,0,,,,,,,,,,,,,,,,,,,,,,,,,,,,,,,,,,802.2226356,803.2275437000001,798.4575423,798.4575423,798.4575423,798.4575423,new_sceneIn_49.png,159,5.0,3.755792999999926,,,078,10,2025-06-24_16h40.42.064,Surprise recog test,2023.1.3,59.96548386747622,
159,0,159,0,,,,,,,,,,,,,,,,,,,,,,,,,,,,,,,,,,805.1750898,806.1793421,803.2275437000001,803.2275437000001,803.2275437000001,803.2275437000001,old_stationery_1.png,160,1.0,1.937824800000044,,,078,10,2025-06-24_16h40.42.064,Surprise recog test,2023.1.3,59.96548386747622,
160,0,160,0,,,,,,,,,,,,,,,,,,,,,,,,,,,,,,,,,,808.1942391,809.1989755000001,806.1793421,806.1793421,806.1793421,806.1793421,old_fruit_14.png,161,3.0,2.004400999999916,,,078,10,2025-06-24_16h40.42.064,Surprise recog test,2023.1.3,59.96548386747622,
161,0,161,0,,,,,,,,,,,,,,,,,,,,,,,,,,,,,,,,,,811.6822914,,809.1989755000001,809.1989755000001,809.1989755000001,809.1989755000001,old_sceneIn_41.png,162,4.0,2.479135999999926,,,078,10,2025-06-24_16h40.42.064,Surprise recog test,2023.1.3,59.96548386747622,
162,0,162,0,,,,,,,,,,,,,,,,,,,,,,,,,,,,,,,,,,816.4512044,817.4560255,812.7029535,812.7029535,812.7029535,812.7029535,new_fruit_33.png,163,3.0,3.7400771000000077,,,078,10,2025-06-24_16h40.42.064,Surprise recog test,2023.1.3,59.96548386747622,
163,0,163,0,,,,,,,,,,,,,,,,,,,,,,,,,,,,,,,,,,819.2701197,820.2767803,817.4560255,817.4560255,817.4560255,817.4560255,old_stationery_20.png,164,5.0,1.804365100000041,,,078,10,2025-06-24_16h40.42.064,Surprise recog test,2023.1.3,59.96548386747622,
164,0,164,0,,,,,,,,,,,,,,,,,,,,,,,,,,,,,,,,,,821.7222318,822.7277329,820.2767803,820.2767803,820.2767803,820.2767803,new_stationery_5.png,165,1.0,1.4367089999999507,,,078,10,2025-06-24_16h40.42.064,Surprise recog test,2023.1.3,59.96548386747622,
165,0,165,0,,,,,,,,,,,,,,,,,,,,,,,,,,,,,,,,,,824.1074983,825.1127931,822.7277329,822.7277329,822.7277329,822.7277329,old_sceneOut_49.png,166,4.0,1.3692588000000114,,,078,10,2025-06-24_16h40.42.064,Surprise recog test,2023.1.3,59.96548386747622,
166,0,166,0,,,,,,,,,,,,,,,,,,,,,,,,,,,,,,,,,,827.2291414,,825.1127931,825.1127931,825.1127931,825.1127931,new_fruit_31.png,167,5.0,2.1129909999999654,,,078,10,2025-06-24_16h40.42.064,Surprise recog test,2023.1.3,59.96548386747622,
167,0,167,0,,,,,,,,,,,,,,,,,,,,,,,,,,,,,,,,,,830.2631044,831.2808862,828.2515273,828.2515273,828.2515273,828.2515273,old_sceneOut_10.png,168,5.0,2.0068202999999585,,,078,10,2025-06-24_16h40.42.064,Surprise recog test,2023.1.3,59.96548386747622,
168,0,168,0,,,,,,,,,,,,,,,,,,,,,,,,,,,,,,,,,,832.455724,833.477669,831.2808862,831.2808862,831.2808862,831.2808862,new_sceneIn_45.png,169,5.0,1.176711599999976,,,078,10,2025-06-24_16h40.42.064,Surprise recog test,2023.1.3,59.96548386747622,
169,0,169,0,,,,,,,,,,,,,,,,,,,,,,,,,,,,,,,,,,835.5691459,,833.477669,833.477669,833.477669,833.477669,old_sceneOut_21.png,170,4.0,2.0915619999999535,,,078,10,2025-06-24_16h40.42.064,Surprise recog test,2023.1.3,59.96548386747622,
170,0,170,0,,,,,,,,,,,,,,,,,,,,,,,,,,,,,,,,,,839.773717,,836.5927859,836.5927859,836.5927859,836.5927859,new_stationery_46.png,171,4.0,3.1759591999999657,,,078,10,2025-06-24_16h40.42.064,Surprise recog test,2023.1.3,59.96548386747622,
171,0,171,0,,,,,,,,,,,,,,,,,,,,,,,,,,,,,,,,,,842.9000444000001,843.9119114,840.8095621,840.8095621,840.8095621,840.8095621,new_stationery_17.png,172,4.0,2.0943156000000727,,,078,10,2025-06-24_16h40.42.064,Surprise recog test,2023.1.3,59.96548386747622,
172,0,172,0,,,,,,,,,,,,,,,,,,,,,,,,,,,,,,,,,,846.1424679,847.148626,843.9119114,843.9119114,843.9119114,843.9119114,old_sceneIn_15.png,173,5.0,2.2213729000000058,,,078,10,2025-06-24_16h40.42.064,Surprise recog test,2023.1.3,59.96548386747622,
173,0,173,0,,,,,,,,,,,,,,,,,,,,,,,,,,,,,,,,,,849.7508933,850.7841188,847.148626,847.148626,847.148626,847.148626,old_sceneIn_45.png,174,4.0,2.5989318999999114,,,078,10,2025-06-24_16h40.42.064,Surprise recog test,2023.1.3,59.96548386747622,
174,0,174,0,,,,,,,,,,,,,,,,,,,,,,,,,,,,,,,,,,853.0759577,854.1071083,850.7841188,850.7841188,850.7841188,850.7841188,new_fruit_22.png,175,2.0,2.293017500000019,,,078,10,2025-06-24_16h40.42.064,Surprise recog test,2023.1.3,59.96548386747622,
175,0,175,0,,,,,,,,,,,,,,,,,,,,,,,,,,,,,,,,,,855.6274968,856.6505485,854.1071083,854.1071083,854.1071083,854.1071083,new_sceneIn_9.png,176,3.0,1.5208160999999336,,,078,10,2025-06-24_16h40.42.064,Surprise recog test,2023.1.3,59.96548386747622,
176,0,176,0,,,,,,,,,,,,,,,,,,,,,,,,,,,,,,,,,,857.8489759,858.8697816,856.6505485,856.6505485,856.6505485,856.6505485,new_sceneOut_2.png,177,3.0,1.1986914999999954,,,078,10,2025-06-24_16h40.42.064,Surprise recog test,2023.1.3,59.96548386747622,
177,0,177,0,,,,,,,,,,,,,,,,,,,,,,,,,,,,,,,,,,862.0333514,863.0597643,858.8697816,858.8697816,858.8697816,858.8697816,old_sceneOut_1.png,178,4.0,3.161071100000072,,,078,10,2025-06-24_16h40.42.064,Surprise recog test,2023.1.3,59.96548386747622,
178,0,178,0,,,,,,,,,,,,,,,,,,,,,,,,,,,,,,,,,,864.5912726,865.6125321000001,863.0597643,863.0597643,863.0597643,863.0597643,new_sceneOut_17.png,179,4.0,1.5311320999999225,,,078,10,2025-06-24_16h40.42.064,Surprise recog test,2023.1.3,59.96548386747622,
179,0,179,0,,,,,,,,,,,,,,,,,,,,,,,,,,,,,,,,,,870.0373174,871.0652077999999,865.6125321000001,865.6125321000001,865.6125321000001,865.6125321000001,new_sceneOut_5.png,180,5.0,4.425644200000079,,,078,10,2025-06-24_16h40.42.064,Surprise recog test,2023.1.3,59.96548386747622,
180,0,180,0,,,,,,,,,,,,,,,,,,,,,,,,,,,,,,,,,,872.6479043,873.6534236000001,871.0652077999999,871.0652077999999,871.0652077999999,871.0652077999999,old_stationery_6.png,181,1.0,1.580102399999987,,,078,10,2025-06-24_16h40.42.064,Surprise recog test,2023.1.3,59.96548386747622,
181,0,181,0,,,,,,,,,,,,,,,,,,,,,,,,,,,,,,,,,,875.5082111,876.5250532000001,873.6534236000001,873.6534236000001,873.6534236000001,873.6534236000001,new_fruit_36.png,182,2.0,1.8503041000001303,,,078,10,2025-06-24_16h40.42.064,Surprise recog test,2023.1.3,59.96548386747622,
182,0,182,0,,,,,,,,,,,,,,,,,,,,,,,,,,,,,,,,,,878.1514096,879.1608765,876.5250532000001,876.5250532000001,876.5250532000001,876.5250532000001,new_fruit_45.png,183,3.0,1.622003000000177,,,078,10,2025-06-24_16h40.42.064,Surprise recog test,2023.1.3,59.96548386747622,
183,0,183,0,,,,,,,,,,,,,,,,,,,,,,,,,,,,,,,,,,882.9731442000001,883.9941728,879.1608765,879.1608765,879.1608765,879.1608765,new_sceneIn_48.png,184,4.0,3.801393199999893,,,078,10,2025-06-24_16h40.42.064,Surprise recog test,2023.1.3,59.96548386747622,
184,0,184,0,,,,,,,,,,,,,,,,,,,,,,,,,,,,,,,,,,888.0917287000001,889.1027963,883.9941728,883.9941728,883.9941728,883.9941728,new_stationery_10.png,185,3.0,4.098418100000117,,,078,10,2025-06-24_16h40.42.064,Surprise recog test,2023.1.3,59.96548386747622,
185,0,185,0,,,,,,,,,,,,,,,,,,,,,,,,,,,,,,,,,,891.7389062999999,892.7550483000001,889.1027963,889.1027963,889.1027963,889.1027963,old_sceneOut_28.png,186,4.0,2.6314583000000766,,,078,10,2025-06-24_16h40.42.064,Surprise recog test,2023.1.3,59.96548386747622,
186,0,186,0,,,,,,,,,,,,,,,,,,,,,,,,,,,,,,,,,,896.0035469999999,,892.7550483000001,892.7550483000001,892.7550483000001,892.7550483000001,old_sceneOut_45.png,187,5.0,3.2441010000000006,,,078,10,2025-06-24_16h40.42.064,Surprise recog test,2023.1.3,59.96548386747622,
187,0,187,0,,,,,,,,,,,,,,,,,,,,,,,,,,,,,,,,,,898.8142017000001,899.8394178,897.0370505,897.0370505,897.0370505,897.0370505,old_stationery_29.png,188,1.0,1.7768879999998717,,,078,10,2025-06-24_16h40.42.064,Surprise recog test,2023.1.3,59.96548386747622,
188,0,188,0,,,,,,,,,,,,,,,,,,,,,,,,,,,,,,,,,,901.0264275000001,902.0527009000001,899.8394178,899.8394178,899.8394178,899.8394178,new_stationery_30.png,189,1.0,1.1864783000000898,,,078,10,2025-06-24_16h40.42.064,Surprise recog test,2023.1.3,59.96548386747622,
189,0,189,0,,,,,,,,,,,,,,,,,,,,,,,,,,,,,,,,,,903.5569286000001,904.5746743000001,902.0527009000001,902.0527009000001,902.0527009000001,902.0527009000001,new_fruit_12.png,190,3.0,1.4985679000001255,,,078,10,2025-06-24_16h40.42.064,Surprise recog test,2023.1.3,59.96548386747622,
190,0,190,0,,,,,,,,,,,,,,,,,,,,,,,,,,,,,,,,,,908.2142401,,904.5746743000001,904.5746743000001,904.5746743000001,904.5746743000001,old_fruit_33.png,191,4.0,3.640184099999942,,,078,10,2025-06-24_16h40.42.064,Surprise recog test,2023.1.3,59.96548386747622,
191,0,191,0,,,,,,,,,,,,,,,,,,,,,,,,,,,,,,,,,,911.9974945,913.0202016,909.2479953999999,909.2479953999999,909.2479953999999,909.2479953999999,new_sceneOut_50.png,192,4.0,2.751631800000041,,,078,10,2025-06-24_16h40.42.064,Surprise recog test,2023.1.3,59.96548386747622,
192,0,192,0,,,,,,,,,,,,,,,,,,,,,,,,,,,,,,,,,,914.146134,915.1584882999999,913.0202016,913.0202016,913.0202016,913.0202016,new_sceneOut_14.png,193,4.0,1.127732799999876,,,078,10,2025-06-24_16h40.42.064,Surprise recog test,2023.1.3,59.96548386747622,
193,0,193,0,,,,,,,,,,,,,,,,,,,,,,,,,,,,,,,,,,917.838114,,915.1584882999999,915.1584882999999,915.1584882999999,915.1584882999999,old_fruit_41.png,194,3.0,2.674379300000055,,,078,10,2025-06-24_16h40.42.064,Surprise recog test,2023.1.3,59.96548386747622,
194,0,194,0,,,,,,,,,,,,,,,,,,,,,,,,,,,,,,,,,,921.7821602,922.7983097,918.8577140000001,918.8577140000001,918.8577140000001,918.8577140000001,new_sceneOut_20.png,195,5.0,2.921221100000139,,,078,10,2025-06-24_16h40.42.064,Surprise recog test,2023.1.3,59.96548386747622,
195,0,195,0,,,,,,,,,,,,,,,,,,,,,,,,,,,,,,,,,,924.2740396,925.2946986999999,922.7983097,922.7983097,922.7983097,922.7983097,old_stationery_39.png,196,1.0,1.467512299999953,,,078,10,2025-06-24_16h40.42.064,Surprise recog test,2023.1.3,59.96548386747622,
196,0,196,0,,,,,,,,,,,,,,,,,,,,,,,,,,,,,,,,,,926.6835580999999,927.7209056,925.2946986999999,925.2946986999999,925.2946986999999,925.2946986999999,old_sceneOut_31.png,197,4.0,1.389809299999797,,,078,10,2025-06-24_16h40.42.064,Surprise recog test,2023.1.3,59.96548386747622,
197,0,197,0,,,,,,,,,,,,,,,,,,,,,,,,,,,,,,,,,,929.1182652000001,930.1369378,927.7209056,927.7209056,927.7209056,927.7209056,old_fruit_7.png,198,2.0,1.4017165999998724,,,078,10,2025-06-24_16h40.42.064,Surprise recog test,2023.1.3,59.96548386747622,
198,0,198,0,,,,,,,,,,,,,,,,,,,,,,,,,,,,,,,,,,931.5618595,932.5724736000001,930.1369378,930.1369378,930.1369378,930.1369378,new_fruit_40.png,199,3.0,1.4205566000000545,,,078,10,2025-06-24_16h40.42.064,Surprise recog test,2023.1.3,59.96548386747622,
199,0,199,0,,,,,,,,,,,,,,,,,,,,,,,,,,,,,,,,,,934.0382092000001,935.0557826,932.5724736000001,932.5724736000001,932.5724736000001,932.5724736000001,old_stationery_12.png,200,1.0,1.4616324000000986,,,078,10,2025-06-24_16h40.42.064,Surprise recog test,2023.1.3,59.96548386747622,
200,0,200,0,,,,,,,,,,,,,,,,,,,,,,,,,,,,,,,,,,937.3492934,938.3737112,935.0557826,935.0557826,935.0557826,935.0557826,new_sceneOut_24.png,201,4.0,2.290275000000065,,,078,10,2025-06-24_16h40.42.064,Surprise recog test,2023.1.3,59.96548386747622,
201,0,201,0,,,,,,,,,,,,,,,,,,,,,,,,,,,,,,,,,,941.2693903,942.2895503000001,938.3737112,938.3737112,938.3737112,938.3737112,new_sceneIn_1.png,202,5.0,2.8981610999999248,,,078,10,2025-06-24_16h40.42.064,Surprise recog test,2023.1.3,59.96548386747622,
202,0,202,0,,,,,,,,,,,,,,,,,,,,,,,,,,,,,,,,,,944.5141695000001,945.5430886,942.2895503000001,942.2895503000001,942.2895503000001,942.2895503000001,old_fruit_43.png,203,4.0,2.224715900000092,,,078,10,2025-06-24_16h40.42.064,Surprise recog test,2023.1.3,59.96548386747622,
203,0,203,0,,,,,,,,,,,,,,,,,,,,,,,,,,,,,,,,,,948.4077396000001,949.4323442000001,945.5430886,945.5430886,945.5430886,945.5430886,new_fruit_28.png,204,3.0,2.8655942000000323,,,078,10,2025-06-24_16h40.42.064,Surprise recog test,2023.1.3,59.96548386747622,
204,0,204,0,,,,,,,,,,,,,,,,,,,,,,,,,,,,,,,,,,951.8632410000001,952.8780734999999,949.4323442000001,949.4323442000001,949.4323442000001,949.4323442000001,old_fruit_36.png,205,1.0,2.4304517000000487,,,078,10,2025-06-24_16h40.42.064,Surprise recog test,2023.1.3,59.96548386747622,
205,0,205,0,,,,,,,,,,,,,,,,,,,,,,,,,,,,,,,,,,956.5096634,957.5347012999999,952.8780734999999,952.8780734999999,952.8780734999999,952.8780734999999,new_sceneOut_39.png,206,4.0,3.63264839999988,,,078,10,2025-06-24_16h40.42.064,Surprise recog test,2023.1.3,59.96548386747622,
206,0,206,0,,,,,,,,,,,,,,,,,,,,,,,,,,,,,,,,,,959.2013984000001,960.2262583,957.5347012999999,957.5347012999999,957.5347012999999,957.5347012999999,new_sceneIn_5.png,207,4.0,1.6676506999999674,,,078,10,2025-06-24_16h40.42.064,Surprise recog test,2023.1.3,59.96548386747622,
207,0,207,0,,,,,,,,,,,,,,,,,,,,,,,,,,,,,,,,,,962.3507733,963.377629,960.2262583,960.2262583,960.2262583,960.2262583,new_stationery_14.png,208,4.0,2.1270211999999447,,,078,10,2025-06-24_16h40.42.064,Surprise recog test,2023.1.3,59.96548386747622,
208,0,208,0,,,,,,,,,,,,,,,,,,,,,,,,,,,,,,,,,,965.5918299000001,966.5999668999999,963.377629,963.377629,963.377629,963.377629,new_sceneIn_19.png,209,4.0,2.2127027000001362,,,078,10,2025-06-24_16h40.42.064,Surprise recog test,2023.1.3,59.96548386747622,
209,0,209,0,,,,,,,,,,,,,,,,,,,,,,,,,,,,,,,,,,969.6116748999999,970.6165300000001,966.5999668999999,966.5999668999999,966.5999668999999,966.5999668999999,new_sceneIn_40.png,210,4.0,3.003202099999953,,,078,10,2025-06-24_16h40.42.064,Surprise recog test,2023.1.3,59.96548386747622,
210,0,210,0,,,,,,,,,,,,,,,,,,,,,,,,,,,,,,,,,,972.1971731,973.2027982999999,970.6165300000001,970.6165300000001,970.6165300000001,970.6165300000001,old_sceneIn_5.png,211,4.0,1.5708446999999524,,,078,10,2025-06-24_16h40.42.064,Surprise recog test,2023.1.3,59.96548386747622,
211,0,211,0,,,,,,,,,,,,,,,,,,,,,,,,,,,,,,,,,,975.5499968,976.5543156,973.2027982999999,973.2027982999999,973.2027982999999,973.2027982999999,new_stationery_33.png,212,4.0,2.33772080000017,,,078,10,2025-06-24_16h40.42.064,Surprise recog test,2023.1.3,59.96548386747622,
212,0,212,0,,,,,,,,,,,,,,,,,,,,,,,,,,,,,,,,,,977.9853810000001,978.9897628,976.5543156,976.5543156,976.5543156,976.5543156,old_fruit_4.png,213,4.0,1.4203884000000926,,,078,10,2025-06-24_16h40.42.064,Surprise recog test,2023.1.3,59.96548386747622,
213,0,213,0,,,,,,,,,,,,,,,,,,,,,,,,,,,,,,,,,,981.8051509999999,982.8108371,978.9897628,978.9897628,978.9897628,978.9897628,new_sceneIn_16.png,214,4.0,2.805123099999946,,,078,10,2025-06-24_16h40.42.064,Surprise recog test,2023.1.3,59.96548386747622,
214,0,214,0,,,,,,,,,,,,,,,,,,,,,,,,,,,,,,,,,,984.7742919000001,985.7786183,982.8108371,982.8108371,982.8108371,982.8108371,old_sceneIn_23.png,215,2.0,1.952995799999826,,,078,10,2025-06-24_16h40.42.064,Surprise recog test,2023.1.3,59.96548386747622,
215,0,215,0,,,,,,,,,,,,,,,,,,,,,,,,,,,,,,,,,,989.3781987000001,990.3847796000001,985.7786183,985.7786183,985.7786183,985.7786183,old_sceneOut_34.png,216,3.0,3.5894113000001653,,,078,10,2025-06-24_16h40.42.064,Surprise recog test,2023.1.3,59.96548386747622,
216,0,216,0,,,,,,,,,,,,,,,,,,,,,,,,,,,,,,,,,,993.0811818999999,994.0867262,990.3847796000001,990.3847796000001,990.3847796000001,990.3847796000001,new_sceneIn_50.png,217,3.0,2.688048199999912,,,078,10,2025-06-24_16h40.42.064,Surprise recog test,2023.1.3,59.96548386747622,
217,0,217,0,,,,,,,,,,,,,,,,,,,,,,,,,,,,,,,,,,995.7836444999999,996.7880385,994.0867262,994.0867262,994.0867262,994.0867262,new_sceneOut_44.png,218,4.0,1.68616239999983,,,078,10,2025-06-24_16h40.42.064,Surprise recog test,2023.1.3,59.96548386747622,
218,0,218,0,,,,,,,,,,,,,,,,,,,,,,,,,,,,,,,,,,999.0861330000001,1000.0907980000001,996.7880385,996.7880385,996.7880385,996.7880385,old_sceneIn_12.png,219,2.0,2.2876909000001433,,,078,10,2025-06-24_16h40.42.064,Surprise recog test,2023.1.3,59.96548386747622,
219,0,219,0,,,,,,,,,,,,,,,,,,,,,,,,,,,,,,,,,,1002.0052415000001,1003.0098312000001,1000.0907980000001,1000.0907980000001,1000.0907980000001,1000.0907980000001,old_sceneIn_7.png,220,1.0,1.9040135000000191,,,078,10,2025-06-24_16h40.42.064,Surprise recog test,2023.1.3,59.96548386747622,
220,0,220,0,,,,,,,,,,,,,,,,,,,,,,,,,,,,,,,,,,1004.4739805,1005.4781354,1003.0098312000001,1003.0098312000001,1003.0098312000001,1003.0098312000001,old_fruit_37.png,221,3.0,1.4536103000000367,,,078,10,2025-06-24_16h40.42.064,Surprise recog test,2023.1.3,59.96548386747622,
221,0,221,0,,,,,,,,,,,,,,,,,,,,,,,,,,,,,,,,,,1007.1095773999999,1008.1143244000001,1005.4781354,1005.4781354,1005.4781354,1005.4781354,new_stationery_16.png,222,4.0,1.6204130000000987,,,078,10,2025-06-24_16h40.42.064,Surprise recog test,2023.1.3,59.96548386747622,
222,0,222,0,,,,,,,,,,,,,,,,,,,,,,,,,,,,,,,,,,1010.8627114,1011.8673689999999,1008.1143244000001,1008.1143244000001,1008.1143244000001,1008.1143244000001,old_sceneIn_18.png,223,4.0,2.7398158000000876,,,078,10,2025-06-24_16h40.42.064,Surprise recog test,2023.1.3,59.96548386747622,
223,0,223,0,,,,,,,,,,,,,,,,,,,,,,,,,,,,,,,,,,1014.7658480000001,1015.7702677999999,1011.8673689999999,1011.8673689999999,1011.8673689999999,1011.8673689999999,old_fruit_31.png,224,5.0,2.888390999999956,,,078,10,2025-06-24_16h40.42.064,Surprise recog test,2023.1.3,59.96548386747622,
224,0,224,0,,,,,,,,,,,,,,,,,,,,,,,,,,,,,,,,,,1016.8509908,1017.8554628,1015.7702677999999,1015.7702677999999,1015.7702677999999,1015.7702677999999,old_sceneOut_24.png,225,5.0,1.0704550000000381,,,078,10,2025-06-24_16h40.42.064,Surprise recog test,2023.1.3,59.96548386747622,
225,0,225,0,,,,,,,,,,,,,,,,,,,,,,,,,,,,,,,,,,1019.5198229000001,1020.5246181000001,1017.8554628,1017.8554628,1017.8554628,1017.8554628,new_sceneIn_36.png,226,5.0,1.6539657000000716,,,078,10,2025-06-24_16h40.42.064,Surprise recog test,2023.1.3,59.96548386747622,
226,0,226,0,,,,,,,,,,,,,,,,,,,,,,,,,,,,,,,,,,1021.9718382,1022.9760534999999,1020.5246181000001,1020.5246181000001,1020.5246181000001,1020.5246181000001,new_sceneIn_35.png,227,4.0,1.4370566999998573,,,078,10,2025-06-24_16h40.42.064,Surprise recog test,2023.1.3,59.96548386747622,
227,0,227,0,,,,,,,,,,,,,,,,,,,,,,,,,,,,,,,,,,1025.2079296999998,1026.2123126,1022.9760534999999,1022.9760534999999,1022.9760534999999,1022.9760534999999,new_fruit_26.png,228,4.0,2.221027499999991,,,078,10,2025-06-24_16h40.42.064,Surprise recog test,2023.1.3,59.96548386747622,
228,0,228,0,,,,,,,,,,,,,,,,,,,,,,,,,,,,,,,,,,1027.5765479,1028.5810528999998,1026.2123126,1026.2123126,1026.2123126,1026.2123126,new_sceneIn_24.png,229,4.0,1.355117600000085,,,078,10,2025-06-24_16h40.42.064,Surprise recog test,2023.1.3,59.96548386747622,
229,0,229,0,,,,,,,,,,,,,,,,,,,,,,,,,,,,,,,,,,1031.6798956999999,1032.6848951,1028.5810528999998,1028.5810528999998,1028.5810528999998,1028.5810528999998,old_sceneIn_25.png,230,5.0,3.0897743999998966,,,078,10,2025-06-24_16h40.42.064,Surprise recog test,2023.1.3,59.96548386747622,
230,0,230,0,,,,,,,,,,,,,,,,,,,,,,,,,,,,,,,,,,1033.7816925,1034.7861251,1032.6848951,1032.6848951,1032.6848951,1032.6848951,old_sceneIn_9.png,231,5.0,1.086619500000097,,,078,10,2025-06-24_16h40.42.064,Surprise recog test,2023.1.3,59.96548386747622,
231,0,231,0,,,,,,,,,,,,,,,,,,,,,,,,,,,,,,,,,,1036.3671554,1037.3719589,1034.7861251,1034.7861251,1034.7861251,1034.7861251,old_fruit_26.png,232,2.0,1.570555099999865,,,078,10,2025-06-24_16h40.42.064,Surprise recog test,2023.1.3,59.96548386747622,
232,0,232,0,,,,,,,,,,,,,,,,,,,,,,,,,,,,,,,,,,1038.4855691999999,1039.4901231,1037.3719589,1037.3719589,1037.3719589,1037.3719589,old_sceneOut_36.png,233,4.0,1.1035635000000639,,,078,10,2025-06-24_16h40.42.064,Surprise recog test,2023.1.3,59.96548386747622,
233,0,233,0,,,,,,,,,,,,,,,,,,,,,,,,,,,,,,,,,,1040.6705206,1041.6754675,1039.4901231,1039.4901231,1039.4901231,1039.4901231,old_stationery_33.png,234,1.0,1.1759400999999343,,,078,10,2025-06-24_16h40.42.064,Surprise recog test,2023.1.3,59.96548386747622,
234,0,234,0,,,,,,,,,,,,,,,,,,,,,,,,,,,,,,,,,,1043.1228535999999,1044.1273491999998,1041.6754675,1041.6754675,1041.6754675,1041.6754675,new_fruit_16.png,235,3.0,1.4368762999999944,,,078,10,2025-06-24_16h40.42.064,Surprise recog test,2023.1.3,59.96548386747622,
235,0,235,0,,,,,,,,,,,,,,,,,,,,,,,,,,,,,,,,,,1046.4145099999998,1047.4352167,1044.1273491999998,1044.1273491999998,1044.1273491999998,1044.1273491999998,old_sceneIn_20.png,236,4.0,2.283064599999989,,,078,10,2025-06-24_16h40.42.064,Surprise recog test,2023.1.3,59.96548386747622,
236,0,236,0,,,,,,,,,,,,,,,,,,,,,,,,,,,,,,,,,,1048.9805116999999,,1047.4352167,1047.4352167,1047.4352167,1047.4352167,old_stationery_36.png,237,1.0,1.5413034000000607,,,078,10,2025-06-24_16h40.42.064,Surprise recog test,2023.1.3,59.96548386747622,
237,0,237,0,,,,,,,,,,,,,,,,,,,,,,,,,,,,,,,,,,1051.3093738999999,1052.3215991999998,1050.002106,1050.002106,1050.002106,1050.002106,old_stationery_48.png,238,1.0,1.3012375000000702,,,078,10,2025-06-24_16h40.42.064,Surprise recog test,2023.1.3,59.96548386747622,
238,0,238,0,,,,,,,,,,,,,,,,,,,,,,,,,,,,,,,,,,1055.4896247,1056.5210283,1052.3215991999998,1052.3215991999998,1052.3215991999998,1052.3215991999998,old_sceneOut_33.png,239,3.0,3.1635832000001756,,,078,10,2025-06-24_16h40.42.064,Surprise recog test,2023.1.3,59.96548386747622,
239,0,239,0,,,,,,,,,,,,,,,,,,,,,,,,,,,,,,,,,,1058.3202408,1059.3268252999999,1056.5210283,1056.5210283,1056.5210283,1056.5210283,old_sceneOut_16.png,240,4.0,1.8020109000001412,,,078,10,2025-06-24_16h40.42.064,Surprise recog test,2023.1.3,59.96548386747622,
240,0,240,0,,,,,,,,,,,,,,,,,,,,,,,,,,,,,,,,,,1061.1545098,1062.1627773999999,1059.3268252999999,1059.3268252999999,1059.3268252999999,1059.3268252999999,old_sceneOut_29.png,241,5.0,1.8178892000000815,,,078,10,2025-06-24_16h40.42.064,Surprise recog test,2023.1.3,59.96548386747622,
241,0,241,0,,,,,,,,,,,,,,,,,,,,,,,,,,,,,,,,,,1065.3677117999998,1066.3962043,1062.1627773999999,1062.1627773999999,1062.1627773999999,1062.1627773999999,old_sceneOut_44.png,242,3.0,3.200845500000014,,,078,10,2025-06-24_16h40.42.064,Surprise recog test,2023.1.3,59.96548386747622,
242,0,242,0,,,,,,,,,,,,,,,,,,,,,,,,,,,,,,,,,,1068.0605552999998,1069.0812342,1066.3962043,1066.3962043,1066.3962043,1066.3962043,old_sceneIn_33.png,243,4.0,1.666572700000188,,,078,10,2025-06-24_16h40.42.064,Surprise recog test,2023.1.3,59.96548386747622,
243,0,243,0,,,,,,,,,,,,,,,,,,,,,,,,,,,,,,,,,,1070.7187038999998,1071.7512468,1069.0812342,1069.0812342,1069.0812342,1069.0812342,new_sceneOut_18.png,244,5.0,1.638187900000048,,,078,10,2025-06-24_16h40.42.064,Surprise recog test,2023.1.3,59.96548386747622,
244,0,244,0,,,,,,,,,,,,,,,,,,,,,,,,,,,,,,,,,,1074.3341696999998,,1071.7512468,1071.7512468,1071.7512468,1071.7512468,new_fruit_32.png,245,4.0,2.585172099999909,,,078,10,2025-06-24_16h40.42.064,Surprise recog test,2023.1.3,59.96548386747622,
245,0,245,0,,,,,,,,,,,,,,,,,,,,,,,,,,,,,,,,,,1077.5852619,1078.6075306999999,1075.3695839,1075.3695839,1075.3695839,1075.3695839,new_sceneOut_15.png,246,5.0,2.2170618999998624,,,078,10,2025-06-24_16h40.42.064,Surprise recog test,2023.1.3,59.96548386747622,
246,0,246,0,,,,,,,,,,,,,,,,,,,,,,,,,,,,,,,,,,1082.1789251,1083.2110762999998,1078.6075306999999,1078.6075306999999,1078.6075306999999,1078.6075306999999,new_sceneIn_7.png,247,4.0,3.5711378000000877,,,078,10,2025-06-24_16h40.42.064,Surprise recog test,2023.1.3,59.96548386747622,
247,0,247,0,,,,,,,,,,,,,,,,,,,,,,,,,,,,,,,,,,1086.0092215,1087.0264952999999,1083.2110762999998,1083.2110762999998,1083.2110762999998,1083.2110762999998,old_sceneIn_27.png,248,5.0,2.7987035000001015,,,078,10,2025-06-24_16h40.42.064,Surprise recog test,2023.1.3,59.96548386747622,
248,0,248,0,,,,,,,,,,,,,,,,,,,,,,,,,,,,,,,,,,1088.2064607999998,1089.2189753,1087.0264952999999,1087.0264952999999,1087.0264952999999,1087.0264952999999,old_fruit_19.png,249,5.0,1.180649300000141,,,078,10,2025-06-24_16h40.42.064,Surprise recog test,2023.1.3,59.96548386747622,
249,0,249,0,,,,,,,,,,,,,,,,,,,,,,,,,,,,,,,,,,1090.8004511,1091.8330122,1089.2189753,1089.2189753,1089.2189753,1089.2189753,old_sceneIn_39.png,250,1.0,1.5773795999998583,,,078,10,2025-06-24_16h40.42.064,Surprise recog test,2023.1.3,59.96548386747622,
250,0,250,0,,,,,,,,,,,,,,,,,,,,,,,,,,,,,,,,,,1094.9575553999998,1095.9749115,1091.8330122,1091.8330122,1091.8330122,1091.8330122,old_fruit_50.png,251,4.0,3.126285800000005,,,078,10,2025-06-24_16h40.42.064,Surprise recog test,2023.1.3,59.96548386747622,
251,0,251,0,,,,,,,,,,,,,,,,,,,,,,,,,,,,,,,,,,1099.1880132,1100.1946334,1095.9749115,1095.9749115,1095.9749115,1095.9749115,old_sceneIn_44.png,252,4.0,3.2092260000001716,,,078,10,2025-06-24_16h40.42.064,Surprise recog test,2023.1.3,59.96548386747622,
252,0,252,0,,,,,,,,,,,,,,,,,,,,,,,,,,,,,,,,,,1102.8842633,1103.8975656999999,1100.1946334,1100.1946334,1100.1946334,1100.1946334,new_sceneOut_9.png,253,4.0,2.6818474000001515,,,078,10,2025-06-24_16h40.42.064,Surprise recog test,2023.1.3,59.96548386747622,
253,0,253,0,,,,,,,,,,,,,,,,,,,,,,,,,,,,,,,,,,1105.0937216999998,,1103.8975656999999,1103.8975656999999,1103.8975656999999,1103.8975656999999,old_stationery_35.png,254,1.0,1.1922693999999865,,,078,10,2025-06-24_16h40.42.064,Surprise recog test,2023.1.3,59.96548386747622,
254,0,254,0,,,,,,,,,,,,,,,,,,,,,,,,,,,,,,,,,,1106.8561455,1107.8799230999998,1106.1269697,1106.1269697,1106.1269697,1106.1269697,old_stationery_13.png,255,1.0,0.7305861999998342,,,078,10,2025-06-24_16h40.42.064,Surprise recog test,2023.1.3,59.96548386747622,
255,0,255,0,,,,,,,,,,,,,,,,,,,,,,,,,,,,,,,,,,1109.5740222999998,1110.5984268,1107.8799230999998,1107.8799230999998,1107.8799230999998,1107.8799230999998,new_fruit_1.png,256,4.0,1.694503000000168,,,078,10,2025-06-24_16h40.42.064,Surprise recog test,2023.1.3,59.96548386747622,
256,0,256,0,,,,,,,,,,,,,,,,,,,,,,,,,,,,,,,,,,1112.2809261999998,1113.2942936999998,1110.5984268,1110.5984268,1110.5984268,1110.5984268,new_fruit_9.png,257,4.0,1.6826225999998314,,,078,10,2025-06-24_16h40.42.064,Surprise recog test,2023.1.3,59.96548386747622,
257,0,257,0,,,,,,,,,,,,,,,,,,,,,,,,,,,,,,,,,,1116.6199559,,1113.2942936999998,1113.2942936999998,1113.2942936999998,1113.2942936999998,old_sceneOut_11.png,258,4.0,3.3229432000000543,,,078,10,2025-06-24_16h40.42.064,Surprise recog test,2023.1.3,59.96548386747622,
258,0,258,0,,,,,,,,,,,,,,,,,,,,,,,,,,,,,,,,,,1118.865646,1119.8886218,1117.6406299999999,1117.6406299999999,1117.6406299999999,1117.6406299999999,new_sceneOut_16.png,259,4.0,1.2180676999998923,,,078,10,2025-06-24_16h40.42.064,Surprise recog test,2023.1.3,59.96548386747622,
259,0,259,0,,,,,,,,,,,,,,,,,,,,,,,,,,,,,,,,,,1122.1717237999999,1123.1920487,1119.8886218,1119.8886218,1119.8886218,1119.8886218,old_sceneIn_30.png,260,5.0,2.2775369999999384,,,078,10,2025-06-24_16h40.42.064,Surprise recog test,2023.1.3,59.96548386747622,
260,0,260,0,,,,,,,,,,,,,,,,,,,,,,,,,,,,,,,,,,1124.3830888,1125.4094174,1123.1920487,1123.1920487,1123.1920487,1123.1920487,old_fruit_49.png,261,5.0,1.1905902999999398,,,078,10,2025-06-24_16h40.42.064,Surprise recog test,2023.1.3,59.96548386747622,
261,0,261,0,,,,,,,,,,,,,,,,,,,,,,,,,,,,,,,,,,1127.8606223,1128.8875939,1125.4094174,1125.4094174,1125.4094174,1125.4094174,old_sceneIn_8.png,262,4.0,2.4479515999998966,,,078,10,2025-06-24_16h40.42.064,Surprise recog test,2023.1.3,59.96548386747622,
262,0,262,0,,,,,,,,,,,,,,,,,,,,,,,,,,,,,,,,,,1130.0049331,1131.0315876,1128.8875939,1128.8875939,1128.8875939,1128.8875939,old_sceneOut_27.png,263,4.0,1.1198597000000063,,,078,10,2025-06-24_16h40.42.064,Surprise recog test,2023.1.3,59.96548386747622,
263,0,263,0,,,,,,,,,,,,,,,,,,,,,,,,,,,,,,,,,,1132.9255007,1133.9524824999999,1131.0315876,1131.0315876,1131.0315876,1131.0315876,old_stationery_30.png,264,4.0,1.8954023999999663,,,078,10,2025-06-24_16h40.42.064,Surprise recog test,2023.1.3,59.96548386747622,
264,0,264,0,,,,,,,,,,,,,,,,,,,,,,,,,,,,,,,,,,1135.8998648,1136.9077799,1133.9524824999999,1133.9524824999999,1133.9524824999999,1133.9524824999999,new_sceneIn_13.png,265,5.0,1.9434539999999743,,,078,10,2025-06-24_16h40.42.064,Surprise recog test,2023.1.3,59.96548386747622,
265,0,265,0,,,,,,,,,,,,,,,,,,,,,,,,,,,,,,,,,,1137.8732619999998,1138.9062964,1136.9077799,1136.9077799,1136.9077799,1136.9077799,new_sceneIn_41.png,266,5.0,0.960426200000029,,,078,10,2025-06-24_16h40.42.064,Surprise recog test,2023.1.3,59.96548386747622,
266,0,266,0,,,,,,,,,,,,,,,,,,,,,,,,,,,,,,,,,,1140.5955302999998,1141.6207032999998,1138.9062964,1138.9062964,1138.9062964,1138.9062964,old_fruit_48.png,267,3.0,1.689091899999994,,,078,10,2025-06-24_16h40.42.064,Surprise recog test,2023.1.3,59.96548386747622,
267,0,267,0,,,,,,,,,,,,,,,,,,,,,,,,,,,,,,,,,,1144.3464225,1145.3656004,1141.6207032999998,1141.6207032999998,1141.6207032999998,1141.6207032999998,new_stationery_18.png,268,3.0,2.7275081999998747,,,078,10,2025-06-24_16h40.42.064,Surprise recog test,2023.1.3,59.96548386747622,
268,0,268,0,,,,,,,,,,,,,,,,,,,,,,,,,,,,,,,,,,1146.9647891999998,1147.9972903999999,1145.3656004,1145.3656004,1145.3656004,1145.3656004,old_sceneIn_31.png,269,2.0,1.5954532999999174,,,078,10,2025-06-24_16h40.42.064,Surprise recog test,2023.1.3,59.96548386747622,
269,0,269,0,,,,,,,,,,,,,,,,,,,,,,,,,,,,,,,,,,1150.0815355,,1147.9972903999999,1147.9972903999999,1147.9972903999999,1147.9972903999999,old_stationery_2.png,270,4.0,2.0871744999999464,,,078,10,2025-06-24_16h40.42.064,Surprise recog test,2023.1.3,59.96548386747622,
270,0,270,0,,,,,,,,,,,,,,,,,,,,,,,,,,,,,,,,,,1152.6401618,1153.6664971999999,1151.1028331999998,1151.1028331999998,1151.1028331999998,1151.1028331999998,new_fruit_6.png,271,1.0,1.531445000000076,,,078,10,2025-06-24_16h40.42.064,Surprise recog test,2023.1.3,59.96548386747622,
271,0,271,0,,,,,,,,,,,,,,,,,,,,,,,,,,,,,,,,,,1156.5973024999998,1157.6185354,1153.6664971999999,1153.6664971999999,1153.6664971999999,1153.6664971999999,new_fruit_46.png,272,4.0,2.9303784999999607,,,078,10,2025-06-24_16h40.42.064,Surprise recog test,2023.1.3,59.96548386747622,
272,0,272,0,,,,,,,,,,,,,,,,,,,,,,,,,,,,,,,,,,1160.3391887999999,,1157.6185354,1157.6185354,1157.6185354,1157.6185354,new_sceneIn_27.png,273,4.0,2.72286280000003,,,078,10,2025-06-24_16h40.42.064,Surprise recog test,2023.1.3,59.96548386747622,
273,0,273,0,,,,,,,,,,,,,,,,,,,,,,,,,,,,,,,,,,1162.8491357999999,1163.8748375,1161.373464,1161.373464,1161.373464,1161.373464,old_stationery_40.png,274,1.0,1.4767980999999963,,,078,10,2025-06-24_16h40.42.064,Surprise recog test,2023.1.3,59.96548386747622,
274,0,274,0,,,,,,,,,,,,,,,,,,,,,,,,,,,,,,,,,,1166.9806909,,1163.8748375,1163.8748375,1163.8748375,1163.8748375,new_fruit_13.png,275,3.0,3.103455699999813,,,078,10,2025-06-24_16h40.42.064,Surprise recog test,2023.1.3,59.96548386747622,
275,0,275,0,,,,,,,,,,,,,,,,,,,,,,,,,,,,,,,,,,1171.0012927999999,1172.0175522999998,1168.0116948999998,1168.0116948999998,1168.0116948999998,1168.0116948999998,new_fruit_27.png,276,2.0,2.990879599999971,,,078,10,2025-06-24_16h40.42.064,Surprise recog test,2023.1.3,59.96548386747622,
276,0,276,0,,,,,,,,,,,,,,,,,,,,,,,,,,,,,,,,,,1174.0512726999998,,1172.0175522999998,1172.0175522999998,1172.0175522999998,1172.0175522999998,new_sceneOut_12.png,277,4.0,2.0280956000001424,,,078,10,2025-06-24_16h40.42.064,Surprise recog test,2023.1.3,59.96548386747622,
277,0,277,0,,,,,,,,,,,,,,,,,,,,,,,,,,,,,,,,,,1176.2298910999998,1177.2542454,1175.0727471999999,1175.0727471999999,1175.0727471999999,1175.0727471999999,old_sceneIn_36.png,278,4.0,1.1506538000001,,,078,10,2025-06-24_16h40.42.064,Surprise recog test,2023.1.3,59.96548386747622,
278,0,278,0,,,,,,,,,,,,,,,,,,,,,,,,,,,,,,,,,,1179.4527618,1180.4577981999998,1177.2542454,1177.2542454,1177.2542454,1177.2542454,old_sceneIn_32.png,279,5.0,2.1959628000001885,,,078,10,2025-06-24_16h40.42.064,Surprise recog test,2023.1.3,59.96548386747622,
279,0,279,0,,,,,,,,,,,,,,,,,,,,,,,,,,,,,,,,,,1182.9666212,1183.9920255999998,1180.4577981999998,1180.4577981999998,1180.4577981999998,1180.4577981999998,old_stationery_37.png,280,2.0,2.505170200000066,,,078,10,2025-06-24_16h40.42.064,Surprise recog test,2023.1.3,59.96548386747622,
280,0,280,0,,,,,,,,,,,,,,,,,,,,,,,,,,,,,,,,,,1186.6173460999998,1187.633856,1183.9920255999998,1183.9920255999998,1183.9920255999998,1183.9920255999998,new_sceneOut_40.png,281,4.0,2.626159499999858,,,078,10,2025-06-24_16h40.42.064,Surprise recog test,2023.1.3,59.96548386747622,
281,0,281,0,,,,,,,,,,,,,,,,,,,,,,,,,,,,,,,,,,1191.9890134,1193.0190186,1187.633856,1187.633856,1187.633856,1187.633856,new_fruit_35.png,282,3.0,4.351450899999918,,,078,10,2025-06-24_16h40.42.064,Surprise recog test,2023.1.3,59.96548386747622,
282,0,282,0,,,,,,,,,,,,,,,,,,,,,,,,,,,,,,,,,,1196.9907884,1198.0208128,1193.0190186,1193.0190186,1193.0190186,1193.0190186,old_sceneOut_7.png,283,4.0,3.975688499999933,,,078,10,2025-06-24_16h40.42.064,Surprise recog test,2023.1.3,59.96548386747622,
283,0,283,0,,,,,,,,,,,,,,,,,,,,,,,,,,,,,,,,,,1201.9568809,,1198.0208128,1198.0208128,1198.0208128,1198.0208128,new_sceneIn_11.png,284,4.0,3.9380412999998953,,,078,10,2025-06-24_16h40.42.064,Surprise recog test,2023.1.3,59.96548386747622,
284,0,284,0,,,,,,,,,,,,,,,,,,,,,,,,,,,,,,,,,,1204.9452287,,1202.9874711,1202.9874711,1202.9874711,1202.9874711,old_sceneIn_13.png,285,3.0,1.9564978999999312,,,078,10,2025-06-24_16h40.42.064,Surprise recog test,2023.1.3,59.96548386747622,
285,0,285,0,,,,,,,,,,,,,,,,,,,,,,,,,,,,,,,,,,1207.9118907999998,,1205.9780004,1205.9780004,1205.9780004,1205.9780004,old_fruit_28.png,286,2.0,1.9357703000000583,,,078,10,2025-06-24_16h40.42.064,Surprise recog test,2023.1.3,59.96548386747622,
286,0,286,0,,,,,,,,,,,,,,,,,,,,,,,,,,,,,,,,,,1211.9319131999998,,1208.9469182999999,1208.9469182999999,1208.9469182999999,1208.9469182999999,new_sceneOut_49.png,287,4.0,2.9877681999998913,,,078,10,2025-06-24_16h40.42.064,Surprise recog test,2023.1.3,59.96548386747622,
287,0,287,0,,,,,,,,,,,,,,,,,,,,,,,,,,,,,,,,,,1216.6360421,,1212.9657098999999,1212.9657098999999,1212.9657098999999,1212.9657098999999,old_fruit_23.png,288,3.0,3.67330899999979,,,078,10,2025-06-24_16h40.42.064,Surprise recog test,2023.1.3,59.96548386747622,
288,0,288,0,,,,,,,,,,,,,,,,,,,,,,,,,,,,,,,,,,1221.1948697999999,1222.2206425,1217.6721785999998,1217.6721785999998,1217.6721785999998,1217.6721785999998,new_stationery_42.png,289,3.0,3.5248825000001034,,,078,10,2025-06-24_16h40.42.064,Surprise recog test,2023.1.3,59.96548386747622,
289,0,289,0,,,,,,,,,,,,,,,,,,,,,,,,,,,,,,,,,,1225.678825,,1222.2206425,1222.2206425,1222.2206425,1222.2206425,new_sceneIn_18.png,290,5.0,3.4535157000000254,,,078,10,2025-06-24_16h40.42.064,Surprise recog test,2023.1.3,59.96548386747622,
290,0,290,0,,,,,,,,,,,,,,,,,,,,,,,,,,,,,,,,,,1228.7430963,1229.7530003,1226.7060531,1226.7060531,1226.7060531,1226.7060531,old_fruit_42.png,291,3.0,2.0379978000000847,,,078,10,2025-06-24_16h40.42.064,Surprise recog test,2023.1.3,59.96548386747622,
291,0,291,0,,,,,,,,,,,,,,,,,,,,,,,,,,,,,,,,,,1230.9455546,1231.9612542999998,1229.7530003,1229.7530003,1229.7530003,1229.7530003,old_stationery_23.png,292,1.0,1.1841632000000573,,,078,10,2025-06-24_16h40.42.064,Surprise recog test,2023.1.3,59.96548386747622,
292,0,292,0,,,,,,,,,,,,,,,,,,,,,,,,,,,,,,,,,,1233.9744944,1235.0043047,1231.9612542999998,1231.9612542999998,1231.9612542999998,1231.9612542999998,new_fruit_19.png,293,3.0,2.0099698000001354,,,078,10,2025-06-24_16h40.42.064,Surprise recog test,2023.1.3,59.96548386747622,
293,0,293,0,,,,,,,,,,,,,,,,,,,,,,,,,,,,,,,,,,1237.1124264999999,1238.1254207,1235.0043047,1235.0043047,1235.0043047,1235.0043047,new_stationery_7.png,294,5.0,2.111686800000143,,,078,10,2025-06-24_16h40.42.064,Surprise recog test,2023.1.3,59.96548386747622,
294,0,294,0,,,,,,,,,,,,,,,,,,,,,,,,,,,,,,,,,,1241.5708892999999,1242.5809969,1238.1254207,1238.1254207,1238.1254207,1238.1254207,new_sceneIn_38.png,295,4.0,3.439289300000155,,,078,10,2025-06-24_16h40.42.064,Surprise recog test,2023.1.3,59.96548386747622,
295,0,295,0,,,,,,,,,,,,,,,,,,,,,,,,,,,,,,,,,,1243.9726443999998,1244.9938765999998,1242.5809969,1242.5809969,1242.5809969,1242.5809969,old_sceneIn_48.png,296,4.0,1.3874461000000338,,,078,10,2025-06-24_16h40.42.064,Surprise recog test,2023.1.3,59.96548386747622,
296,0,296,0,,,,,,,,,,,,,,,,,,,,,,,,,,,,,,,,,,1246.3745829999998,1247.3893816,1244.9938765999998,1244.9938765999998,1244.9938765999998,1244.9938765999998,new_stationery_25.png,297,4.0,1.3829564999998638,,,078,10,2025-06-24_16h40.42.064,Surprise recog test,2023.1.3,59.96548386747622,
297,0,297,0,,,,,,,,,,,,,,,,,,,,,,,,,,,,,,,,,,1248.6843336999998,1249.7000375999999,1247.3893816,1247.3893816,1247.3893816,1247.3893816,new_sceneOut_30.png,298,4.0,1.2906007999999929,,,078,10,2025-06-24_16h40.42.064,Surprise recog test,2023.1.3,59.96548386747622,
298,0,298,0,,,,,,,,,,,,,,,,,,,,,,,,,,,,,,,,,,1252.3857627,1253.403697,1249.7000375999999,1249.7000375999999,1249.7000375999999,1249.7000375999999,old_fruit_22.png,299,3.0,2.683265899999924,,,078,10,2025-06-24_16h40.42.064,Surprise recog test,2023.1.3,59.96548386747622,
299,0,299,0,,,,,,,,,,,,,,,,,,,,,,,,,,,,,,,,,,1256.152257,,1253.403697,1253.403697,1253.403697,1253.403697,new_stationery_49.png,300,5.0,2.743773300000157,,,078,10,2025-06-24_16h40.42.064,Surprise recog test,2023.1.3,59.96548386747622,
300,0,300,0,,,,,,,,,,,,,,,,,,,,,,,,,,,,,,,,,,1259.3826722,1260.4018856999999,1257.1828404999999,1257.1828404999999,1257.1828404999999,1257.1828404999999,new_sceneIn_21.png,301,4.0,2.2003932000000077,,,078,10,2025-06-24_16h40.42.064,Surprise recog test,2023.1.3,59.96548386747622,
301,0,301,0,,,,,,,,,,,,,,,,,,,,,,,,,,,,,,,,,,1261.7200888999998,1262.7465828,1260.4018856999999,1260.4018856999999,1260.4018856999999,1260.4018856999999,old_sceneOut_39.png,302,4.0,1.3183627999999317,,,078,10,2025-06-24_16h40.42.064,Surprise recog test,2023.1.3,59.96548386747622,
302,0,302,0,,,,,,,,,,,,,,,,,,,,,,,,,,,,,,,,,,1265.5753429,1266.5828984,1262.7465828,1262.7465828,1262.7465828,1262.7465828,old_sceneOut_22.png,303,5.0,2.8317813999999544,,,078,10,2025-06-24_16h40.42.064,Surprise recog test,2023.1.3,59.96548386747622,
303,0,303,0,,,,,,,,,,,,,,,,,,,,,,,,,,,,,,,,,,1268.8661667,1269.8999015999998,1266.5828984,1266.5828984,1266.5828984,1266.5828984,new_stationery_36.png,304,3.0,2.27891580000005,,,078,10,2025-06-24_16h40.42.064,Surprise recog test,2023.1.3,59.96548386747622,
304,0,304,0,,,,,,,,,,,,,,,,,,,,,,,,,,,,,,,,,,1271.8373457,1272.8638010999998,1269.8999015999998,1269.8999015999998,1269.8999015999998,1269.8999015999998,old_sceneIn_50.png,305,5.0,1.9414083000001483,,,078,10,2025-06-24_16h40.42.064,Surprise recog test,2023.1.3,59.96548386747622,
305,0,305,0,,,,,,,,,,,,,,,,,,,,,,,,,,,,,,,,,,1274.3356979999999,,1272.8638010999998,1272.8638010999998,1272.8638010999998,1272.8638010999998,old_stationery_43.png,306,5.0,1.4711803999998665,,,078,10,2025-06-24_16h40.42.064,Surprise recog test,2023.1.3,59.96548386747622,
306,0,306,0,,,,,,,,,,,,,,,,,,,,,,,,,,,,,,,,,,1276.5240442,1277.5535911,1275.3636213,1275.3636213,1275.3636213,1275.3636213,new_stationery_22.png,307,5.0,1.1594450000000052,,,078,10,2025-06-24_16h40.42.064,Surprise recog test,2023.1.3,59.96548386747622,
307,0,307,0,,,,,,,,,,,,,,,,,,,,,,,,,,,,,,,,,,1280.0057964,,1277.5535911,1277.5535911,1277.5535911,1277.5535911,new_sceneIn_4.png,308,4.0,2.451863999999887,,,078,10,2025-06-24_16h40.42.064,Surprise recog test,2023.1.3,59.96548386747622,
308,0,308,0,,,,,,,,,,,,,,,,,,,,,,,,,,,,,,,,,,1281.8928409999999,1282.9135669999998,1281.0384284,1281.0384284,1281.0384284,1281.0384284,new_sceneIn_39.png,309,4.0,0.8562048999999661,,,078,10,2025-06-24_16h40.42.064,Surprise recog test,2023.1.3,59.96548386747622,
309,0,309,0,,,,,,,,,,,,,,,,,,,,,,,,,,,,,,,,,,1284.9938189999998,,1282.9135669999998,1282.9135669999998,1282.9135669999998,1282.9135669999998,new_stationery_44.png,310,2.0,2.0764541999999437,,,078,10,2025-06-24_16h40.42.064,Surprise recog test,2023.1.3,59.96548386747622,
310,0,310,0,,,,,,,,,,,,,,,,,,,,,,,,,,,,,,,,,,1289.9693223,1290.9990692,1286.0260950999998,1286.0260950999998,1286.0260950999998,1286.0260950999998,new_sceneIn_26.png,311,4.0,3.9445722000000387,,,078,10,2025-06-24_16h40.42.064,Surprise recog test,2023.1.3,59.96548386747622,
311,0,311,0,,,,,,,,,,,,,,,,,,,,,,,,,,,,,,,,,,1294.7340118999998,,1290.9990692,1290.9990692,1290.9990692,1290.9990692,new_stationery_31.png,312,3.0,3.737438000000111,,,078,10,2025-06-24_16h40.42.064,Surprise recog test,2023.1.3,59.96548386747622,
312,0,312,0,,,,,,,,,,,,,,,,,,,,,,,,,,,,,,,,,,1297.5509068,1298.5716771,1295.7568222999998,1295.7568222999998,1295.7568222999998,1295.7568222999998,old_stationery_8.png,313,1.0,1.7839668000001438,,,078,10,2025-06-24_16h40.42.064,Surprise recog test,2023.1.3,59.96548386747622,
313,0,313,0,,,,,,,,,,,,,,,,,,,,,,,,,,,,,,,,,,1299.8221772999998,,1298.5716771,1298.5716771,1298.5716771,1298.5716771,old_fruit_25.png,314,2.0,1.2541509000000133,,,078,10,2025-06-24_16h40.42.064,Surprise recog test,2023.1.3,59.96548386747622,
314,0,314,0,,,,,,,,,,,,,,,,,,,,,,,,,,,,,,,,,,1302.0292995999998,1303.0545502999998,1300.8550831,1300.8550831,1300.8550831,1300.8550831,new_fruit_17.png,315,1.0,1.1747803999999178,,,078,10,2025-06-24_16h40.42.064,Surprise recog test,2023.1.3,59.96548386747622,
315,0,315,0,,,,,,,,,,,,,,,,,,,,,,,,,,,,,,,,,,1304.7309053,1305.7612986,1303.0545502999998,1303.0545502999998,1303.0545502999998,1303.0545502999998,old_stationery_19.png,316,4.0,1.6758726999998999,,,078,10,2025-06-24_16h40.42.064,Surprise recog test,2023.1.3,59.96548386747622,
316,0,316,0,,,,,,,,,,,,,,,,,,,,,,,,,,,,,,,,,,1307.1588359999998,1308.1788748,1305.7612986,1305.7612986,1305.7612986,1305.7612986,old_stationery_38.png,317,1.0,1.3980900999999903,,,078,10,2025-06-24_16h40.42.064,Surprise recog test,2023.1.3,59.96548386747622,
317,0,317,0,,,,,,,,,,,,,,,,,,,,,,,,,,,,,,,,,,1310.4318033,,1308.1788748,1308.1788748,1308.1788748,1308.1788748,old_stationery_34.png,318,3.0,2.2545500999999604,,,078,10,2025-06-24_16h40.42.064,Surprise recog test,2023.1.3,59.96548386747622,
318,0,318,0,,,,,,,,,,,,,,,,,,,,,,,,,,,,,,,,,,1314.8251507999998,1315.8411512999999,1311.4645999999998,1311.4645999999998,1311.4645999999998,1311.4645999999998,old_sceneIn_42.png,319,4.0,3.3606948999999986,,,078,10,2025-06-24_16h40.42.064,Surprise recog test,2023.1.3,59.96548386747622,
319,0,319,0,,,,,,,,,,,,,,,,,,,,,,,,,,,,,,,,,,1319.8338757,1320.8575925999999,1315.8411512999999,1315.8411512999999,1315.8411512999999,1315.8411512999999,new_sceneOut_35.png,320,5.0,3.9884592999999313,,,078,10,2025-06-24_16h40.42.064,Surprise recog test,2023.1.3,59.96548386747622,
320,0,320,0,,,,,,,,,,,,,,,,,,,,,,,,,,,,,,,,,,1323.1555448,1324.1632897,1320.8575925999999,1320.8575925999999,1320.8575925999999,1320.8575925999999,old_sceneOut_14.png,321,5.0,2.2980645000000095,,,078,10,2025-06-24_16h40.42.064,Surprise recog test,2023.1.3,59.96548386747622,
321,0,321,0,,,,,,,,,,,,,,,,,,,,,,,,,,,,,,,,,,1326.0810359,1327.0996612,1324.1632897,1324.1632897,1324.1632897,1324.1632897,old_stationery_45.png,322,3.0,1.905836600000157,,,078,10,2025-06-24_16h40.42.064,Surprise recog test,2023.1.3,59.96548386747622,
322,0,322,0,,,,,,,,,,,,,,,,,,,,,,,,,,,,,,,,,,1330.5030221,1331.5318209999998,1327.0996612,1327.0996612,1327.0996612,1327.0996612,old_sceneOut_46.png,323,4.0,3.3969990999999027,,,078,10,2025-06-24_16h40.42.064,Surprise recog test,2023.1.3,59.96548386747622,
323,0,323,0,,,,,,,,,,,,,,,,,,,,,,,,,,,,,,,,,,1333.9551253999998,1334.9844064,1331.5318209999998,1331.5318209999998,1331.5318209999998,1331.5318209999998,old_sceneIn_29.png,324,1.0,2.4251342000000022,,,078,10,2025-06-24_16h40.42.064,Surprise recog test,2023.1.3,59.96548386747622,
324,0,324,0,,,,,,,,,,,,,,,,,,,,,,,,,,,,,,,,,,1336.6417662,1337.6724964999999,1334.9844064,1334.9844064,1334.9844064,1334.9844064,old_stationery_15.png,325,3.0,1.6569022000001041,,,078,10,2025-06-24_16h40.42.064,Surprise recog test,2023.1.3,59.96548386747622,
325,0,325,0,,,,,,,,,,,,,,,,,,,,,,,,,,,,,,,,,,1339.2537679,1340.2611204999998,1337.6724964999999,1337.6724964999999,1337.6724964999999,1337.6724964999999,old_fruit_44.png,326,3.0,1.5837240000000747,,,078,10,2025-06-24_16h40.42.064,Surprise recog test,2023.1.3,59.96548386747622,
326,0,326,0,,,,,,,,,,,,,,,,,,,,,,,,,,,,,,,,,,1344.219873,1345.2324982,1340.2611204999998,1340.2611204999998,1340.2611204999998,1340.2611204999998,new_stationery_47.png,327,2.0,3.9546560999999656,,,078,10,2025-06-24_16h40.42.064,Surprise recog test,2023.1.3,59.96548386747622,
327,0,327,0,,,,,,,,,,,,,,,,,,,,,,,,,,,,,,,,,,1346.6595126,1347.6733886999998,1345.2324982,1345.2324982,1345.2324982,1345.2324982,old_sceneIn_10.png,328,4.0,1.4233589000000393,,,078,10,2025-06-24_16h40.42.064,Surprise recog test,2023.1.3,59.96548386747622,
328,0,328,0,,,,,,,,,,,,,,,,,,,,,,,,,,,,,,,,,,1349.2644885999998,,1347.6733886999998,1347.6733886999998,1347.6733886999998,1347.6733886999998,old_stationery_41.png,329,1.0,1.5931076000001667,,,078,10,2025-06-24_16h40.42.064,Surprise recog test,2023.1.3,59.96548386747622,
329,0,329,0,,,,,,,,,,,,,,,,,,,,,,,,,,,,,,,,,,1352.1509968999999,,1350.2964852,1350.2964852,1350.2964852,1350.2964852,old_fruit_8.png,330,4.0,1.8541700999999193,,,078,10,2025-06-24_16h40.42.064,Surprise recog test,2023.1.3,59.96548386747622,
330,0,330,0,,,,,,,,,,,,,,,,,,,,,,,,,,,,,,,,,,1356.9437274,1357.9719682999998,1353.1699623999998,1353.1699623999998,1353.1699623999998,1353.1699623999998,new_sceneOut_31.png,331,3.0,3.767626099999916,,,078,10,2025-06-24_16h40.42.064,Surprise recog test,2023.1.3,59.96548386747622,
331,0,331,0,,,,,,,,,,,,,,,,,,,,,,,,,,,,,,,,,,1362.9550258,1363.9762016999998,1357.9719682999998,1357.9719682999998,1357.9719682999998,1357.9719682999998,new_sceneOut_25.png,332,None,None,,,078,10,2025-06-24_16h40.42.064,Surprise recog test,2023.1.3,59.96548386747622,
332,0,332,0,,,,,,,,,,,,,,,,,,,,,,,,,,,,,,,,,,1365.5997163999998,1366.628207,1363.9762016999998,1363.9762016999998,1363.9762016999998,1363.9762016999998,new_stationery_9.png,333,1.0,1.625634699999864,,,078,10,2025-06-24_16h40.42.064,Surprise recog test,2023.1.3,59.96548386747622,
333,0,333,0,,,,,,,,,,,,,,,,,,,,,,,,,,,,,,,,,,1368.1420099,1369.1641344,1366.628207,1366.628207,1366.628207,1366.628207,old_sceneOut_4.png,334,4.0,1.5141742000000704,,,078,10,2025-06-24_16h40.42.064,Surprise recog test,2023.1.3,59.96548386747622,
334,0,334,0,,,,,,,,,,,,,,,,,,,,,,,,,,,,,,,,,,1370.8209613,1371.8478229,1369.1641344,1369.1641344,1369.1641344,1369.1641344,old_stationery_4.png,335,1.0,1.6599222999998346,,,078,10,2025-06-24_16h40.42.064,Surprise recog test,2023.1.3,59.96548386747622,
335,0,335,0,,,,,,,,,,,,,,,,,,,,,,,,,,,,,,,,,,1374.0896825,1375.1085177999998,1371.8478229,1371.8478229,1371.8478229,1371.8478229,new_stationery_2.png,336,1.0,2.239435700000058,,,078,10,2025-06-24_16h40.42.064,Surprise recog test,2023.1.3,59.96548386747622,
336,0,336,0,,,,,,,,,,,,,,,,,,,,,,,,,,,,,,,,,,1377.9933692,1379.0224991,1375.1085177999998,1375.1085177999998,1375.1085177999998,1375.1085177999998,new_fruit_24.png,337,2.0,2.8811941000001298,,,078,10,2025-06-24_16h40.42.064,Surprise recog test,2023.1.3,59.96548386747622,
337,0,337,0,,,,,,,,,,,,,,,,,,,,,,,,,,,,,,,,,,1380.2863504999998,1381.3071390999999,1379.0224991,1379.0224991,1379.0224991,1379.0224991,new_fruit_23.png,338,3.0,1.2595749000001888,,,078,10,2025-06-24_16h40.42.064,Surprise recog test,2023.1.3,59.96548386747622,
338,0,338,0,,,,,,,,,,,,,,,,,,,,,,,,,,,,,,,,,,1382.6300061999998,1383.6552964,1381.3071390999999,1381.3071390999999,1381.3071390999999,1381.3071390999999,old_fruit_45.png,339,1.0,1.3239599999999427,,,078,10,2025-06-24_16h40.42.064,Surprise recog test,2023.1.3,59.96548386747622,
339,0,339,0,,,,,,,,,,,,,,,,,,,,,,,,,,,,,,,,,,1385.4597758999998,,1383.6552964,1383.6552964,1383.6552964,1383.6552964,new_sceneOut_32.png,340,4.0,1.8020385999998325,,,078,10,2025-06-24_16h40.42.064,Surprise recog test,2023.1.3,59.96548386747622,
340,0,340,0,,,,,,,,,,,,,,,,,,,,,,,,,,,,,,,,,,1388.267531,1389.2957754,1386.4952371999998,1386.4952371999998,1386.4952371999998,1386.4952371999998,old_sceneOut_35.png,341,4.0,1.775030499999957,,,078,10,2025-06-24_16h40.42.064,Surprise recog test,2023.1.3,59.96548386747622,
341,0,341,0,,,,,,,,,,,,,,,,,,,,,,,,,,,,,,,,,,1391.4158192999998,,1389.2957754,1389.2957754,1389.2957754,1389.2957754,new_stationery_8.png,342,1.0,2.1221917000000303,,,078,10,2025-06-24_16h40.42.064,Surprise recog test,2023.1.3,59.96548386747622,
342,0,342,0,,,,,,,,,,,,,,,,,,,,,,,,,,,,,,,,,,1395.4322892,1396.4483254,1392.4486293,1392.4486293,1392.4486293,1392.4486293,old_fruit_40.png,343,3.0,2.9853623999999854,,,078,10,2025-06-24_16h40.42.064,Surprise recog test,2023.1.3,59.96548386747622,
343,0,343,0,,,,,,,,,,,,,,,,,,,,,,,,,,,,,,,,,,1397.778198,1398.8040323999999,1396.4483254,1396.4483254,1396.4483254,1396.4483254,new_stationery_28.png,344,1.0,1.328501499999902,,,078,10,2025-06-24_16h40.42.064,Surprise recog test,2023.1.3,59.96548386747622,
344,0,344,0,,,,,,,,,,,,,,,,,,,,,,,,,,,,,,,,,,1400.7367579,1401.7573241999999,1398.8040323999999,1398.8040323999999,1398.8040323999999,1398.8040323999999,old_stationery_24.png,345,4.0,1.927669700000024,,,078,10,2025-06-24_16h40.42.064,Surprise recog test,2023.1.3,59.96548386747622,
345,0,345,0,,,,,,,,,,,,,,,,,,,,,,,,,,,,,,,,,,1404.3199645,1405.3445717999998,1401.7573241999999,1401.7573241999999,1401.7573241999999,1401.7573241999999,new_sceneIn_3.png,346,4.0,2.557729800000061,,,078,10,2025-06-24_16h40.42.064,Surprise recog test,2023.1.3,59.96548386747622,
346,0,346,0,,,,,,,,,,,,,,,,,,,,,,,,,,,,,,,,,,1406.8370074999998,1407.8622340999998,1405.3445717999998,1405.3445717999998,1405.3445717999998,1405.3445717999998,new_fruit_15.png,347,4.0,1.496261000000004,,,078,10,2025-06-24_16h40.42.064,Surprise recog test,2023.1.3,59.96548386747622,
347,0,347,0,,,,,,,,,,,,,,,,,,,,,,,,,,,,,,,,,,1409.7564587999998,1410.7809648999998,1407.8622340999998,1407.8622340999998,1407.8622340999998,1407.8622340999998,old_sceneIn_16.png,348,1.0,1.8964786999999887,,,078,10,2025-06-24_16h40.42.064,Surprise recog test,2023.1.3,59.96548386747622,
348,0,348,0,,,,,,,,,,,,,,,,,,,,,,,,,,,,,,,,,,1411.6844744,1412.7045117999999,1410.7809648999998,1410.7809648999998,1410.7809648999998,1410.7809648999998,old_stationery_46.png,349,1.0,0.9047967999999855,,,078,10,2025-06-24_16h40.42.064,Surprise recog test,2023.1.3,59.96548386747622,
349,0,349,0,,,,,,,,,,,,,,,,,,,,,,,,,,,,,,,,,,1414.8145098,1415.8236794,1412.7045117999999,1412.7045117999999,1412.7045117999999,1412.7045117999999,old_sceneIn_22.png,350,4.0,2.1035815999998704,,,078,10,2025-06-24_16h40.42.064,Surprise recog test,2023.1.3,59.96548386747622,
350,0,350,0,,,,,,,,,,,,,,,,,,,,,,,,,,,,,,,,,,1417.2522869,1418.2738210999999,1415.8236794,1415.8236794,1415.8236794,1415.8236794,new_sceneOut_26.png,351,4.0,1.424719700000196,,,078,10,2025-06-24_16h40.42.064,Surprise recog test,2023.1.3,59.96548386747622,
351,0,351,0,,,,,,,,,,,,,,,,,,,,,,,,,,,,,,,,,,1419.5587733,1420.5789121999999,1418.2738210999999,1418.2738210999999,1418.2738210999999,1418.2738210999999,old_fruit_9.png,352,4.0,1.2877375000000484,,,078,10,2025-06-24_16h40.42.064,Surprise recog test,2023.1.3,59.96548386747622,
352,0,352,0,,,,,,,,,,,,,,,,,,,,,,,,,,,,,,,,,,1425.3979479,1426.4224459,1420.5789121999999,1420.5789121999999,1420.5789121999999,1420.5789121999999,old_fruit_46.png,353,3.0,4.814043399999946,,,078,10,2025-06-24_16h40.42.064,Surprise recog test,2023.1.3,59.96548386747622,
353,0,353,0,,,,,,,,,,,,,,,,,,,,,,,,,,,,,,,,,,1430.3509755999999,1431.3806112999998,1426.4224459,1426.4224459,1426.4224459,1426.4224459,new_stationery_21.png,354,3.0,3.9260012000002007,,,078,10,2025-06-24_16h40.42.064,Surprise recog test,2023.1.3,59.96548386747622,
354,0,354,0,,,,,,,,,,,,,,,,,,,,,,,,,,,,,,,,,,1432.8789442,1433.8994741,1431.3806112999998,1431.3806112999998,1431.3806112999998,1431.3806112999998,new_sceneOut_1.png,355,4.0,1.4975957999999991,,,078,10,2025-06-24_16h40.42.064,Surprise recog test,2023.1.3,59.96548386747622,
355,0,355,0,,,,,,,,,,,,,,,,,,,,,,,,,,,,,,,,,,1436.5107309,1437.5244556,1433.8994741,1433.8994741,1433.8994741,1433.8994741,old_sceneOut_3.png,356,4.0,2.6104866999999103,,,078,10,2025-06-24_16h40.42.064,Surprise recog test,2023.1.3,59.96548386747622,
356,0,356,0,,,,,,,,,,,,,,,,,,,,,,,,,,,,,,,,,,1441.278926,1442.3111227,1437.5244556,1437.5244556,1437.5244556,1437.5244556,new_stationery_13.png,357,2.0,3.750753199999963,,,078,10,2025-06-24_16h40.42.064,Surprise recog test,2023.1.3,59.96548386747622,
357,0,357,0,,,,,,,,,,,,,,,,,,,,,,,,,,,,,,,,,,1444.76432,1445.7899478,1442.3111227,1442.3111227,1442.3111227,1442.3111227,new_sceneIn_28.png,358,5.0,2.4551702000001114,,,078,10,2025-06-24_16h40.42.064,Surprise recog test,2023.1.3,59.96548386747622,
358,0,358,0,,,,,,,,,,,,,,,,,,,,,,,,,,,,,,,,,,1448.2958494999998,,1445.7899478,1445.7899478,1445.7899478,1445.7899478,new_stationery_39.png,359,4.0,2.5048874999999953,,,078,10,2025-06-24_16h40.42.064,Surprise recog test,2023.1.3,59.96548386747622,
359,0,359,0,,,,,,,,,,,,,,,,,,,,,,,,,,,,,,,,,,1453.8125934,1454.8333033,1449.3267514,1449.3267514,1449.3267514,1449.3267514,old_fruit_35.png,360,4.0,4.487803799999938,,,078,10,2025-06-24_16h40.42.064,Surprise recog test,2023.1.3,59.96548386747622,
360,0,360,0,,,,,,,,,,,,,,,,,,,,,,,,,,,,,,,,,,1456.5834436,1457.6023599999999,1454.8333033,1454.8333033,1454.8333033,1454.8333033,old_fruit_47.png,361,1.0,1.7507135000000744,,,078,10,2025-06-24_16h40.42.064,Surprise recog test,2023.1.3,59.96548386747622,
361,0,361,0,,,,,,,,,,,,,,,,,,,,,,,,,,,,,,,,,,1459.9677035999998,1460.9775284999998,1457.6023599999999,1457.6023599999999,1457.6023599999999,1457.6023599999999,new_stationery_24.png,362,4.0,2.3663334000000305,,,078,10,2025-06-24_16h40.42.064,Surprise recog test,2023.1.3,59.96548386747622,
362,0,362,0,,,,,,,,,,,,,,,,,,,,,,,,,,,,,,,,,,1464.7559841999998,1465.7752595,1460.9775284999998,1460.9775284999998,1460.9775284999998,1460.9775284999998,old_sceneOut_25.png,363,3.0,3.7743097999998554,,,078,10,2025-06-24_16h40.42.064,Surprise recog test,2023.1.3,59.96548386747622,
363,0,363,0,,,,,,,,,,,,,,,,,,,,,,,,,,,,,,,,,,1467.6414060999998,1468.6657773999998,1465.7752595,1465.7752595,1465.7752595,1465.7752595,new_fruit_39.png,364,1.0,1.8681269999999586,,,078,10,2025-06-24_16h40.42.064,Surprise recog test,2023.1.3,59.96548386747622,
364,0,364,0,,,,,,,,,,,,,,,,,,,,,,,,,,,,,,,,,,1470.5488171,,1468.6657773999998,1468.6657773999998,1468.6657773999998,1468.6657773999998,old_sceneIn_19.png,365,4.0,1.8865928999998687,,,078,10,2025-06-24_16h40.42.064,Surprise recog test,2023.1.3,59.96548386747622,
365,0,365,0,,,,,,,,,,,,,,,,,,,,,,,,,,,,,,,,,,1474.6189725,,1471.5802351,1471.5802351,1471.5802351,1471.5802351,old_fruit_29.png,366,4.0,3.040931799999953,,,078,10,2025-06-24_16h40.42.064,Surprise recog test,2023.1.3,59.96548386747622,
366,0,366,0,,,,,,,,,,,,,,,,,,,,,,,,,,,,,,,,,,1480.6362216,,1475.6507929999998,1475.6507929999998,1475.6507929999998,1475.6507929999998,old_sceneOut_50.png,367,None,None,1480.6210996,,078,10,2025-06-24_16h40.42.064,Surprise recog test,2023.1.3,59.96548386747622,
367,0,367,0,,,,,,,,,,,,,,,,,,,,,,,,,,,,,,,,,,1483.606531,1484.6268464,1481.6584057999999,1481.6584057999999,1481.6584057999999,1481.6584057999999,old_stationery_22.png,368,1.0,1.949049599999853,,,078,10,2025-06-24_16h40.42.064,Surprise recog test,2023.1.3,59.96548386747622,
368,0,368,0,,,,,,,,,,,,,,,,,,,,,,,,,,,,,,,,,,1486.7414614,1487.7622162999999,1484.6268464,1484.6268464,1484.6268464,1484.6268464,old_fruit_1.png,369,4.0,2.1144550999999865,,,078,10,2025-06-24_16h40.42.064,Surprise recog test,2023.1.3,59.96548386747622,
369,0,369,0,,,,,,,,,,,,,,,,,,,,,,,,,,,,,,,,,,1489.2549583999999,1490.2787981,1487.7622162999999,1487.7622162999999,1487.7622162999999,1487.7622162999999,old_fruit_11.png,370,1.0,1.494429099999934,,,078,10,2025-06-24_16h40.42.064,Surprise recog test,2023.1.3,59.96548386747622,
370,0,370,0,,,,,,,,,,,,,,,,,,,,,,,,,,,,,,,,,,1492.3626419,1493.3806768,1490.2787981,1490.2787981,1490.2787981,1490.2787981,old_sceneIn_14.png,371,4.0,2.0808463999999276,,,078,10,2025-06-24_16h40.42.064,Surprise recog test,2023.1.3,59.96548386747622,
371,0,371,0,,,,,,,,,,,,,,,,,,,,,,,,,,,,,,,,,,1495.2735407,1496.299544,1493.3806768,1493.3806768,1493.3806768,1493.3806768,new_fruit_8.png,372,1.0,1.8942638999999417,,,078,10,2025-06-24_16h40.42.064,Surprise recog test,2023.1.3,59.96548386747622,
372,0,372,0,,,,,,,,,,,,,,,,,,,,,,,,,,,,,,,,,,1500.1533009999998,1501.1719716999999,1496.299544,1496.299544,1496.299544,1496.299544,old_stationery_25.png,373,2.0,3.8540539000000535,,,078,10,2025-06-24_16h40.42.064,Surprise recog test,2023.1.3,59.96548386747622,
373,0,373,0,,,,,,,,,,,,,,,,,,,,,,,,,,,,,,,,,,1503.2586612999999,,1501.1719716999999,1501.1719716999999,1501.1719716999999,1501.1719716999999,old_sceneIn_37.png,374,1.0,2.0846453999999994,,,078,10,2025-06-24_16h40.42.064,Surprise recog test,2023.1.3,59.96548386747622,
374,0,374,0,,,,,,,,,,,,,,,,,,,,,,,,,,,,,,,,,,1505.7592915,1506.7660377,1504.2799461,1504.2799461,1504.2799461,1504.2799461,new_sceneOut_47.png,375,4.0,1.4753519000000779,,,078,10,2025-06-24_16h40.42.064,Surprise recog test,2023.1.3,59.96548386747622,
375,0,375,0,,,,,,,,,,,,,,,,,,,,,,,,,,,,,,,,,,1509.2768962999999,1510.2871731999999,1506.7660377,1506.7660377,1506.7660377,1506.7660377,new_fruit_18.png,376,1.0,2.5021564999999555,,,078,10,2025-06-24_16h40.42.064,Surprise recog test,2023.1.3,59.96548386747622,
376,0,376,0,,,,,,,,,,,,,,,,,,,,,,,,,,,,,,,,,,1512.5118486,1513.529697,1510.2871731999999,1510.2871731999999,1510.2871731999999,1510.2871731999999,new_stationery_48.png,377,4.0,2.2205619999999726,,,078,10,2025-06-24_16h40.42.064,Surprise recog test,2023.1.3,59.96548386747622,
377,0,377,0,,,,,,,,,,,,,,,,,,,,,,,,,,,,,,,,,,1515.5697478,,1513.529697,1513.529697,1513.529697,1513.529697,old_sceneOut_41.png,378,4.0,2.038778500000035,,,078,10,2025-06-24_16h40.42.064,Surprise recog test,2023.1.3,59.96548386747622,
378,0,378,0,,,,,,,,,,,,,,,,,,,,,,,,,,,,,,,,,,1517.8878134,,1516.6042212999998,1516.6042212999998,1516.6042212999998,1516.6042212999998,new_sceneOut_11.png,379,4.0,1.2854824999999437,,,078,10,2025-06-24_16h40.42.064,Surprise recog test,2023.1.3,59.96548386747622,
379,0,379,0,,,,,,,,,,,,,,,,,,,,,,,,,,,,,,,,,,1520.4828776,1521.4946513999998,1518.9188421,1518.9188421,1518.9188421,1518.9188421,old_fruit_21.png,380,2.0,1.5636825999999928,,,078,10,2025-06-24_16h40.42.064,Surprise recog test,2023.1.3,59.96548386747622,
380,0,380,0,,,,,,,,,,,,,,,,,,,,,,,,,,,,,,,,,,1524.3711885,1525.3889442,1521.4946513999998,1521.4946513999998,1521.4946513999998,1521.4946513999998,old_sceneOut_47.png,381,1.0,2.872167700000091,,,078,10,2025-06-24_16h40.42.064,Surprise recog test,2023.1.3,59.96548386747622,
381,0,381,0,,,,,,,,,,,,,,,,,,,,,,,,,,,,,,,,,,1526.8702948999999,1527.8944293,1525.3889442,1525.3889442,1525.3889442,1525.3889442,new_sceneOut_10.png,382,3.0,1.4833279000001767,,,078,10,2025-06-24_16h40.42.064,Surprise recog test,2023.1.3,59.96548386747622,
