trial_loop.thisRepN,trial_loop.thisTrialN,trial_loop.thisN,trial_loop.thisIndex,VAS_slider.started,VAS_text.started,VAS_notstressed_text.started,VAS_stressed_text.started,continue_input.started,continue_text.started,label0.started,label10.started,label20.started,label30.started,label40.started,label50.started,label60.started,label70.started,label80.started,label90.started,label100.started,VAS_slider.response,VAS_slider.rt,VAS_slider.history,Answer_VAS,continue_input.keys,instruction_text.started,continue_text_2.started,continue_input_2.started,continue_input_2.keys,continue_input_2.rt,continue_input_2.duration,example_text.started,example_slider_2.started,example_image.started,example_slider_2.response,example_slider_2.rt,fixcross.started,fixcross.stopped,front_square.started,stim_images.started,trial_inst_images.started,slider_images.started,thisImg,trial_count,slider_images.response,slider_images.rt,slider_images.stopped,outro.started,outro.stopped,participant,condition,date,expName,psychopyVersion,frameRate,
,,,,252.76924300007522,252.76924300007522,252.76924300007522,252.76924300007522,252.76924300007522,252.76924300007522,252.76924300007522,252.76924300007522,252.76924300007522,252.76924300007522,252.76924300007522,252.76924300007522,252.76924300007522,252.76924300007522,252.76924300007522,252.76924300007522,252.76924300007522,2.1944444444444446,11.730900600086898,"[(2.1944444444444446, 11.730900600086898)]",2.1944444444444446,None,,,,,,,,,,,,,,,,,,,,,,,,,079,00,2025-06-12_16h35.55.337,Surprise recog test,2023.1.3,59.96203211514388,
,,,,,,,,,,,,,,,,,,,,,,,,,,264.5300948000513,264.5300948000513,264.5300948000513,space,24.029989799950272,None,,,,,,,,,,,,,,,,,,,079,00,2025-06-12_16h35.55.337,Surprise recog test,2023.1.3,59.96203211514388,
0,0,0,0,,,,,,,,,,,,,,,,,,,,,,,,,,,,,288.68926110025495,288.68926110025495,288.68926110025495,1.0,7.080861600115895,298.3144427998923,299.34117319993675,296.72942190011963,296.72942190011963,296.72942190011963,296.72942190011963,new_sceneIn_29.png,1,1.0,1.5866553001105785,,,,079,00,2025-06-12_16h35.55.337,Surprise recog test,2023.1.3,59.96203211514388,
1,0,1,0,,,,,,,,,,,,,,,,,,,,,,,,,,,,,,,,,,300.53272349992767,301.5533624999225,299.34117319993675,299.34117319993675,299.34117319993675,299.34117319993675,old_sceneIn_16.png,2,1.0,1.1935193999670446,,,,079,00,2025-06-12_16h35.55.337,Surprise recog test,2023.1.3,59.96203211514388,
2,0,2,0,,,,,,,,,,,,,,,,,,,,,,,,,,,,,,,,,,304.01311699999496,,301.5533624999225,301.5533624999225,301.5533624999225,301.5533624999225,old_fruit_18.png,3,5.0,2.459925000090152,,,,079,00,2025-06-12_16h35.55.337,Surprise recog test,2023.1.3,59.96203211514388,
3,0,3,0,,,,,,,,,,,,,,,,,,,,,,,,,,,,,,,,,,306.5950651001185,307.60041860025376,305.042170799803,305.042170799803,305.042170799803,305.042170799803,new_stationery_6.png,4,1.0,1.5475098001770675,,,,079,00,2025-06-12_16h35.55.337,Surprise recog test,2023.1.3,59.96203211514388,
4,0,4,0,,,,,,,,,,,,,,,,,,,,,,,,,,,,,,,,,,312.31661520013586,313.33780199987814,307.60041860025376,307.60041860025376,307.60041860025376,307.60041860025376,new_sceneOut_45.png,5,3.0,4.712815899867564,,,,079,00,2025-06-12_16h35.55.337,Surprise recog test,2023.1.3,59.96203211514388,
5,0,5,0,,,,,,,,,,,,,,,,,,,,,,,,,,,,,,,,,,318.16311600012705,319.1918596001342,313.33780199987814,313.33780199987814,313.33780199987814,313.33780199987814,old_sceneIn_32.png,6,4.0,4.826513399835676,,,,079,00,2025-06-12_16h35.55.337,Surprise recog test,2023.1.3,59.96203211514388,
6,0,6,0,,,,,,,,,,,,,,,,,,,,,,,,,,,,,,,,,,321.4643888999708,322.49905500002205,319.1918596001342,319.1918596001342,319.1918596001342,319.1918596001342,old_fruit_20.png,7,1.0,2.2728078002110124,,,,079,00,2025-06-12_16h35.55.337,Surprise recog test,2023.1.3,59.96203211514388,
7,0,7,0,,,,,,,,,,,,,,,,,,,,,,,,,,,,,,,,,,325.735625800211,326.756184599828,322.49905500002205,322.49905500002205,322.49905500002205,322.49905500002205,new_sceneOut_19.png,8,3.0,3.2398033002391458,,,,079,00,2025-06-12_16h35.55.337,Surprise recog test,2023.1.3,59.96203211514388,
8,0,8,0,,,,,,,,,,,,,,,,,,,,,,,,,,,,,,,,,,329.3895625001751,330.40238460013643,326.756184599828,326.756184599828,326.756184599828,326.756184599828,old_sceneOut_18.png,9,4.0,2.6321251997724175,,,,079,00,2025-06-12_16h35.55.337,Surprise recog test,2023.1.3,59.96203211514388,
9,0,9,0,,,,,,,,,,,,,,,,,,,,,,,,,,,,,,,,,,333.1518688998185,334.16176739986986,330.40238460013643,330.40238460013643,330.40238460013643,330.40238460013643,new_sceneIn_30.png,10,4.0,2.7459436003118753,,,,079,00,2025-06-12_16h35.55.337,Surprise recog test,2023.1.3,59.96203211514388,
10,0,10,0,,,,,,,,,,,,,,,,,,,,,,,,,,,,,,,,,,337.579889500048,338.6063982998021,334.16176739986986,334.16176739986986,334.16176739986986,334.16176739986986,new_fruit_50.png,11,2.0,3.4131960002705455,,,,079,00,2025-06-12_16h35.55.337,Surprise recog test,2023.1.3,59.96203211514388,
11,0,11,0,,,,,,,,,,,,,,,,,,,,,,,,,,,,,,,,,,341.4260114999488,,338.6063982998021,338.6063982998021,338.6063982998021,338.6063982998021,old_fruit_44.png,12,2.0,2.8194238003343344,,,,079,00,2025-06-12_16h35.55.337,Surprise recog test,2023.1.3,59.96203211514388,
12,0,12,0,,,,,,,,,,,,,,,,,,,,,,,,,,,,,,,,,,345.53898400021717,346.54841089993715,342.4582874001935,342.4582874001935,342.4582874001935,342.4582874001935,new_fruit_34.png,13,5.0,3.0823528999462724,,,,079,00,2025-06-12_16h35.55.337,Surprise recog test,2023.1.3,59.96203211514388,
13,0,13,0,,,,,,,,,,,,,,,,,,,,,,,,,,,,,,,,,,348.5643507000059,349.5713340998627,346.54841089993715,346.54841089993715,346.54841089993715,346.54841089993715,new_fruit_13.png,14,1.0,2.003650200087577,,,,079,00,2025-06-12_16h35.55.337,Surprise recog test,2023.1.3,59.96203211514388,
14,0,14,0,,,,,,,,,,,,,,,,,,,,,,,,,,,,,,,,,,351.6320716999471,352.6427277000621,349.5713340998627,349.5713340998627,349.5713340998627,349.5713340998627,new_sceneIn_23.png,15,5.0,2.056377800181508,,,,079,00,2025-06-12_16h35.55.337,Surprise recog test,2023.1.3,59.96203211514388,
15,0,15,0,,,,,,,,,,,,,,,,,,,,,,,,,,,,,,,,,,354.982232300099,355.99387450003996,352.6427277000621,352.6427277000621,352.6427277000621,352.6427277000621,old_sceneIn_47.png,16,5.0,2.3358288002200425,,,,079,00,2025-06-12_16h35.55.337,Surprise recog test,2023.1.3,59.96203211514388,
16,0,16,0,,,,,,,,,,,,,,,,,,,,,,,,,,,,,,,,,,357.98241339996457,359.0059878001921,355.99387450003996,355.99387450003996,355.99387450003996,355.99387450003996,old_stationery_11.png,17,5.0,1.984508200082928,,,,079,00,2025-06-12_16h35.55.337,Surprise recog test,2023.1.3,59.96203211514388,
17,0,17,0,,,,,,,,,,,,,,,,,,,,,,,,,,,,,,,,,,362.0634940001182,363.08890500012785,359.0059878001921,359.0059878001921,359.0059878001921,359.0059878001921,new_fruit_30.png,18,5.0,3.058625999838114,,,,079,00,2025-06-12_16h35.55.337,Surprise recog test,2023.1.3,59.96203211514388,
18,0,18,0,,,,,,,,,,,,,,,,,,,,,,,,,,,,,,,,,,365.4996242001653,366.5188370998949,363.08890500012785,363.08890500012785,363.08890500012785,363.08890500012785,old_fruit_29.png,19,1.0,2.4123229002580047,,,,079,00,2025-06-12_16h35.55.337,Surprise recog test,2023.1.3,59.96203211514388,
19,0,19,0,,,,,,,,,,,,,,,,,,,,,,,,,,,,,,,,,,368.45093449996784,,366.5188370998949,366.5188370998949,366.5188370998949,366.5188370998949,old_sceneOut_3.png,20,5.0,1.9238718999549747,,,,079,00,2025-06-12_16h35.55.337,Surprise recog test,2023.1.3,59.96203211514388,
20,0,20,0,,,,,,,,,,,,,,,,,,,,,,,,,,,,,,,,,,373.2263547000475,374.2506169998087,369.4696078998968,369.4696078998968,369.4696078998968,369.4696078998968,old_fruit_10.png,21,1.0,3.7509504999034107,,,,079,00,2025-06-12_16h35.55.337,Surprise recog test,2023.1.3,59.96203211514388,
21,0,21,0,,,,,,,,,,,,,,,,,,,,,,,,,,,,,,,,,,376.4040266000666,377.4234520001337,374.2506169998087,374.2506169998087,374.2506169998087,374.2506169998087,old_fruit_1.png,22,1.0,2.1554442001506686,,,,079,00,2025-06-12_16h35.55.337,Surprise recog test,2023.1.3,59.96203211514388,
22,0,22,0,,,,,,,,,,,,,,,,,,,,,,,,,,,,,,,,,,382.1895698001608,383.2103488999419,377.4234520001337,377.4234520001337,377.4234520001337,377.4234520001337,old_sceneIn_24.png,23,5.0,4.768335300032049,,,,079,00,2025-06-12_16h35.55.337,Surprise recog test,2023.1.3,59.96203211514388,
23,0,23,0,,,,,,,,,,,,,,,,,,,,,,,,,,,,,,,,,,385.9301338000223,,383.2103488999419,383.2103488999419,383.2103488999419,383.2103488999419,new_sceneOut_42.png,24,5.0,2.718557100277394,,,,079,00,2025-06-12_16h35.55.337,Surprise recog test,2023.1.3,59.96203211514388,
24,0,24,0,,,,,,,,,,,,,,,,,,,,,,,,,,,,,,,,,,389.8645281000063,390.86888349987566,386.9693209999241,386.9693209999241,386.9693209999241,386.9693209999241,new_stationery_48.png,25,4.0,2.8936410997994244,,,,079,00,2025-06-12_16h35.55.337,Surprise recog test,2023.1.3,59.96203211514388,
25,0,25,0,,,,,,,,,,,,,,,,,,,,,,,,,,,,,,,,,,393.9398524998687,394.9707696000114,390.86888349987566,390.86888349987566,390.86888349987566,390.86888349987566,old_sceneOut_42.png,26,5.0,3.0668609999120235,,,,079,00,2025-06-12_16h35.55.337,Surprise recog test,2023.1.3,59.96203211514388,
26,0,26,0,,,,,,,,,,,,,,,,,,,,,,,,,,,,,,,,,,398.73470399994403,399.7556920000352,394.9707696000114,394.9707696000114,394.9707696000114,394.9707696000114,old_stationery_31.png,27,3.0,3.765252099838108,,,,079,00,2025-06-12_16h35.55.337,Surprise recog test,2023.1.3,59.96203211514388,
27,0,27,0,,,,,,,,,,,,,,,,,,,,,,,,,,,,,,,,,,402.16179190017283,,399.7556920000352,399.7556920000352,399.7556920000352,399.7556920000352,old_sceneOut_15.png,28,4.0,2.407688499893993,,,,079,00,2025-06-12_16h35.55.337,Surprise recog test,2023.1.3,59.96203211514388,
28,0,28,0,,,,,,,,,,,,,,,,,,,,,,,,,,,,,,,,,,405.46052480023354,406.48024540022016,403.18654259992763,403.18654259992763,403.18654259992763,403.18654259992763,new_sceneIn_42.png,29,5.0,2.273670899681747,,,,079,00,2025-06-12_16h35.55.337,Surprise recog test,2023.1.3,59.96203211514388,
29,0,29,0,,,,,,,,,,,,,,,,,,,,,,,,,,,,,,,,,,410.6792101999745,411.69924400001764,406.48024540022016,406.48024540022016,406.48024540022016,406.48024540022016,old_stationery_6.png,30,3.0,4.201193700078875,,,,079,00,2025-06-12_16h35.55.337,Surprise recog test,2023.1.3,59.96203211514388,
30,0,30,0,,,,,,,,,,,,,,,,,,,,,,,,,,,,,,,,,,413.5495500001125,414.5632859999314,411.69924400001764,411.69924400001764,411.69924400001764,411.69924400001764,old_sceneIn_38.png,31,5.0,1.8494854997843504,,,,079,00,2025-06-12_16h35.55.337,Surprise recog test,2023.1.3,59.96203211514388,
31,0,31,0,,,,,,,,,,,,,,,,,,,,,,,,,,,,,,,,,,418.9524226002395,419.9656806997955,414.5632859999314,414.5632859999314,414.5632859999314,414.5632859999314,old_stationery_38.png,32,5.0,4.3894445998594165,,,,079,00,2025-06-12_16h35.55.337,Surprise recog test,2023.1.3,59.96203211514388,
32,0,32,0,,,,,,,,,,,,,,,,,,,,,,,,,,,,,,,,,,422.14062689989805,423.14603119995445,419.9656806997955,419.9656806997955,419.9656806997955,419.9656806997955,old_stationery_9.png,33,3.0,2.1717599001713097,,,,079,00,2025-06-12_16h35.55.337,Surprise recog test,2023.1.3,59.96203211514388,
33,0,33,0,,,,,,,,,,,,,,,,,,,,,,,,,,,,,,,,,,425.134594200179,426.1640780000016,423.14603119995445,423.14603119995445,423.14603119995445,423.14603119995445,old_sceneIn_22.png,34,5.0,1.9822835000231862,,,,079,00,2025-06-12_16h35.55.337,Surprise recog test,2023.1.3,59.96203211514388,
34,0,34,0,,,,,,,,,,,,,,,,,,,,,,,,,,,,,,,,,,430.0355703001842,,426.1640780000016,426.1640780000016,426.1640780000016,426.1640780000016,new_fruit_14.png,35,4.0,3.8708104002289474,,,,079,00,2025-06-12_16h35.55.337,Surprise recog test,2023.1.3,59.96203211514388,
35,0,35,0,,,,,,,,,,,,,,,,,,,,,,,,,,,,,,,,,,434.28421019995585,435.30362090002745,431.06862619984895,431.06862619984895,431.06862619984895,431.06862619984895,old_stationery_21.png,36,5.0,3.2184588997624815,,,,079,00,2025-06-12_16h35.55.337,Surprise recog test,2023.1.3,59.96203211514388,
36,0,36,0,,,,,,,,,,,,,,,,,,,,,,,,,,,,,,,,,,436.99431819980964,438.0215922999196,435.30362090002745,435.30362090002745,435.30362090002745,435.30362090002745,new_sceneIn_32.png,37,5.0,1.6908070002682507,,,,079,00,2025-06-12_16h35.55.337,Surprise recog test,2023.1.3,59.96203211514388,
37,0,37,0,,,,,,,,,,,,,,,,,,,,,,,,,,,,,,,,,,439.1617350000888,440.19321600021794,438.0215922999196,438.0215922999196,438.0215922999196,438.0215922999196,new_stationery_29.png,38,5.0,1.1414608000777662,,,,079,00,2025-06-12_16h35.55.337,Surprise recog test,2023.1.3,59.96203211514388,
38,0,38,0,,,,,,,,,,,,,,,,,,,,,,,,,,,,,,,,,,443.2763682999648,444.2813169998117,440.19321600021794,440.19321600021794,440.19321600021794,440.19321600021794,new_fruit_6.png,39,2.0,3.0848706997931004,,,,079,00,2025-06-12_16h35.55.337,Surprise recog test,2023.1.3,59.96203211514388,
39,0,39,0,,,,,,,,,,,,,,,,,,,,,,,,,,,,,,,,,,446.9176489999518,447.952938800212,444.2813169998117,444.2813169998117,444.2813169998117,444.2813169998117,old_sceneOut_22.png,40,5.0,2.6316561000421643,,,,079,00,2025-06-12_16h35.55.337,Surprise recog test,2023.1.3,59.96203211514388,
40,0,40,0,,,,,,,,,,,,,,,,,,,,,,,,,,,,,,,,,,449.0541372001171,450.0715033998713,447.952938800212,447.952938800212,447.952938800212,447.952938800212,old_sceneIn_30.png,41,5.0,1.1050471002236009,,,,079,00,2025-06-12_16h35.55.337,Surprise recog test,2023.1.3,59.96203211514388,
41,0,41,0,,,,,,,,,,,,,,,,,,,,,,,,,,,,,,,,,,451.1268723998219,452.14549139980227,450.0715033998713,450.0715033998713,450.0715033998713,450.0715033998713,old_stationery_10.png,42,5.0,1.0503245000727475,,,,079,00,2025-06-12_16h35.55.337,Surprise recog test,2023.1.3,59.96203211514388,
42,0,42,0,,,,,,,,,,,,,,,,,,,,,,,,,,,,,,,,,,455.8952528000809,456.92354660015553,452.14549139980227,452.14549139980227,452.14549139980227,452.14549139980227,old_fruit_25.png,43,3.0,3.7494292999617755,,,,079,00,2025-06-12_16h35.55.337,Surprise recog test,2023.1.3,59.96203211514388,
43,0,43,0,,,,,,,,,,,,,,,,,,,,,,,,,,,,,,,,,,458.32124939979985,459.34221410006285,456.92354660015553,456.92354660015553,456.92354660015553,456.92354660015553,old_sceneIn_15.png,44,5.0,1.3968450999818742,,,,079,00,2025-06-12_16h35.55.337,Surprise recog test,2023.1.3,59.96203211514388,
44,0,44,0,,,,,,,,,,,,,,,,,,,,,,,,,,,,,,,,,,461.37726220022887,,459.34221410006285,459.34221410006285,459.34221410006285,459.34221410006285,new_stationery_33.png,45,5.0,2.034661800134927,,,,079,00,2025-06-12_16h35.55.337,Surprise recog test,2023.1.3,59.96203211514388,
45,0,45,0,,,,,,,,,,,,,,,,,,,,,,,,,,,,,,,,,,463.47740120021626,,462.39755250001326,462.39755250001326,462.39755250001326,462.39755250001326,new_sceneIn_18.png,46,5.0,1.0763253001496196,,,,079,00,2025-06-12_16h35.55.337,Surprise recog test,2023.1.3,59.96203211514388,
46,0,46,0,,,,,,,,,,,,,,,,,,,,,,,,,,,,,,,,,,466.3029896998778,467.33086059987545,464.5016192998737,464.5016192998737,464.5016192998737,464.5016192998737,new_sceneIn_13.png,47,5.0,1.7981815002858639,,,,079,00,2025-06-12_16h35.55.337,Surprise recog test,2023.1.3,59.96203211514388,
47,0,47,0,,,,,,,,,,,,,,,,,,,,,,,,,,,,,,,,,,468.129506399855,469.13844170002267,467.33086059987545,467.33086059987545,467.33086059987545,467.33086059987545,old_stationery_4.png,48,5.0,0.7942499001510441,,,,079,00,2025-06-12_16h35.55.337,Surprise recog test,2023.1.3,59.96203211514388,
48,0,48,0,,,,,,,,,,,,,,,,,,,,,,,,,,,,,,,,,,470.072414400056,471.0854946002364,469.13844170002267,469.13844170002267,469.13844170002267,469.13844170002267,new_sceneOut_20.png,49,5.0,0.9291211999952793,,,,079,00,2025-06-12_16h35.55.337,Surprise recog test,2023.1.3,59.96203211514388,
49,0,49,0,,,,,,,,,,,,,,,,,,,,,,,,,,,,,,,,,,471.9826088999398,472.9998384001665,471.0854946002364,471.0854946002364,471.0854946002364,471.0854946002364,new_stationery_46.png,50,5.0,0.8858437002636492,,,,079,00,2025-06-12_16h35.55.337,Surprise recog test,2023.1.3,59.96203211514388,
50,0,50,0,,,,,,,,,,,,,,,,,,,,,,,,,,,,,,,,,,476.3229534002021,,472.9998384001665,472.9998384001665,472.9998384001665,472.9998384001665,old_stationery_16.png,51,5.0,3.3240404999814928,,,,079,00,2025-06-12_16h35.55.337,Surprise recog test,2023.1.3,59.96203211514388,
51,0,51,0,,,,,,,,,,,,,,,,,,,,,,,,,,,,,,,,,,480.0627637999132,481.0815822002478,477.3579810000956,477.3579810000956,477.3579810000956,477.3579810000956,new_sceneOut_33.png,52,5.0,2.707777800038457,,,,079,00,2025-06-12_16h35.55.337,Surprise recog test,2023.1.3,59.96203211514388,
52,0,52,0,,,,,,,,,,,,,,,,,,,,,,,,,,,,,,,,,,482.77484360011294,483.78069730009884,481.0815822002478,481.0815822002478,481.0815822002478,481.0815822002478,new_fruit_19.png,53,5.0,1.6872168998233974,,,,079,00,2025-06-12_16h35.55.337,Surprise recog test,2023.1.3,59.96203211514388,
53,0,53,0,,,,,,,,,,,,,,,,,,,,,,,,,,,,,,,,,,484.65689750015736,485.668123499956,483.78069730009884,483.78069730009884,483.78069730009884,483.78069730009884,new_sceneIn_34.png,54,5.0,0.8711601998656988,,,,079,00,2025-06-12_16h35.55.337,Surprise recog test,2023.1.3,59.96203211514388,
54,0,54,0,,,,,,,,,,,,,,,,,,,,,,,,,,,,,,,,,,488.06508219987154,,485.668123499956,485.668123499956,485.668123499956,485.668123499956,old_stationery_49.png,55,4.0,2.393291300162673,,,,079,00,2025-06-12_16h35.55.337,Surprise recog test,2023.1.3,59.96203211514388,
55,0,55,0,,,,,,,,,,,,,,,,,,,,,,,,,,,,,,,,,,490.1485036998056,491.1738236998208,489.1005265000276,489.1005265000276,489.1005265000276,489.1005265000276,new_sceneOut_40.png,56,4.0,1.0501962001435459,,,,079,00,2025-06-12_16h35.55.337,Surprise recog test,2023.1.3,59.96203211514388,
56,0,56,0,,,,,,,,,,,,,,,,,,,,,,,,,,,,,,,,,,492.0203833002597,,491.1738236998208,491.1738236998208,491.1738236998208,491.1738236998208,old_sceneIn_18.png,57,4.0,0.8511475999839604,,,,079,00,2025-06-12_16h35.55.337,Surprise recog test,2023.1.3,59.96203211514388,
57,0,57,0,,,,,,,,,,,,,,,,,,,,,,,,,,,,,,,,,,494.11369139980525,495.12642390001565,493.05122569995,493.05122569995,493.05122569995,493.05122569995,new_stationery_3.png,58,4.0,1.0614014999009669,,,,079,00,2025-06-12_16h35.55.337,Surprise recog test,2023.1.3,59.96203211514388,
58,0,58,0,,,,,,,,,,,,,,,,,,,,,,,,,,,,,,,,,,496.9199888999574,497.9407713999972,495.12642390001565,495.12642390001565,495.12642390001565,495.12642390001565,old_fruit_13.png,59,1.0,1.783939199987799,,,,079,00,2025-06-12_16h35.55.337,Surprise recog test,2023.1.3,59.96203211514388,
59,0,59,0,,,,,,,,,,,,,,,,,,,,,,,,,,,,,,,,,,499.7639488000423,500.7863865001127,497.9407713999972,497.9407713999972,497.9407713999972,497.9407713999972,new_stationery_18.png,60,5.0,1.825008399784565,,,,079,00,2025-06-12_16h35.55.337,Surprise recog test,2023.1.3,59.96203211514388,
60,0,60,0,,,,,,,,,,,,,,,,,,,,,,,,,,,,,,,,,,501.9844268998131,502.99979870021343,500.7863865001127,500.7863865001127,500.7863865001127,500.7863865001127,new_sceneOut_35.png,61,5.0,1.1993328998796642,,,,079,00,2025-06-12_16h35.55.337,Surprise recog test,2023.1.3,59.96203211514388,
61,0,61,0,,,,,,,,,,,,,,,,,,,,,,,,,,,,,,,,,,504.60528710018843,505.63038890017197,502.99979870021343,502.99979870021343,502.99979870021343,502.99979870021343,new_fruit_28.png,62,5.0,1.601670800242573,,,,079,00,2025-06-12_16h35.55.337,Surprise recog test,2023.1.3,59.96203211514388,
62,0,62,0,,,,,,,,,,,,,,,,,,,,,,,,,,,,,,,,,,506.9448728999123,507.96070009982213,505.63038890017197,505.63038890017197,505.63038890017197,505.63038890017197,new_sceneOut_5.png,63,5.0,1.312460600398481,,,,079,00,2025-06-12_16h35.55.337,Surprise recog test,2023.1.3,59.96203211514388,
63,0,63,0,,,,,,,,,,,,,,,,,,,,,,,,,,,,,,,,,,512.4359690002166,,507.96070009982213,507.96070009982213,507.96070009982213,507.96070009982213,new_fruit_18.png,64,4.0,4.47841880004853,,,,079,00,2025-06-12_16h35.55.337,Surprise recog test,2023.1.3,59.96203211514388,
64,0,64,0,,,,,,,,,,,,,,,,,,,,,,,,,,,,,,,,,,516.275706499815,517.2919387002476,513.468313400168,513.468313400168,513.468313400168,513.468313400168,new_sceneOut_9.png,65,5.0,2.8064167997799814,,,,079,00,2025-06-12_16h35.55.337,Surprise recog test,2023.1.3,59.96203211514388,
65,0,65,0,,,,,,,,,,,,,,,,,,,,,,,,,,,,,,,,,,518.1498273001052,519.1771255000494,517.2919387002476,517.2919387002476,517.2919387002476,517.2919387002476,old_sceneOut_2.png,66,5.0,0.8533129999414086,,,,079,00,2025-06-12_16h35.55.337,Surprise recog test,2023.1.3,59.96203211514388,
66,0,66,0,,,,,,,,,,,,,,,,,,,,,,,,,,,,,,,,,,520.2637901999988,521.2774195000529,519.1771255000494,519.1771255000494,519.1771255000494,519.1771255000494,new_sceneOut_10.png,67,5.0,1.090889499988407,,,,079,00,2025-06-12_16h35.55.337,Surprise recog test,2023.1.3,59.96203211514388,
67,0,67,0,,,,,,,,,,,,,,,,,,,,,,,,,,,,,,,,,,522.3994577000849,523.4257458001375,521.2774195000529,521.2774195000529,521.2774195000529,521.2774195000529,old_sceneIn_23.png,68,5.0,1.1176358996890485,,,,079,00,2025-06-12_16h35.55.337,Surprise recog test,2023.1.3,59.96203211514388,
68,0,68,0,,,,,,,,,,,,,,,,,,,,,,,,,,,,,,,,,,527.5210100002587,528.5486645000055,523.4257458001375,523.4257458001375,523.4257458001375,523.4257458001375,old_stationery_41.png,69,4.0,4.0948902000673115,,,,079,00,2025-06-12_16h35.55.337,Surprise recog test,2023.1.3,59.96203211514388,
69,0,69,0,,,,,,,,,,,,,,,,,,,,,,,,,,,,,,,,,,529.746700800024,530.7608607001603,528.5486645000055,528.5486645000055,528.5486645000055,528.5486645000055,new_sceneIn_47.png,70,5.0,1.1993644000031054,,,,079,00,2025-06-12_16h35.55.337,Surprise recog test,2023.1.3,59.96203211514388,
70,0,70,0,,,,,,,,,,,,,,,,,,,,,,,,,,,,,,,,,,533.3335831002332,534.3483135001734,530.7608607001603,530.7608607001603,530.7608607001603,530.7608607001603,old_fruit_21.png,71,2.0,2.5709837996400893,,,,079,00,2025-06-12_16h35.55.337,Surprise recog test,2023.1.3,59.96203211514388,
71,0,71,0,,,,,,,,,,,,,,,,,,,,,,,,,,,,,,,,,,537.2799571999349,538.3023259001784,534.3483135001734,534.3483135001734,534.3483135001734,534.3483135001734,new_fruit_5.png,72,5.0,2.9276041998527944,,,,079,00,2025-06-12_16h35.55.337,Surprise recog test,2023.1.3,59.96203211514388,
72,0,72,0,,,,,,,,,,,,,,,,,,,,,,,,,,,,,,,,,,542.2314768000506,543.2666672999039,538.3023259001784,538.3023259001784,538.3023259001784,538.3023259001784,new_fruit_45.png,73,4.0,3.930621000006795,,,,079,00,2025-06-12_16h35.55.337,Surprise recog test,2023.1.3,59.96203211514388,
73,0,73,0,,,,,,,,,,,,,,,,,,,,,,,,,,,,,,,,,,545.0175383999012,546.0353743000887,543.2666672999039,543.2666672999039,543.2666672999039,543.2666672999039,old_sceneIn_9.png,74,4.0,1.7528019999153912,,,,079,00,2025-06-12_16h35.55.337,Surprise recog test,2023.1.3,59.96203211514388,
74,0,74,0,,,,,,,,,,,,,,,,,,,,,,,,,,,,,,,,,,547.3272080002353,548.3376794001088,546.0353743000887,546.0353743000887,546.0353743000887,546.0353743000887,new_sceneOut_3.png,75,5.0,1.285866899881512,,,,079,00,2025-06-12_16h35.55.337,Surprise recog test,2023.1.3,59.96203211514388,
75,0,75,0,,,,,,,,,,,,,,,,,,,,,,,,,,,,,,,,,,551.3540098001249,552.3842719998211,548.3376794001088,548.3376794001088,548.3376794001088,548.3376794001088,old_sceneOut_36.png,76,5.0,3.0101870000362396,,,,079,00,2025-06-12_16h35.55.337,Surprise recog test,2023.1.3,59.96203211514388,
76,0,76,0,,,,,,,,,,,,,,,,,,,,,,,,,,,,,,,,,,555.391040599905,556.4107635002583,552.3842719998211,552.3842719998211,552.3842719998211,552.3842719998211,old_stationery_19.png,77,4.0,3.0094197001308203,,,,079,00,2025-06-12_16h35.55.337,Surprise recog test,2023.1.3,59.96203211514388,
77,0,77,0,,,,,,,,,,,,,,,,,,,,,,,,,,,,,,,,,,558.0542140998878,559.0758202997968,556.4107635002583,556.4107635002583,556.4107635002583,556.4107635002583,old_stationery_29.png,78,4.0,1.636831299867481,,,,079,00,2025-06-12_16h35.55.337,Surprise recog test,2023.1.3,59.96203211514388,
78,0,78,0,,,,,,,,,,,,,,,,,,,,,,,,,,,,,,,,,,562.2845071000047,563.3113147998229,559.0758202997968,559.0758202997968,559.0758202997968,559.0758202997968,old_stationery_30.png,79,5.0,3.210564599838108,,,,079,00,2025-06-12_16h35.55.337,Surprise recog test,2023.1.3,59.96203211514388,
79,0,79,0,,,,,,,,,,,,,,,,,,,,,,,,,,,,,,,,,,564.2088214000687,565.2320932000875,563.3113147998229,563.3113147998229,563.3113147998229,563.3113147998229,old_sceneOut_45.png,80,5.0,0.899301600176841,,,,079,00,2025-06-12_16h35.55.337,Surprise recog test,2023.1.3,59.96203211514388,
80,0,80,0,,,,,,,,,,,,,,,,,,,,,,,,,,,,,,,,,,566.05283709988,567.0805502999574,565.2320932000875,565.2320932000875,565.2320932000875,565.2320932000875,old_sceneOut_12.png,81,5.0,0.8241162998601794,,,,079,00,2025-06-12_16h35.55.337,Surprise recog test,2023.1.3,59.96203211514388,
81,0,81,0,,,,,,,,,,,,,,,,,,,,,,,,,,,,,,,,,,568.014592200052,,567.0805502999574,567.0805502999574,567.0805502999574,567.0805502999574,new_sceneOut_8.png,82,5.0,0.936075400095433,,,,079,00,2025-06-12_16h35.55.337,Surprise recog test,2023.1.3,59.96203211514388,
82,0,82,0,,,,,,,,,,,,,,,,,,,,,,,,,,,,,,,,,,570.2664633998647,,569.0502908998169,569.0502908998169,569.0502908998169,569.0502908998169,old_stationery_20.png,83,5.0,1.2189138000831008,,,,079,00,2025-06-12_16h35.55.337,Surprise recog test,2023.1.3,59.96203211514388,
83,0,83,0,,,,,,,,,,,,,,,,,,,,,,,,,,,,,,,,,,574.3582950001583,575.3865447002463,571.3005519001745,571.3005519001745,571.3005519001745,571.3005519001745,new_fruit_48.png,84,5.0,3.057176100090146,,,,079,00,2025-06-12_16h35.55.337,Surprise recog test,2023.1.3,59.96203211514388,
84,0,84,0,,,,,,,,,,,,,,,,,,,,,,,,,,,,,,,,,,576.238491800148,,575.3865447002463,575.3865447002463,575.3865447002463,575.3865447002463,new_stationery_36.png,85,5.0,0.8535291999578476,,,,079,00,2025-06-12_16h35.55.337,Surprise recog test,2023.1.3,59.96203211514388,
85,0,85,0,,,,,,,,,,,,,,,,,,,,,,,,,,,,,,,,,,579.183582900092,580.1952430000529,577.272713500075,577.272713500075,577.272713500075,577.272713500075,old_fruit_19.png,86,1.0,1.9129476002417505,,,,079,00,2025-06-12_16h35.55.337,Surprise recog test,2023.1.3,59.96203211514388,
86,0,86,0,,,,,,,,,,,,,,,,,,,,,,,,,,,,,,,,,,582.8747526002117,583.894589799922,580.1952430000529,580.1952430000529,580.1952430000529,580.1952430000529,old_stationery_32.png,87,4.0,2.673121000174433,,,,079,00,2025-06-12_16h35.55.337,Surprise recog test,2023.1.3,59.96203211514388,
87,0,87,0,,,,,,,,,,,,,,,,,,,,,,,,,,,,,,,,,,586.0114716999233,587.031217600219,583.894589799922,583.894589799922,583.894589799922,583.894589799922,old_fruit_31.png,88,5.0,2.1192995002493262,,,,079,00,2025-06-12_16h35.55.337,Surprise recog test,2023.1.3,59.96203211514388,
88,0,88,0,,,,,,,,,,,,,,,,,,,,,,,,,,,,,,,,,,587.9707965999842,588.9981925999746,587.031217600219,587.031217600219,587.031217600219,587.031217600219,new_stationery_2.png,89,5.0,0.9415653999894857,,,,079,00,2025-06-12_16h35.55.337,Surprise recog test,2023.1.3,59.96203211514388,
89,0,89,0,,,,,,,,,,,,,,,,,,,,,,,,,,,,,,,,,,591.0160576999187,592.035369799938,588.9981925999746,588.9981925999746,588.9981925999746,588.9981925999746,old_sceneOut_24.png,90,5.0,2.017344099935144,,,,079,00,2025-06-12_16h35.55.337,Surprise recog test,2023.1.3,59.96203211514388,
90,0,90,0,,,,,,,,,,,,,,,,,,,,,,,,,,,,,,,,,,595.2839579000138,596.2930152998306,592.035369799938,592.035369799938,592.035369799938,592.035369799938,old_stationery_36.png,91,5.0,3.2482428001239896,,,,079,00,2025-06-12_16h35.55.337,Surprise recog test,2023.1.3,59.96203211514388,
91,0,91,0,,,,,,,,,,,,,,,,,,,,,,,,,,,,,,,,,,597.3535179998726,598.3755398998037,596.2930152998306,596.2930152998306,596.2930152998306,596.2930152998306,old_sceneOut_32.png,92,5.0,1.0499591999687254,,,,079,00,2025-06-12_16h35.55.337,Surprise recog test,2023.1.3,59.96203211514388,
92,0,92,0,,,,,,,,,,,,,,,,,,,,,,,,,,,,,,,,,,599.932369499933,600.9465863001533,598.3755398998037,598.3755398998037,598.3755398998037,598.3755398998037,new_sceneIn_36.png,93,5.0,1.5565720000304282,,,,079,00,2025-06-12_16h35.55.337,Surprise recog test,2023.1.3,59.96203211514388,
93,0,93,0,,,,,,,,,,,,,,,,,,,,,,,,,,,,,,,,,,603.313869100064,604.3425610000268,600.9465863001533,600.9465863001533,600.9465863001533,600.9465863001533,old_fruit_17.png,94,4.0,2.3609217000193894,,,,079,00,2025-06-12_16h35.55.337,Surprise recog test,2023.1.3,59.96203211514388,
94,0,94,0,,,,,,,,,,,,,,,,,,,,,,,,,,,,,,,,,,605.4946842999198,606.5082497000694,604.3425610000268,604.3425610000268,604.3425610000268,604.3425610000268,new_stationery_49.png,95,5.0,1.1540435999631882,,,,079,00,2025-06-12_16h35.55.337,Surprise recog test,2023.1.3,59.96203211514388,
95,0,95,0,,,,,,,,,,,,,,,,,,,,,,,,,,,,,,,,,,609.2980349999852,610.3127334997989,606.5082497000694,606.5082497000694,606.5082497000694,606.5082497000694,old_fruit_49.png,96,2.0,2.7899917997419834,,,,079,00,2025-06-12_16h35.55.337,Surprise recog test,2023.1.3,59.96203211514388,
96,0,96,0,,,,,,,,,,,,,,,,,,,,,,,,,,,,,,,,,,612.4049883000553,613.4360009999946,610.3127334997989,610.3127334997989,610.3127334997989,610.3127334997989,new_stationery_10.png,97,5.0,2.088862699922174,,,,079,00,2025-06-12_16h35.55.337,Surprise recog test,2023.1.3,59.96203211514388,
97,0,97,0,,,,,,,,,,,,,,,,,,,,,,,,,,,,,,,,,,616.1141948997974,617.1390829002485,613.4360009999946,613.4360009999946,613.4360009999946,613.4360009999946,old_fruit_34.png,98,2.0,2.6804782999679446,,,,079,00,2025-06-12_16h35.55.337,Surprise recog test,2023.1.3,59.96203211514388,
98,0,98,0,,,,,,,,,,,,,,,,,,,,,,,,,,,,,,,,,,620.0561609999277,621.0768846999854,617.1390829002485,617.1390829002485,617.1390829002485,617.1390829002485,new_fruit_11.png,99,4.0,2.918682999908924,,,,079,00,2025-06-12_16h35.55.337,Surprise recog test,2023.1.3,59.96203211514388,
99,0,99,0,,,,,,,,,,,,,,,,,,,,,,,,,,,,,,,,,,624.6659086002037,625.6923822998069,621.0768846999854,621.0768846999854,621.0768846999854,621.0768846999854,old_stationery_28.png,100,3.0,3.5922826998867095,,,,079,00,2025-06-12_16h35.55.337,Surprise recog test,2023.1.3,59.96203211514388,
100,0,100,0,,,,,,,,,,,,,,,,,,,,,,,,,,,,,,,,,,627.1144290999509,,625.6923822998069,625.6923822998069,625.6923822998069,625.6923822998069,new_stationery_11.png,101,5.0,1.422660999931395,,,,079,00,2025-06-12_16h35.55.337,Surprise recog test,2023.1.3,59.96203211514388,
101,0,101,0,,,,,,,,,,,,,,,,,,,,,,,,,,,,,,,,,,632.5008240998723,633.5201380001381,628.1477065999061,628.1477065999061,628.1477065999061,628.1477065999061,new_sceneOut_14.png,102,5.0,4.355316200293601,,,,079,00,2025-06-12_16h35.55.337,Surprise recog test,2023.1.3,59.96203211514388,
102,0,102,0,,,,,,,,,,,,,,,,,,,,,,,,,,,,,,,,,,635.0604302999564,636.0824597999454,633.5201380001381,633.5201380001381,633.5201380001381,633.5201380001381,new_stationery_40.png,103,5.0,1.5424528000876307,,,,079,00,2025-06-12_16h35.55.337,Surprise recog test,2023.1.3,59.96203211514388,
103,0,103,0,,,,,,,,,,,,,,,,,,,,,,,,,,,,,,,,,,637.2107434999198,638.2401004000567,636.0824597999454,636.0824597999454,636.0824597999454,636.0824597999454,new_sceneIn_17.png,104,5.0,1.124180699698627,,,,079,00,2025-06-12_16h35.55.337,Surprise recog test,2023.1.3,59.96203211514388,
104,0,104,0,,,,,,,,,,,,,,,,,,,,,,,,,,,,,,,,,,640.1094692000188,,638.2401004000567,638.2401004000567,638.2401004000567,638.2401004000567,new_stationery_41.png,105,5.0,1.8724504001438618,,,,079,00,2025-06-12_16h35.55.337,Surprise recog test,2023.1.3,59.96203211514388,
105,0,105,0,,,,,,,,,,,,,,,,,,,,,,,,,,,,,,,,,,642.5273945000954,,641.1416568998247,641.1416568998247,641.1416568998247,641.1416568998247,old_stationery_3.png,106,5.0,1.3852971997112036,,,,079,00,2025-06-12_16h35.55.337,Surprise recog test,2023.1.3,59.96203211514388,
106,0,106,0,,,,,,,,,,,,,,,,,,,,,,,,,,,,,,,,,,645.443383899983,646.463925700169,643.5492316000164,643.5492316000164,643.5492316000164,643.5492316000164,old_fruit_5.png,107,5.0,1.8834404000081122,,,,079,00,2025-06-12_16h35.55.337,Surprise recog test,2023.1.3,59.96203211514388,
107,0,107,0,,,,,,,,,,,,,,,,,,,,,,,,,,,,,,,,,,647.362511199899,648.3700605002232,646.463925700169,646.463925700169,646.463925700169,646.463925700169,new_sceneIn_22.png,108,5.0,0.8996860999614,,,,079,00,2025-06-12_16h35.55.337,Surprise recog test,2023.1.3,59.96203211514388,
108,0,108,0,,,,,,,,,,,,,,,,,,,,,,,,,,,,,,,,,,650.7352173002437,,648.3700605002232,648.3700605002232,648.3700605002232,648.3700605002232,new_stationery_21.png,109,5.0,2.360266000032425,,,,079,00,2025-06-12_16h35.55.337,Surprise recog test,2023.1.3,59.96203211514388,
109,0,109,0,,,,,,,,,,,,,,,,,,,,,,,,,,,,,,,,,,652.965354999993,653.979565099813,651.7696402999572,651.7696402999572,651.7696402999572,651.7696402999572,old_sceneOut_4.png,110,5.0,1.198836600407958,,,,079,00,2025-06-12_16h35.55.337,Surprise recog test,2023.1.3,59.96203211514388,
110,0,110,0,,,,,,,,,,,,,,,,,,,,,,,,,,,,,,,,,,654.9054871001281,,653.979565099813,653.979565099813,653.979565099813,653.979565099813,old_sceneOut_37.png,111,5.0,0.9246433996595442,,,,079,00,2025-06-12_16h35.55.337,Surprise recog test,2023.1.3,59.96203211514388,
111,0,111,0,,,,,,,,,,,,,,,,,,,,,,,,,,,,,,,,,,658.565632800106,659.5759252002463,655.9412373998202,655.9412373998202,655.9412373998202,655.9412373998202,new_sceneIn_12.png,112,5.0,2.6266494002193213,,,,079,00,2025-06-12_16h35.55.337,Surprise recog test,2023.1.3,59.96203211514388,
112,0,112,0,,,,,,,,,,,,,,,,,,,,,,,,,,,,,,,,,,660.6122062001377,661.6371276001446,659.5759252002463,659.5759252002463,659.5759252002463,659.5759252002463,old_sceneOut_40.png,113,5.0,1.0319646000862122,,,,079,00,2025-06-12_16h35.55.337,Surprise recog test,2023.1.3,59.96203211514388,
113,0,113,0,,,,,,,,,,,,,,,,,,,,,,,,,,,,,,,,,,662.7027747998945,663.7233621999621,661.6371276001446,661.6371276001446,661.6371276001446,661.6371276001446,new_sceneIn_33.png,114,5.0,1.0650338004343212,,,,079,00,2025-06-12_16h35.55.337,Surprise recog test,2023.1.3,59.96203211514388,
114,0,114,0,,,,,,,,,,,,,,,,,,,,,,,,,,,,,,,,,,664.5742219001986,665.5940021998249,663.7233621999621,663.7233621999621,663.7233621999621,663.7233621999621,new_sceneOut_43.png,115,5.0,0.8512034001760185,,,,079,00,2025-06-12_16h35.55.337,Surprise recog test,2023.1.3,59.96203211514388,
115,0,115,0,,,,,,,,,,,,,,,,,,,,,,,,,,,,,,,,,,666.5642973999493,,665.5940021998249,665.5940021998249,665.5940021998249,665.5940021998249,old_sceneIn_29.png,116,5.0,0.9734451998956501,,,,079,00,2025-06-12_16h35.55.337,Surprise recog test,2023.1.3,59.96203211514388,
116,0,116,0,,,,,,,,,,,,,,,,,,,,,,,,,,,,,,,,,,668.6052749999799,669.6296812999062,667.5949218999594,667.5949218999594,667.5949218999594,667.5949218999594,new_sceneOut_31.png,117,5.0,1.0112779000774026,,,,079,00,2025-06-12_16h35.55.337,Surprise recog test,2023.1.3,59.96203211514388,
117,0,117,0,,,,,,,,,,,,,,,,,,,,,,,,,,,,,,,,,,673.1031365999952,,669.6296812999062,669.6296812999062,669.6296812999062,669.6296812999062,new_stationery_35.png,118,4.0,3.475616699550301,,,,079,00,2025-06-12_16h35.55.337,Surprise recog test,2023.1.3,59.96203211514388,
118,0,118,0,,,,,,,,,,,,,,,,,,,,,,,,,,,,,,,,,,675.4816851001233,676.5037917001173,674.1377034001052,674.1377034001052,674.1377034001052,674.1377034001052,new_sceneOut_21.png,119,5.0,1.3466885001398623,,,,079,00,2025-06-12_16h35.55.337,Surprise recog test,2023.1.3,59.96203211514388,
119,0,119,0,,,,,,,,,,,,,,,,,,,,,,,,,,,,,,,,,,677.498737799935,678.5230600000359,676.5037917001173,676.5037917001173,676.5037917001173,676.5037917001173,old_sceneOut_48.png,120,5.0,0.9968957002274692,,,,079,00,2025-06-12_16h35.55.337,Surprise recog test,2023.1.3,59.96203211514388,
120,0,120,0,,,,,,,,,,,,,,,,,,,,,,,,,,,,,,,,,,680.158814500086,,678.5230600000359,678.5230600000359,678.5230600000359,678.5230600000359,old_fruit_2.png,121,1.0,1.6369534996338189,,,,079,00,2025-06-12_16h35.55.337,Surprise recog test,2023.1.3,59.96203211514388,
121,0,121,0,,,,,,,,,,,,,,,,,,,,,,,,,,,,,,,,,,682.8506275000982,683.8824706999585,681.1894072000869,681.1894072000869,681.1894072000869,681.1894072000869,old_sceneOut_35.png,122,5.0,1.661939200013876,,,,079,00,2025-06-12_16h35.55.337,Surprise recog test,2023.1.3,59.96203211514388,
122,0,122,0,,,,,,,,,,,,,,,,,,,,,,,,,,,,,,,,,,685.2281545000151,686.2418243000284,683.8824706999585,683.8824706999585,683.8824706999585,683.8824706999585,old_sceneOut_23.png,123,5.0,1.3504472998902202,,,,079,00,2025-06-12_16h35.55.337,Surprise recog test,2023.1.3,59.96203211514388,
123,0,123,0,,,,,,,,,,,,,,,,,,,,,,,,,,,,,,,,,,688.9965471001342,690.004280900117,686.2418243000284,686.2418243000284,686.2418243000284,686.2418243000284,old_fruit_9.png,124,1.0,2.7558903000317514,,,,079,00,2025-06-12_16h35.55.337,Surprise recog test,2023.1.3,59.96203211514388,
124,0,124,0,,,,,,,,,,,,,,,,,,,,,,,,,,,,,,,,,,691.8357903999276,,690.004280900117,690.004280900117,690.004280900117,690.004280900117,new_sceneIn_5.png,125,5.0,1.8253846000880003,,,,079,00,2025-06-12_16h35.55.337,Surprise recog test,2023.1.3,59.96203211514388,
125,0,125,0,,,,,,,,,,,,,,,,,,,,,,,,,,,,,,,,,,694.8229787000455,695.8395783999003,692.868586699944,692.868586699944,692.868586699944,692.868586699944,new_stationery_45.png,126,5.0,1.9558132998645306,,,,079,00,2025-06-12_16h35.55.337,Surprise recog test,2023.1.3,59.96203211514388,
126,0,126,0,,,,,,,,,,,,,,,,,,,,,,,,,,,,,,,,,,696.985889500007,697.9944326002151,695.8395783999003,695.8395783999003,695.8395783999003,695.8395783999003,new_sceneOut_39.png,127,5.0,1.142706099897623,,,,079,00,2025-06-12_16h35.55.337,Surprise recog test,2023.1.3,59.96203211514388,
127,0,127,0,,,,,,,,,,,,,,,,,,,,,,,,,,,,,,,,,,698.8426211001351,,697.9944326002151,697.9944326002151,697.9944326002151,697.9944326002151,new_sceneOut_36.png,128,5.0,0.8348940000869334,,,,079,00,2025-06-12_16h35.55.337,Surprise recog test,2023.1.3,59.96203211514388,
128,0,128,0,,,,,,,,,,,,,,,,,,,,,,,,,,,,,,,,,,702.0740567999892,703.0857918998227,699.8782561998814,699.8782561998814,699.8782561998814,699.8782561998814,new_sceneIn_43.png,129,5.0,2.201094999909401,,,,079,00,2025-06-12_16h35.55.337,Surprise recog test,2023.1.3,59.96203211514388,
129,0,129,0,,,,,,,,,,,,,,,,,,,,,,,,,,,,,,,,,,705.1430895999074,706.1522348998114,703.0857918998227,703.0857918998227,703.0857918998227,703.0857918998227,old_fruit_40.png,130,2.0,2.0500297001563013,,,,079,00,2025-06-12_16h35.55.337,Surprise recog test,2023.1.3,59.96203211514388,
130,0,130,0,,,,,,,,,,,,,,,,,,,,,,,,,,,,,,,,,,707.6421839999966,708.6677749999799,706.1522348998114,706.1522348998114,706.1522348998114,706.1522348998114,old_sceneIn_14.png,131,5.0,1.4860367998480797,,,,079,00,2025-06-12_16h35.55.337,Surprise recog test,2023.1.3,59.96203211514388,
131,0,131,0,,,,,,,,,,,,,,,,,,,,,,,,,,,,,,,,,,712.3081521000713,713.3360970001668,708.6677749999799,708.6677749999799,708.6677749999799,708.6677749999799,old_stationery_26.png,132,4.0,3.6439202004112303,,,,079,00,2025-06-12_16h35.55.337,Surprise recog test,2023.1.3,59.96203211514388,
132,0,132,0,,,,,,,,,,,,,,,,,,,,,,,,,,,,,,,,,,714.4584647999145,715.4870922998525,713.3360970001668,713.3360970001668,713.3360970001668,713.3360970001668,old_sceneIn_20.png,133,5.0,1.126271900255233,,,,079,00,2025-06-12_16h35.55.337,Surprise recog test,2023.1.3,59.96203211514388,
133,0,133,0,,,,,,,,,,,,,,,,,,,,,,,,,,,,,,,,,,716.2837745998986,717.2993263998069,715.4870922998525,715.4870922998525,715.4870922998525,715.4870922998525,old_sceneOut_27.png,134,5.0,0.7992805996909738,,,,079,00,2025-06-12_16h35.55.337,Surprise recog test,2023.1.3,59.96203211514388,
134,0,134,0,,,,,,,,,,,,,,,,,,,,,,,,,,,,,,,,,,718.082568900194,719.1012125001289,717.2993263998069,717.2993263998069,717.2993263998069,717.2993263998069,old_sceneIn_33.png,135,5.0,0.7808883995749056,,,,079,00,2025-06-12_16h35.55.337,Surprise recog test,2023.1.3,59.96203211514388,
135,0,135,0,,,,,,,,,,,,,,,,,,,,,,,,,,,,,,,,,,719.9733664998785,720.9800089001656,719.1012125001289,719.1012125001289,719.1012125001289,719.1012125001289,old_stationery_12.png,136,5.0,0.8729057996533811,,,,079,00,2025-06-12_16h35.55.337,Surprise recog test,2023.1.3,59.96203211514388,
136,0,136,0,,,,,,,,,,,,,,,,,,,,,,,,,,,,,,,,,,721.8868863000534,722.9117008000612,720.9800089001656,720.9800089001656,720.9800089001656,720.9800089001656,old_sceneIn_17.png,137,5.0,0.9023905000649393,,,,079,00,2025-06-12_16h35.55.337,Surprise recog test,2023.1.3,59.96203211514388,
137,0,137,0,,,,,,,,,,,,,,,,,,,,,,,,,,,,,,,,,,725.1027504000813,726.1297932001762,722.9117008000612,722.9117008000612,722.9117008000612,722.9117008000612,old_fruit_45.png,138,4.0,2.193101099692285,,,,079,00,2025-06-12_16h35.55.337,Surprise recog test,2023.1.3,59.96203211514388,
138,0,138,0,,,,,,,,,,,,,,,,,,,,,,,,,,,,,,,,,,727.8878982001916,728.9144355999306,726.1297932001762,726.1297932001762,726.1297932001762,726.1297932001762,old_sceneOut_30.png,139,5.0,1.757876600138843,,,,079,00,2025-06-12_16h35.55.337,Surprise recog test,2023.1.3,59.96203211514388,
139,0,139,0,,,,,,,,,,,,,,,,,,,,,,,,,,,,,,,,,,729.8205101001076,730.8465646002442,728.9144355999306,728.9144355999306,728.9144355999306,728.9144355999306,new_sceneIn_14.png,140,5.0,0.9059692001901567,,,,079,00,2025-06-12_16h35.55.337,Surprise recog test,2023.1.3,59.96203211514388,
140,0,140,0,,,,,,,,,,,,,,,,,,,,,,,,,,,,,,,,,,731.6734628002159,732.6965449000709,730.8465646002442,730.8465646002442,730.8465646002442,730.8465646002442,old_stationery_2.png,141,5.0,0.8275712998583913,,,,079,00,2025-06-12_16h35.55.337,Surprise recog test,2023.1.3,59.96203211514388,
141,0,141,0,,,,,,,,,,,,,,,,,,,,,,,,,,,,,,,,,,733.54333460005,734.5642869998701,732.6965449000709,732.6965449000709,732.6965449000709,732.6965449000709,old_sceneIn_39.png,142,5.0,0.8480798997916281,,,,079,00,2025-06-12_16h35.55.337,Surprise recog test,2023.1.3,59.96203211514388,
142,0,142,0,,,,,,,,,,,,,,,,,,,,,,,,,,,,,,,,,,735.3869735002518,,734.5642869998701,734.5642869998701,734.5642869998701,734.5642869998701,old_sceneOut_6.png,143,5.0,0.8190294997766614,,,,079,00,2025-06-12_16h35.55.337,Surprise recog test,2023.1.3,59.96203211514388,
143,0,143,0,,,,,,,,,,,,,,,,,,,,,,,,,,,,,,,,,,739.6499848999083,740.6633295998909,736.4164652000181,736.4164652000181,736.4164652000181,736.4164652000181,new_fruit_21.png,144,3.0,3.2352070999331772,,,,079,00,2025-06-12_16h35.55.337,Surprise recog test,2023.1.3,59.96203211514388,
144,0,144,0,,,,,,,,,,,,,,,,,,,,,,,,,,,,,,,,,,741.8330286000855,742.8450536997989,740.6633295998909,740.6633295998909,740.6633295998909,740.6633295998909,new_stationery_25.png,145,5.0,1.1671251999214292,,,,079,00,2025-06-12_16h35.55.337,Surprise recog test,2023.1.3,59.96203211514388,
145,0,145,0,,,,,,,,,,,,,,,,,,,,,,,,,,,,,,,,,,743.7988105998375,744.8326445999555,742.8450536997989,742.8450536997989,742.8450536997989,742.8450536997989,new_fruit_41.png,146,5.0,0.9492218997329473,,,,079,00,2025-06-12_16h35.55.337,Surprise recog test,2023.1.3,59.96203211514388,
146,0,146,0,,,,,,,,,,,,,,,,,,,,,,,,,,,,,,,,,,745.8048089998774,746.8346375999972,744.8326445999555,744.8326445999555,744.8326445999555,744.8326445999555,new_stationery_31.png,147,5.0,0.9741081004031003,,,,079,00,2025-06-12_16h35.55.337,Surprise recog test,2023.1.3,59.96203211514388,
147,0,147,0,,,,,,,,,,,,,,,,,,,,,,,,,,,,,,,,,,747.6961354999803,748.7055270001292,746.8346375999972,746.8346375999972,746.8346375999972,746.8346375999972,old_sceneOut_1.png,148,5.0,0.8648908999748528,,,,079,00,2025-06-12_16h35.55.337,Surprise recog test,2023.1.3,59.96203211514388,
148,0,148,0,,,,,,,,,,,,,,,,,,,,,,,,,,,,,,,,,,749.839302400127,750.8679360002279,748.7055270001292,748.7055270001292,748.7055270001292,748.7055270001292,old_stationery_45.png,149,5.0,1.1327096000313759,,,,079,00,2025-06-12_16h35.55.337,Surprise recog test,2023.1.3,59.96203211514388,
149,0,149,0,,,,,,,,,,,,,,,,,,,,,,,,,,,,,,,,,,751.9153598002158,752.935175999999,750.8679360002279,750.8679360002279,750.8679360002279,750.8679360002279,new_stationery_42.png,150,5.0,1.0427447999827564,,,,079,00,2025-06-12_16h35.55.337,Surprise recog test,2023.1.3,59.96203211514388,
150,0,150,0,,,,,,,,,,,,,,,,,,,,,,,,,,,,,,,,,,753.7719686999917,754.8027302999981,752.935175999999,752.935175999999,752.935175999999,752.935175999999,old_sceneOut_10.png,151,5.0,0.8370358999818563,,,,079,00,2025-06-12_16h35.55.337,Surprise recog test,2023.1.3,59.96203211514388,
151,0,151,0,,,,,,,,,,,,,,,,,,,,,,,,,,,,,,,,,,759.6882521999069,760.6936877998523,754.8027302999981,754.8027302999981,754.8027302999981,754.8027302999981,new_fruit_15.png,152,4.0,4.887595299631357,,,,079,00,2025-06-12_16h35.55.337,Surprise recog test,2023.1.3,59.96203211514388,
152,0,152,0,,,,,,,,,,,,,,,,,,,,,,,,,,,,,,,,,,762.6286300001666,,760.6936877998523,760.6936877998523,760.6936877998523,760.6936877998523,old_sceneIn_7.png,153,5.0,1.9307240997441113,,,,079,00,2025-06-12_16h35.55.337,Surprise recog test,2023.1.3,59.96203211514388,
153,0,153,0,,,,,,,,,,,,,,,,,,,,,,,,,,,,,,,,,,764.5453790999018,,763.6593892998062,763.6593892998062,763.6593892998062,763.6593892998062,old_sceneIn_2.png,154,5.0,0.8863737997598946,,,,079,00,2025-06-12_16h35.55.337,Surprise recog test,2023.1.3,59.96203211514388,
154,0,154,0,,,,,,,,,,,,,,,,,,,,,,,,,,,,,,,,,,768.9368332000449,769.9543858999386,765.5770005001687,765.5770005001687,765.5770005001687,765.5770005001687,old_stationery_8.png,155,5.0,3.36011919984594,,,,079,00,2025-06-12_16h35.55.337,Surprise recog test,2023.1.3,59.96203211514388,
155,0,155,0,,,,,,,,,,,,,,,,,,,,,,,,,,,,,,,,,,770.7224765000865,771.7457392001525,769.9543858999386,769.9543858999386,769.9543858999386,769.9543858999386,new_sceneOut_2.png,156,5.0,0.7630781996995211,,,,079,00,2025-06-12_16h35.55.337,Surprise recog test,2023.1.3,59.96203211514388,
156,0,156,0,,,,,,,,,,,,,,,,,,,,,,,,,,,,,,,,,,775.5803979001939,776.5913502001204,771.7457392001525,771.7457392001525,771.7457392001525,771.7457392001525,old_fruit_28.png,157,2.0,3.8364212000742555,,,,079,00,2025-06-12_16h35.55.337,Surprise recog test,2023.1.3,59.96203211514388,
157,0,157,0,,,,,,,,,,,,,,,,,,,,,,,,,,,,,,,,,,779.0900874999352,,776.5913502001204,776.5913502001204,776.5913502001204,776.5913502001204,new_stationery_15.png,158,5.0,2.494090300053358,,,,079,00,2025-06-12_16h35.55.337,Surprise recog test,2023.1.3,59.96203211514388,
158,0,158,0,,,,,,,,,,,,,,,,,,,,,,,,,,,,,,,,,,782.3662543999963,783.3919677999802,780.1246743001975,780.1246743001975,780.1246743001975,780.1246743001975,new_fruit_9.png,159,4.0,2.242684599943459,,,,079,00,2025-06-12_16h35.55.337,Surprise recog test,2023.1.3,59.96203211514388,
159,0,159,0,,,,,,,,,,,,,,,,,,,,,,,,,,,,,,,,,,787.6382197001949,788.6663621999323,783.3919677999802,783.3919677999802,783.3919677999802,783.3919677999802,old_fruit_4.png,160,2.0,4.247126500122249,,,,079,00,2025-06-12_16h35.55.337,Surprise recog test,2023.1.3,59.96203211514388,
160,0,160,0,,,,,,,,,,,,,,,,,,,,,,,,,,,,,,,,,,790.0638747001067,791.0818690001033,788.6663621999323,788.6663621999323,788.6663621999323,788.6663621999323,new_stationery_19.png,161,5.0,1.3987644999288023,,,,079,00,2025-06-12_16h35.55.337,Surprise recog test,2023.1.3,59.96203211514388,
161,0,161,0,,,,,,,,,,,,,,,,,,,,,,,,,,,,,,,,,,791.8975049001165,792.9155878000893,791.0818690001033,791.0818690001033,791.0818690001033,791.0818690001033,new_sceneIn_38.png,162,5.0,0.8183368998579681,,,,079,00,2025-06-12_16h35.55.337,Surprise recog test,2023.1.3,59.96203211514388,
162,0,162,0,,,,,,,,,,,,,,,,,,,,,,,,,,,,,,,,,,795.1012931000441,796.1210231999867,792.9155878000893,792.9155878000893,792.9155878000893,792.9155878000893,old_fruit_15.png,163,1.0,2.1869397000409663,,,,079,00,2025-06-12_16h35.55.337,Surprise recog test,2023.1.3,59.96203211514388,
163,0,163,0,,,,,,,,,,,,,,,,,,,,,,,,,,,,,,,,,,799.1430023000576,800.1619029999711,796.1210231999867,796.1210231999867,796.1210231999867,796.1210231999867,new_sceneIn_2.png,164,5.0,3.0240326998755336,,,,079,00,2025-06-12_16h35.55.337,Surprise recog test,2023.1.3,59.96203211514388,
164,0,164,0,,,,,,,,,,,,,,,,,,,,,,,,,,,,,,,,,,805.1612510001287,,800.1619029999711,800.1619029999711,800.1619029999711,800.1619029999711,new_fruit_49.png,165,None,None,805.1475054998882,,,079,00,2025-06-12_16h35.55.337,Surprise recog test,2023.1.3,59.96203211514388,
165,0,165,0,,,,,,,,,,,,,,,,,,,,,,,,,,,,,,,,,,808.201043299865,809.2288152999245,806.1783707002178,806.1783707002178,806.1783707002178,806.1783707002178,old_fruit_35.png,166,3.0,2.019967300351709,,,,079,00,2025-06-12_16h35.55.337,Surprise recog test,2023.1.3,59.96203211514388,
166,0,166,0,,,,,,,,,,,,,,,,,,,,,,,,,,,,,,,,,,810.6237951000221,811.6489466000348,809.2288152999245,809.2288152999245,809.2288152999245,809.2288152999245,old_sceneIn_11.png,167,5.0,1.3965360997244716,,,,079,00,2025-06-12_16h35.55.337,Surprise recog test,2023.1.3,59.96203211514388,
167,0,167,0,,,,,,,,,,,,,,,,,,,,,,,,,,,,,,,,,,815.4984296001494,816.5233677998185,811.6489466000348,811.6489466000348,811.6489466000348,811.6489466000348,old_fruit_32.png,168,4.0,3.8523737997747958,,,,079,00,2025-06-12_16h35.55.337,Surprise recog test,2023.1.3,59.96203211514388,
168,0,168,0,,,,,,,,,,,,,,,,,,,,,,,,,,,,,,,,,,819.2540489998646,820.2638942999765,816.5233677998185,816.5233677998185,816.5233677998185,816.5233677998185,old_sceneOut_31.png,169,5.0,2.733185699675232,,,,079,00,2025-06-12_16h35.55.337,Surprise recog test,2023.1.3,59.96203211514388,
169,0,169,0,,,,,,,,,,,,,,,,,,,,,,,,,,,,,,,,,,822.2723550000228,823.2961467001587,820.2638942999765,820.2638942999765,820.2638942999765,820.2638942999765,old_fruit_8.png,170,1.0,2.002039600163698,,,,079,00,2025-06-12_16h35.55.337,Surprise recog test,2023.1.3,59.96203211514388,
170,0,170,0,,,,,,,,,,,,,,,,,,,,,,,,,,,,,,,,,,825.1659597000107,826.1844315999188,823.2961467001587,823.2961467001587,823.2961467001587,823.2961467001587,old_sceneOut_33.png,171,5.0,1.8737965002655983,,,,079,00,2025-06-12_16h35.55.337,Surprise recog test,2023.1.3,59.96203211514388,
171,0,171,0,,,,,,,,,,,,,,,,,,,,,,,,,,,,,,,,,,827.0663976999931,828.0989973000251,826.1844315999188,826.1844315999188,826.1844315999188,826.1844315999188,old_sceneOut_14.png,172,5.0,0.8752457001246512,,,,079,00,2025-06-12_16h35.55.337,Surprise recog test,2023.1.3,59.96203211514388,
172,0,172,0,,,,,,,,,,,,,,,,,,,,,,,,,,,,,,,,,,829.2712087999098,830.299451299943,828.0989973000251,828.0989973000251,828.0989973000251,828.0989973000251,new_sceneOut_11.png,173,5.0,1.1725068003870547,,,,079,00,2025-06-12_16h35.55.337,Surprise recog test,2023.1.3,59.96203211514388,
173,0,173,0,,,,,,,,,,,,,,,,,,,,,,,,,,,,,,,,,,831.26463040011,832.2865448999219,830.299451299943,830.299451299943,830.299451299943,830.299451299943,old_stationery_35.png,174,5.0,0.9616698999889195,,,,079,00,2025-06-12_16h35.55.337,Surprise recog test,2023.1.3,59.96203211514388,
174,0,174,0,,,,,,,,,,,,,,,,,,,,,,,,,,,,,,,,,,833.3847423000261,834.3917457000352,832.2865448999219,832.2865448999219,832.2865448999219,832.2865448999219,new_sceneIn_45.png,175,5.0,1.1001380002126098,,,,079,00,2025-06-12_16h35.55.337,Surprise recog test,2023.1.3,59.96203211514388,
175,0,175,0,,,,,,,,,,,,,,,,,,,,,,,,,,,,,,,,,,835.3213909999467,,834.3917457000352,834.3917457000352,834.3917457000352,834.3917457000352,old_stationery_43.png,176,5.0,0.9244317002594471,,,,079,00,2025-06-12_16h35.55.337,Surprise recog test,2023.1.3,59.96203211514388,
176,0,176,0,,,,,,,,,,,,,,,,,,,,,,,,,,,,,,,,,,838.3677725000307,839.391829200089,836.3420092002489,836.3420092002489,836.3420092002489,836.3420092002489,old_stationery_34.png,177,4.0,2.021579200401902,,,,079,00,2025-06-12_16h35.55.337,Surprise recog test,2023.1.3,59.96203211514388,
177,0,177,0,,,,,,,,,,,,,,,,,,,,,,,,,,,,,,,,,,840.3653313000686,841.3894285000861,839.391829200089,839.391829200089,839.391829200089,839.391829200089,old_sceneIn_10.png,178,5.0,0.9753183000721037,,,,079,00,2025-06-12_16h35.55.337,Surprise recog test,2023.1.3,59.96203211514388,
178,0,178,0,,,,,,,,,,,,,,,,,,,,,,,,,,,,,,,,,,842.2570189000107,843.2636346998625,841.3894285000861,841.3894285000861,841.3894285000861,841.3894285000861,old_sceneIn_45.png,179,5.0,0.8643513000570238,,,,079,00,2025-06-12_16h35.55.337,Surprise recog test,2023.1.3,59.96203211514388,
179,0,179,0,,,,,,,,,,,,,,,,,,,,,,,,,,,,,,,,,,844.1754552000202,845.1804658998735,843.2636346998625,843.2636346998625,843.2636346998625,843.2636346998625,new_stationery_7.png,180,5.0,0.9035652996972203,,,,079,00,2025-06-12_16h35.55.337,Surprise recog test,2023.1.3,59.96203211514388,
180,0,180,0,,,,,,,,,,,,,,,,,,,,,,,,,,,,,,,,,,846.260308300145,847.2647064998746,845.1804658998735,845.1804658998735,845.1804658998735,845.1804658998735,old_sceneIn_8.png,181,5.0,1.0699724000878632,,,,079,00,2025-06-12_16h35.55.337,Surprise recog test,2023.1.3,59.96203211514388,
181,0,181,0,,,,,,,,,,,,,,,,,,,,,,,,,,,,,,,,,,850.5472452999093,851.5520772999153,847.2647064998746,847.2647064998746,847.2647064998746,847.2647064998746,old_fruit_30.png,182,4.0,3.272174700163305,,,,079,00,2025-06-12_16h35.55.337,Surprise recog test,2023.1.3,59.96203211514388,
182,0,182,0,,,,,,,,,,,,,,,,,,,,,,,,,,,,,,,,,,853.4830423002131,854.4876631000079,851.5520772999153,851.5520772999153,851.5520772999153,851.5520772999153,new_sceneOut_25.png,183,5.0,1.9206823999993503,,,,079,00,2025-06-12_16h35.55.337,Surprise recog test,2023.1.3,59.96203211514388,
183,0,183,0,,,,,,,,,,,,,,,,,,,,,,,,,,,,,,,,,,855.3513273000717,856.3565346002579,854.4876631000079,854.4876631000079,854.4876631000079,854.4876631000079,old_stationery_25.png,184,5.0,0.8531047999858856,,,,079,00,2025-06-12_16h35.55.337,Surprise recog test,2023.1.3,59.96203211514388,
184,0,184,0,,,,,,,,,,,,,,,,,,,,,,,,,,,,,,,,,,857.219432100188,858.2245036000386,856.3565346002579,856.3565346002579,856.3565346002579,856.3565346002579,new_sceneIn_46.png,185,5.0,0.853246399667114,,,,079,00,2025-06-12_16h35.55.337,Surprise recog test,2023.1.3,59.96203211514388,
185,0,185,0,,,,,,,,,,,,,,,,,,,,,,,,,,,,,,,,,,858.9876063000411,859.9921121001244,858.2245036000386,858.2245036000386,858.2245036000386,858.2245036000386,new_sceneOut_50.png,186,5.0,0.7554755001328886,,,,079,00,2025-06-12_16h35.55.337,Surprise recog test,2023.1.3,59.96203211514388,
186,0,186,0,,,,,,,,,,,,,,,,,,,,,,,,,,,,,,,,,,862.6572664999403,863.6621371000074,859.9921121001244,859.9921121001244,859.9921121001244,859.9921121001244,new_stationery_27.png,187,5.0,2.6548075997270644,,,,079,00,2025-06-12_16h35.55.337,Surprise recog test,2023.1.3,59.96203211514388,
187,0,187,0,,,,,,,,,,,,,,,,,,,,,,,,,,,,,,,,,,866.043467100244,867.0479538999498,863.6621371000074,863.6621371000074,863.6621371000074,863.6621371000074,new_fruit_3.png,188,2.0,2.3709995998069644,,,,079,00,2025-06-12_16h35.55.337,Surprise recog test,2023.1.3,59.96203211514388,
188,0,188,0,,,,,,,,,,,,,,,,,,,,,,,,,,,,,,,,,,869.446469000075,870.4519360000268,867.0479538999498,867.0479538999498,867.0479538999498,867.0479538999498,old_fruit_27.png,189,5.0,2.3890378000214696,,,,079,00,2025-06-12_16h35.55.337,Surprise recog test,2023.1.3,59.96203211514388,
189,0,189,0,,,,,,,,,,,,,,,,,,,,,,,,,,,,,,,,,,871.3979401998222,872.4030345999636,870.4519360000268,870.4519360000268,870.4519360000268,870.4519360000268,old_sceneIn_50.png,190,5.0,0.9367750999517739,,,,079,00,2025-06-12_16h35.55.337,Surprise recog test,2023.1.3,59.96203211514388,
190,0,190,0,,,,,,,,,,,,,,,,,,,,,,,,,,,,,,,,,,873.4329335000366,874.4394848998636,872.4030345999636,872.4030345999636,872.4030345999636,872.4030345999636,new_sceneOut_26.png,191,5.0,1.019813199993223,,,,079,00,2025-06-12_16h35.55.337,Surprise recog test,2023.1.3,59.96203211514388,
191,0,191,0,,,,,,,,,,,,,,,,,,,,,,,,,,,,,,,,,,875.2510957000777,876.2565695000812,874.4394848998636,874.4394848998636,874.4394848998636,874.4394848998636,old_sceneOut_34.png,192,5.0,0.8019083999097347,,,,079,00,2025-06-12_16h35.55.337,Surprise recog test,2023.1.3,59.96203211514388,
192,0,192,0,,,,,,,,,,,,,,,,,,,,,,,,,,,,,,,,,,877.1360343000852,878.1405223999172,876.2565695000812,876.2565695000812,876.2565695000812,876.2565695000812,old_sceneIn_40.png,193,5.0,0.8702341001480818,,,,079,00,2025-06-12_16h35.55.337,Surprise recog test,2023.1.3,59.96203211514388,
193,0,193,0,,,,,,,,,,,,,,,,,,,,,,,,,,,,,,,,,,879.7382335998118,880.7435059002601,878.1405223999172,878.1405223999172,878.1405223999172,878.1405223999172,old_stationery_44.png,194,5.0,1.5874934997409582,,,,079,00,2025-06-12_16h35.55.337,Surprise recog test,2023.1.3,59.96203211514388,
194,0,194,0,,,,,,,,,,,,,,,,,,,,,,,,,,,,,,,,,,883.1410284000449,884.1459968001582,880.7435059002601,880.7435059002601,880.7435059002601,880.7435059002601,new_fruit_22.png,195,5.0,2.3875598004087806,,,,079,00,2025-06-12_16h35.55.337,Surprise recog test,2023.1.3,59.96203211514388,
195,0,195,0,,,,,,,,,,,,,,,,,,,,,,,,,,,,,,,,,,884.8757287999615,885.8817704999819,884.1459968001582,884.1459968001582,884.1459968001582,884.1459968001582,new_sceneOut_6.png,196,5.0,0.7198756001889706,,,,079,00,2025-06-12_16h35.55.337,Surprise recog test,2023.1.3,59.96203211514388,
196,0,196,0,,,,,,,,,,,,,,,,,,,,,,,,,,,,,,,,,,886.9107615998946,887.9160676999018,885.8817704999819,885.8817704999819,885.8817704999819,885.8817704999819,new_sceneOut_48.png,197,5.0,1.0198983000591397,,,,079,00,2025-06-12_16h35.55.337,Surprise recog test,2023.1.3,59.96203211514388,
197,0,197,0,,,,,,,,,,,,,,,,,,,,,,,,,,,,,,,,,,888.9625456999056,889.9675576998852,887.9160676999018,887.9160676999018,887.9160676999018,887.9160676999018,old_fruit_3.png,198,5.0,1.03753300011158,,,,079,00,2025-06-12_16h35.55.337,Surprise recog test,2023.1.3,59.96203211514388,
198,0,198,0,,,,,,,,,,,,,,,,,,,,,,,,,,,,,,,,,,890.7973826001398,891.8035550001077,889.9675576998852,889.9675576998852,889.9675576998852,889.9675576998852,new_stationery_37.png,199,5.0,0.8200827999971807,,,,079,00,2025-06-12_16h35.55.337,Surprise recog test,2023.1.3,59.96203211514388,
199,0,199,0,,,,,,,,,,,,,,,,,,,,,,,,,,,,,,,,,,892.8398114000447,893.854381499812,891.8035550001077,891.8035550001077,891.8035550001077,891.8035550001077,new_stationery_20.png,200,5.0,1.0334816998802125,,,,079,00,2025-06-12_16h35.55.337,Surprise recog test,2023.1.3,59.96203211514388,
200,0,200,0,,,,,,,,,,,,,,,,,,,,,,,,,,,,,,,,,,894.6339890998788,895.6428990000859,893.854381499812,893.854381499812,893.854381499812,893.854381499812,new_sceneOut_13.png,201,5.0,0.7757598999887705,,,,079,00,2025-06-12_16h35.55.337,Surprise recog test,2023.1.3,59.96203211514388,
201,0,201,0,,,,,,,,,,,,,,,,,,,,,,,,,,,,,,,,,,896.6837098998949,897.7061854000203,895.6428990000859,895.6428990000859,895.6428990000859,895.6428990000859,new_sceneIn_28.png,202,5.0,1.036409500055015,,,,079,00,2025-06-12_16h35.55.337,Surprise recog test,2023.1.3,59.96203211514388,
202,0,202,0,,,,,,,,,,,,,,,,,,,,,,,,,,,,,,,,,,898.6089456998743,899.6409764001146,897.7061854000203,897.7061854000203,897.7061854000203,897.7061854000203,old_sceneOut_17.png,203,5.0,0.9049445996060967,,,,079,00,2025-06-12_16h35.55.337,Surprise recog test,2023.1.3,59.96203211514388,
203,0,203,0,,,,,,,,,,,,,,,,,,,,,,,,,,,,,,,,,,900.6760919000953,,899.6409764001146,899.6409764001146,899.6409764001146,899.6409764001146,new_sceneIn_37.png,204,5.0,1.0371526000089943,,,,079,00,2025-06-12_16h35.55.337,Surprise recog test,2023.1.3,59.96203211514388,
204,0,204,0,,,,,,,,,,,,,,,,,,,,,,,,,,,,,,,,,,904.8972570002079,905.9369100998156,901.7127257999964,901.7127257999964,901.7127257999964,901.7127257999964,old_fruit_36.png,205,3.0,3.1891251001507044,,,,079,00,2025-06-12_16h35.55.337,Surprise recog test,2023.1.3,59.96203211514388,
205,0,205,0,,,,,,,,,,,,,,,,,,,,,,,,,,,,,,,,,,906.9877157998271,908.0018197000027,905.9369100998156,905.9369100998156,905.9369100998156,905.9369100998156,new_sceneOut_38.png,206,5.0,1.0531152999028563,,,,079,00,2025-06-12_16h35.55.337,Surprise recog test,2023.1.3,59.96203211514388,
206,0,206,0,,,,,,,,,,,,,,,,,,,,,,,,,,,,,,,,,,912.1910259998403,913.2191504002549,908.0018197000027,908.0018197000027,908.0018197000027,908.0018197000027,old_fruit_48.png,207,3.0,4.183747299946845,,,,079,00,2025-06-12_16h35.55.337,Surprise recog test,2023.1.3,59.96203211514388,
207,0,207,0,,,,,,,,,,,,,,,,,,,,,,,,,,,,,,,,,,914.4659505998716,915.4865570999682,913.2191504002549,913.2191504002549,913.2191504002549,913.2191504002549,new_fruit_23.png,208,5.0,1.2484416998922825,,,,079,00,2025-06-12_16h35.55.337,Surprise recog test,2023.1.3,59.96203211514388,
208,0,208,0,,,,,,,,,,,,,,,,,,,,,,,,,,,,,,,,,,916.2603357001208,917.2899866998196,915.4865570999682,915.4865570999682,915.4865570999682,915.4865570999682,new_sceneIn_10.png,209,5.0,0.7773103998042643,,,,079,00,2025-06-12_16h35.55.337,Surprise recog test,2023.1.3,59.96203211514388,
209,0,209,0,,,,,,,,,,,,,,,,,,,,,,,,,,,,,,,,,,918.0735965999775,,917.2899866998196,917.2899866998196,917.2899866998196,917.2899866998196,old_sceneOut_20.png,210,5.0,0.7834731000475585,,,,079,00,2025-06-12_16h35.55.337,Surprise recog test,2023.1.3,59.96203211514388,
210,0,210,0,,,,,,,,,,,,,,,,,,,,,,,,,,,,,,,,,,922.1752487001941,923.1934732999653,919.1042315000668,919.1042315000668,919.1042315000668,919.1042315000668,old_fruit_22.png,211,2.0,3.0715378001332283,,,,079,00,2025-06-12_16h35.55.337,Surprise recog test,2023.1.3,59.96203211514388,
211,0,211,0,,,,,,,,,,,,,,,,,,,,,,,,,,,,,,,,,,924.692841200158,925.7008333001286,923.1934732999653,923.1934732999653,923.1934732999653,923.1934732999653,old_sceneOut_41.png,212,5.0,1.50232720002532,,,,079,00,2025-06-12_16h35.55.337,Surprise recog test,2023.1.3,59.96203211514388,
212,0,212,0,,,,,,,,,,,,,,,,,,,,,,,,,,,,,,,,,,927.4400789998472,928.4530410999432,925.7008333001286,925.7008333001286,925.7008333001286,925.7008333001286,old_stationery_1.png,213,5.0,1.734697500243783,,,,079,00,2025-06-12_16h35.55.337,Surprise recog test,2023.1.3,59.96203211514388,
213,0,213,0,,,,,,,,,,,,,,,,,,,,,,,,,,,,,,,,,,929.577809699811,930.5984097002074,928.4530410999432,928.4530410999432,928.4530410999432,928.4530410999432,new_fruit_26.png,214,5.0,1.1208359003067017,,,,079,00,2025-06-12_16h35.55.337,Surprise recog test,2023.1.3,59.96203211514388,
214,0,214,0,,,,,,,,,,,,,,,,,,,,,,,,,,,,,,,,,,931.9529869998805,932.9848346998915,930.5984097002074,930.5984097002074,930.5984097002074,930.5984097002074,new_fruit_25.png,215,5.0,1.355675600003451,,,,079,00,2025-06-12_16h35.55.337,Surprise recog test,2023.1.3,59.96203211514388,
215,0,215,0,,,,,,,,,,,,,,,,,,,,,,,,,,,,,,,,,,935.3524286998436,936.3691417998634,932.9848346998915,932.9848346998915,932.9848346998915,932.9848346998915,old_fruit_23.png,216,5.0,2.370160299818963,,,,079,00,2025-06-12_16h35.55.337,Surprise recog test,2023.1.3,59.96203211514388,
216,0,216,0,,,,,,,,,,,,,,,,,,,,,,,,,,,,,,,,,,937.2553507001139,,936.3691417998634,936.3691417998634,936.3691417998634,936.3691417998634,new_stationery_32.png,217,5.0,0.8861870002001524,,,,079,00,2025-06-12_16h35.55.337,Surprise recog test,2023.1.3,59.96203211514388,
217,0,217,0,,,,,,,,,,,,,,,,,,,,,,,,,,,,,,,,,,939.2836994999088,940.3036086000502,938.2878606999293,938.2878606999293,938.2878606999293,938.2878606999293,old_sceneOut_11.png,218,5.0,0.9949822002090514,,,,079,00,2025-06-12_16h35.55.337,Surprise recog test,2023.1.3,59.96203211514388,
218,0,218,0,,,,,,,,,,,,,,,,,,,,,,,,,,,,,,,,,,941.2345543000847,942.2547706998885,940.3036086000502,940.3036086000502,940.3036086000502,940.3036086000502,new_stationery_50.png,219,5.0,0.9323231000453234,,,,079,00,2025-06-12_16h35.55.337,Surprise recog test,2023.1.3,59.96203211514388,
219,0,219,0,,,,,,,,,,,,,,,,,,,,,,,,,,,,,,,,,,945.2553640999831,946.2785346000455,942.2547706998885,942.2547706998885,942.2547706998885,942.2547706998885,old_fruit_14.png,220,1.0,3.0027201999910176,,,,079,00,2025-06-12_16h35.55.337,Surprise recog test,2023.1.3,59.96203211514388,
220,0,220,0,,,,,,,,,,,,,,,,,,,,,,,,,,,,,,,,,,948.6122775999829,949.6337485001422,946.2785346000455,946.2785346000455,946.2785346000455,946.2785346000455,new_sceneOut_41.png,221,5.0,2.335273399949074,,,,079,00,2025-06-12_16h35.55.337,Surprise recog test,2023.1.3,59.96203211514388,
221,0,221,0,,,,,,,,,,,,,,,,,,,,,,,,,,,,,,,,,,950.5891285999678,951.6170859998092,949.6337485001422,949.6337485001422,949.6337485001422,949.6337485001422,new_sceneOut_24.png,222,5.0,0.9576609996147454,,,,079,00,2025-06-12_16h35.55.337,Surprise recog test,2023.1.3,59.96203211514388,
222,0,222,0,,,,,,,,,,,,,,,,,,,,,,,,,,,,,,,,,,952.6641090000048,953.685341599863,951.6170859998092,951.6170859998092,951.6170859998092,951.6170859998092,old_sceneOut_43.png,223,5.0,1.0488636000081897,,,,079,00,2025-06-12_16h35.55.337,Surprise recog test,2023.1.3,59.96203211514388,
223,0,223,0,,,,,,,,,,,,,,,,,,,,,,,,,,,,,,,,,,954.5067656999454,955.5383067000657,953.685341599863,953.685341599863,953.685341599863,953.685341599863,old_sceneOut_50.png,224,5.0,0.8235233998857439,,,,079,00,2025-06-12_16h35.55.337,Surprise recog test,2023.1.3,59.96203211514388,
224,0,224,0,,,,,,,,,,,,,,,,,,,,,,,,,,,,,,,,,,956.4085746998899,957.4269881001674,955.5383067000657,955.5383067000657,955.5383067000657,955.5383067000657,new_sceneIn_27.png,225,5.0,0.8721425998955965,,,,079,00,2025-06-12_16h35.55.337,Surprise recog test,2023.1.3,59.96203211514388,
225,0,225,0,,,,,,,,,,,,,,,,,,,,,,,,,,,,,,,,,,958.2993347002193,959.3263734001666,957.4269881001674,957.4269881001674,957.4269881001674,957.4269881001674,new_stationery_24.png,226,5.0,0.8680289997719228,,,,079,00,2025-06-12_16h35.55.337,Surprise recog test,2023.1.3,59.96203211514388,
226,0,226,0,,,,,,,,,,,,,,,,,,,,,,,,,,,,,,,,,,960.0293335001916,961.0466934000142,959.3263734001666,959.3263734001666,959.3263734001666,959.3263734001666,old_sceneOut_9.png,227,5.0,0.706676899921149,,,,079,00,2025-06-12_16h35.55.337,Surprise recog test,2023.1.3,59.96203211514388,
227,0,227,0,,,,,,,,,,,,,,,,,,,,,,,,,,,,,,,,,,961.9648217000067,962.989554699976,961.0466934000142,961.0466934000142,961.0466934000142,961.0466934000142,new_stationery_47.png,228,5.0,0.9141005999408662,,,,079,00,2025-06-12_16h35.55.337,Surprise recog test,2023.1.3,59.96203211514388,
228,0,228,0,,,,,,,,,,,,,,,,,,,,,,,,,,,,,,,,,,965.4997181999497,966.5253548999317,962.989554699976,962.989554699976,962.989554699976,962.989554699976,old_fruit_6.png,229,3.0,2.5067325001582503,,,,079,00,2025-06-12_16h35.55.337,Surprise recog test,2023.1.3,59.96203211514388,
229,0,229,0,,,,,,,,,,,,,,,,,,,,,,,,,,,,,,,,,,967.2413587998599,968.2622557999566,966.5253548999317,966.5253548999317,966.5253548999317,966.5253548999317,old_sceneIn_35.png,230,5.0,0.7168552000075579,,,,079,00,2025-06-12_16h35.55.337,Surprise recog test,2023.1.3,59.96203211514388,
230,0,230,0,,,,,,,,,,,,,,,,,,,,,,,,,,,,,,,,,,968.999083600007,,968.2622557999566,968.2622557999566,968.2622557999566,968.2622557999566,new_sceneIn_9.png,231,5.0,0.7378706000745296,,,,079,00,2025-06-12_16h35.55.337,Surprise recog test,2023.1.3,59.96203211514388,
231,0,231,0,,,,,,,,,,,,,,,,,,,,,,,,,,,,,,,,,,970.7592739998363,971.782678199932,970.0298693999648,970.0298693999648,970.0298693999648,970.0298693999648,old_sceneIn_21.png,232,5.0,0.7311387998051941,,,,079,00,2025-06-12_16h35.55.337,Surprise recog test,2023.1.3,59.96203211514388,
232,0,232,0,,,,,,,,,,,,,,,,,,,,,,,,,,,,,,,,,,972.4222412998788,973.4516576998867,971.782678199932,971.782678199932,971.782678199932,971.782678199932,old_sceneIn_42.png,233,5.0,0.6412750999443233,,,,079,00,2025-06-12_16h35.55.337,Surprise recog test,2023.1.3,59.96203211514388,
233,0,233,0,,,,,,,,,,,,,,,,,,,,,,,,,,,,,,,,,,974.425114700105,975.4424406001344,973.4516576998867,973.4516576998867,973.4516576998867,973.4516576998867,old_sceneIn_12.png,234,5.0,0.9758393000811338,,,,079,00,2025-06-12_16h35.55.337,Surprise recog test,2023.1.3,59.96203211514388,
234,0,234,0,,,,,,,,,,,,,,,,,,,,,,,,,,,,,,,,,,976.6023861002177,977.6209468999878,975.4424406001344,975.4424406001344,975.4424406001344,975.4424406001344,new_sceneIn_25.png,235,5.0,1.1505164997652173,,,,079,00,2025-06-12_16h35.55.337,Surprise recog test,2023.1.3,59.96203211514388,
235,0,235,0,,,,,,,,,,,,,,,,,,,,,,,,,,,,,,,,,,978.8466611998156,979.8728024000302,977.6209468999878,977.6209468999878,977.6209468999878,977.6209468999878,new_sceneIn_1.png,236,5.0,1.2243347000330687,,,,079,00,2025-06-12_16h35.55.337,Surprise recog test,2023.1.3,59.96203211514388,
236,0,236,0,,,,,,,,,,,,,,,,,,,,,,,,,,,,,,,,,,980.6720385001972,981.6924308999442,979.8728024000302,979.8728024000302,979.8728024000302,979.8728024000302,old_sceneIn_44.png,237,5.0,0.8002363997511566,,,,079,00,2025-06-12_16h35.55.337,Surprise recog test,2023.1.3,59.96203211514388,
237,0,237,0,,,,,,,,,,,,,,,,,,,,,,,,,,,,,,,,,,984.2771776998416,,981.6924308999442,981.6924308999442,981.6924308999442,981.6924308999442,old_fruit_50.png,238,3.0,2.586987799964845,,,,079,00,2025-06-12_16h35.55.337,Surprise recog test,2023.1.3,59.96203211514388,
238,0,238,0,,,,,,,,,,,,,,,,,,,,,,,,,,,,,,,,,,988.1609892998822,989.1842344999313,985.3130804002285,985.3130804002285,985.3130804002285,985.3130804002285,new_stationery_34.png,239,4.0,2.848760699853301,,,,079,00,2025-06-12_16h35.55.337,Surprise recog test,2023.1.3,59.96203211514388,
239,0,239,0,,,,,,,,,,,,,,,,,,,,,,,,,,,,,,,,,,990.4796547000296,991.4890883998014,989.1842344999313,989.1842344999313,989.1842344999313,989.1842344999313,new_stationery_12.png,240,4.0,1.2984706000424922,,,,079,00,2025-06-12_16h35.55.337,Surprise recog test,2023.1.3,59.96203211514388,
240,0,240,0,,,,,,,,,,,,,,,,,,,,,,,,,,,,,,,,,,992.1903845001943,993.2069618999958,991.4890883998014,991.4890883998014,991.4890883998014,991.4890883998014,old_sceneIn_41.png,241,5.0,0.6971201999112964,,,,079,00,2025-06-12_16h35.55.337,Surprise recog test,2023.1.3,59.96203211514388,
241,0,241,0,,,,,,,,,,,,,,,,,,,,,,,,,,,,,,,,,,993.9698230000213,,993.2069618999958,993.2069618999958,993.2069618999958,993.2069618999958,new_sceneIn_4.png,242,5.0,0.7576503003947437,,,,079,00,2025-06-12_16h35.55.337,Surprise recog test,2023.1.3,59.96203211514388,
242,0,242,0,,,,,,,,,,,,,,,,,,,,,,,,,,,,,,,,,,998.3676392999478,999.3881271998398,995.0038137999363,995.0038137999363,995.0038137999363,995.0038137999363,old_fruit_26.png,243,2.0,3.3661758000962436,,,,079,00,2025-06-12_16h35.55.337,Surprise recog test,2023.1.3,59.96203211514388,
243,0,243,0,,,,,,,,,,,,,,,,,,,,,,,,,,,,,,,,,,1000.77298410004,1001.7882699999027,999.3881271998398,999.3881271998398,999.3881271998398,999.3881271998398,new_stationery_17.png,244,5.0,1.3827949999831617,,,,079,00,2025-06-12_16h35.55.337,Surprise recog test,2023.1.3,59.96203211514388,
244,0,244,0,,,,,,,,,,,,,,,,,,,,,,,,,,,,,,,,,,1002.7150412001647,1003.7419559000991,1001.7882699999027,1001.7882699999027,1001.7882699999027,1001.7882699999027,new_sceneIn_8.png,245,5.0,0.9282523998990655,,,,079,00,2025-06-12_16h35.55.337,Surprise recog test,2023.1.3,59.96203211514388,
245,0,245,0,,,,,,,,,,,,,,,,,,,,,,,,,,,,,,,,,,1004.9763545999303,1005.9849173999391,1003.7419559000991,1003.7419559000991,1003.7419559000991,1003.7419559000991,new_sceneIn_11.png,246,5.0,1.233631200157106,,,,079,00,2025-06-12_16h35.55.337,Surprise recog test,2023.1.3,59.96203211514388,
246,0,246,0,,,,,,,,,,,,,,,,,,,,,,,,,,,,,,,,,,1007.200596800074,1008.2281239000149,1005.9849173999391,1005.9849173999391,1005.9849173999391,1005.9849173999391,old_sceneIn_31.png,247,5.0,1.213717000093311,,,,079,00,2025-06-12_16h35.55.337,Surprise recog test,2023.1.3,59.96203211514388,
247,0,247,0,,,,,,,,,,,,,,,,,,,,,,,,,,,,,,,,,,1010.3559566000476,1011.3829886000603,1008.2281239000149,1008.2281239000149,1008.2281239000149,1008.2281239000149,new_fruit_40.png,248,5.0,2.130349200218916,,,,079,00,2025-06-12_16h35.55.337,Surprise recog test,2023.1.3,59.96203211514388,
248,0,248,0,,,,,,,,,,,,,,,,,,,,,,,,,,,,,,,,,,1012.1347090001218,,1011.3829886000603,1011.3829886000603,1011.3829886000603,1011.3829886000603,old_sceneIn_13.png,249,5.0,0.7529966002330184,,,,079,00,2025-06-12_16h35.55.337,Surprise recog test,2023.1.3,59.96203211514388,
249,0,249,0,,,,,,,,,,,,,,,,,,,,,,,,,,,,,,,,,,1013.9865327998996,,1013.1559168999083,1013.1559168999083,1013.1559168999083,1013.1559168999083,new_sceneIn_3.png,250,5.0,0.8257903000339866,,,,079,00,2025-06-12_16h35.55.337,Surprise recog test,2023.1.3,59.96203211514388,
250,0,250,0,,,,,,,,,,,,,,,,,,,,,,,,,,,,,,,,,,1017.423890599981,,1015.0127681000158,1015.0127681000158,1015.0127681000158,1015.0127681000158,old_stationery_14.png,251,4.0,2.4090578998439014,,,,079,00,2025-06-12_16h35.55.337,Surprise recog test,2023.1.3,59.96203211514388,
251,0,251,0,,,,,,,,,,,,,,,,,,,,,,,,,,,,,,,,,,1019.4470283002593,1020.4741384000517,1018.4565094001591,1018.4565094001591,1018.4565094001591,1018.4565094001591,new_stationery_1.png,252,4.0,0.9933385998010635,,,,079,00,2025-06-12_16h35.55.337,Surprise recog test,2023.1.3,59.96203211514388,
252,0,252,0,,,,,,,,,,,,,,,,,,,,,,,,,,,,,,,,,,1021.4719055001624,1022.4806957999244,1020.4741384000517,1020.4741384000517,1020.4741384000517,1020.4741384000517,new_stationery_38.png,253,5.0,1.0011430997401476,,,,079,00,2025-06-12_16h35.55.337,Surprise recog test,2023.1.3,59.96203211514388,
253,0,253,0,,,,,,,,,,,,,,,,,,,,,,,,,,,,,,,,,,1024.348411399871,1025.3721969001926,1022.4806957999244,1022.4806957999244,1022.4806957999244,1022.4806957999244,old_fruit_16.png,254,1.0,1.8634409001097083,,,,079,00,2025-06-12_16h35.55.337,Surprise recog test,2023.1.3,59.96203211514388,
254,0,254,0,,,,,,,,,,,,,,,,,,,,,,,,,,,,,,,,,,1026.3418650999665,1027.364205900114,1025.3721969001926,1025.3721969001926,1025.3721969001926,1025.3721969001926,old_sceneIn_19.png,255,5.0,0.9697952996939421,,,,079,00,2025-06-12_16h35.55.337,Surprise recog test,2023.1.3,59.96203211514388,
255,0,255,0,,,,,,,,,,,,,,,,,,,,,,,,,,,,,,,,,,1029.403296700213,1030.434416399803,1027.364205900114,1027.364205900114,1027.364205900114,1027.364205900114,new_stationery_5.png,256,5.0,2.0408996995538473,,,,079,00,2025-06-12_16h35.55.337,Surprise recog test,2023.1.3,59.96203211514388,
256,0,256,0,,,,,,,,,,,,,,,,,,,,,,,,,,,,,,,,,,1031.632030500099,1032.6442797002383,1030.434416399803,1030.434416399803,1030.434416399803,1030.434416399803,new_fruit_20.png,257,5.0,1.1977908997796476,,,,079,00,2025-06-12_16h35.55.337,Surprise recog test,2023.1.3,59.96203211514388,
257,0,257,0,,,,,,,,,,,,,,,,,,,,,,,,,,,,,,,,,,1033.4147081002593,1034.435998099856,1032.6442797002383,1032.6442797002383,1032.6442797002383,1032.6442797002383,new_sceneOut_17.png,258,5.0,0.7683812999166548,,,,079,00,2025-06-12_16h35.55.337,Surprise recog test,2023.1.3,59.96203211514388,
258,0,258,0,,,,,,,,,,,,,,,,,,,,,,,,,,,,,,,,,,1035.3336808001623,1036.338919899892,1034.435998099856,1034.435998099856,1034.435998099856,1034.435998099856,new_sceneOut_12.png,259,5.0,0.8996272999793291,,,,079,00,2025-06-12_16h35.55.337,Surprise recog test,2023.1.3,59.96203211514388,
259,0,259,0,,,,,,,,,,,,,,,,,,,,,,,,,,,,,,,,,,1037.362433699891,1038.376907300204,1036.338919899892,1036.338919899892,1036.338919899892,1036.338919899892,old_sceneOut_46.png,260,5.0,1.019238400273025,,,,079,00,2025-06-12_16h35.55.337,Surprise recog test,2023.1.3,59.96203211514388,
260,0,260,0,,,,,,,,,,,,,,,,,,,,,,,,,,,,,,,,,,1039.390998700168,,1038.376907300204,1038.376907300204,1038.376907300204,1038.376907300204,old_stationery_24.png,261,5.0,1.0095009999349713,,,,079,00,2025-06-12_16h35.55.337,Surprise recog test,2023.1.3,59.96203211514388,
261,0,261,0,,,,,,,,,,,,,,,,,,,,,,,,,,,,,,,,,,1041.3973969002254,1042.42473219987,1040.4208113998175,1040.4208113998175,1040.4208113998175,1040.4208113998175,new_sceneIn_19.png,262,5.0,0.9756389004178345,,,,079,00,2025-06-12_16h35.55.337,Surprise recog test,2023.1.3,59.96203211514388,
262,0,262,0,,,,,,,,,,,,,,,,,,,,,,,,,,,,,,,,,,1044.581092200242,1045.6116686998866,1042.42473219987,1042.42473219987,1042.42473219987,1042.42473219987,old_fruit_39.png,263,3.0,2.15348679991439,,,,079,00,2025-06-12_16h35.55.337,Surprise recog test,2023.1.3,59.96203211514388,
263,0,263,0,,,,,,,,,,,,,,,,,,,,,,,,,,,,,,,,,,1046.8813550001942,,1045.6116686998866,1045.6116686998866,1045.6116686998866,1045.6116686998866,new_sceneIn_44.png,264,5.0,1.2700420003384352,,,,079,00,2025-06-12_16h35.55.337,Surprise recog test,2023.1.3,59.96203211514388,
264,0,264,0,,,,,,,,,,,,,,,,,,,,,,,,,,,,,,,,,,1049.0488923001103,,1047.9124532002024,1047.9124532002024,1047.9124532002024,1047.9124532002024,new_fruit_8.png,265,5.0,1.138319100253284,,,,079,00,2025-06-12_16h35.55.337,Surprise recog test,2023.1.3,59.96203211514388,
265,0,265,0,,,,,,,,,,,,,,,,,,,,,,,,,,,,,,,,,,1051.1732808998786,1052.2006224999204,1050.0702080000192,1050.0702080000192,1050.0702080000192,1050.0702080000192,old_sceneIn_37.png,266,5.0,1.0996098998002708,,,,079,00,2025-06-12_16h35.55.337,Surprise recog test,2023.1.3,59.96203211514388,
266,0,266,0,,,,,,,,,,,,,,,,,,,,,,,,,,,,,,,,,,1053.0392244998366,1054.0701669999398,1052.2006224999204,1052.2006224999204,1052.2006224999204,1052.2006224999204,new_stationery_14.png,267,5.0,0.8384353001601994,,,,079,00,2025-06-12_16h35.55.337,Surprise recog test,2023.1.3,59.96203211514388,
267,0,267,0,,,,,,,,,,,,,,,,,,,,,,,,,,,,,,,,,,1057.0669406000525,1058.0772881000303,1054.0701669999398,1054.0701669999398,1054.0701669999398,1054.0701669999398,old_fruit_41.png,268,1.0,2.998375799972564,,,,079,00,2025-06-12_16h35.55.337,Surprise recog test,2023.1.3,59.96203211514388,
268,0,268,0,,,,,,,,,,,,,,,,,,,,,,,,,,,,,,,,,,1059.4476699000224,1060.4633257999085,1058.0772881000303,1058.0772881000303,1058.0772881000303,1058.0772881000303,new_sceneIn_7.png,269,5.0,1.3666913001798093,,,,079,00,2025-06-12_16h35.55.337,Surprise recog test,2023.1.3,59.96203211514388,
269,0,269,0,,,,,,,,,,,,,,,,,,,,,,,,,,,,,,,,,,1061.241663500201,,1060.4633257999085,1060.4633257999085,1060.4633257999085,1060.4633257999085,old_sceneOut_5.png,270,5.0,0.7735820999369025,,,,079,00,2025-06-12_16h35.55.337,Surprise recog test,2023.1.3,59.96203211514388,
270,0,270,0,,,,,,,,,,,,,,,,,,,,,,,,,,,,,,,,,,1064.5444744001143,,1062.261649900116,1062.261649900116,1062.261649900116,1062.261649900116,old_stationery_5.png,271,5.0,2.279906699899584,,,,079,00,2025-06-12_16h35.55.337,Surprise recog test,2023.1.3,59.96203211514388,
271,0,271,0,,,,,,,,,,,,,,,,,,,,,,,,,,,,,,,,,,1066.408274800051,1067.4296467998065,1065.5786969000474,1065.5786969000474,1065.5786969000474,1065.5786969000474,new_stationery_44.png,272,5.0,0.8320545996539295,,,,079,00,2025-06-12_16h35.55.337,Surprise recog test,2023.1.3,59.96203211514388,
272,0,272,0,,,,,,,,,,,,,,,,,,,,,,,,,,,,,,,,,,1070.2544338000007,1071.2857098001987,1067.4296467998065,1067.4296467998065,1067.4296467998065,1067.4296467998065,old_stationery_50.png,273,2.0,2.8261827998794615,,,,079,00,2025-06-12_16h35.55.337,Surprise recog test,2023.1.3,59.96203211514388,
273,0,273,0,,,,,,,,,,,,,,,,,,,,,,,,,,,,,,,,,,1072.5031985999085,1073.5224264999852,1071.2857098001987,1071.2857098001987,1071.2857098001987,1071.2857098001987,old_stationery_33.png,274,5.0,1.2202824000269175,,,,079,00,2025-06-12_16h35.55.337,Surprise recog test,2023.1.3,59.96203211514388,
274,0,274,0,,,,,,,,,,,,,,,,,,,,,,,,,,,,,,,,,,1074.4869523001835,,1073.5224264999852,1073.5224264999852,1073.5224264999852,1073.5224264999852,new_stationery_16.png,275,5.0,0.9589243000373244,,,,079,00,2025-06-12_16h35.55.337,Surprise recog test,2023.1.3,59.96203211514388,
275,0,275,0,,,,,,,,,,,,,,,,,,,,,,,,,,,,,,,,,,1076.4890144998208,,1075.5081338998862,1075.5081338998862,1075.5081338998862,1075.5081338998862,old_stationery_7.png,276,5.0,0.9747937000356615,,,,079,00,2025-06-12_16h35.55.337,Surprise recog test,2023.1.3,59.96203211514388,
276,0,276,0,,,,,,,,,,,,,,,,,,,,,,,,,,,,,,,,,,1079.7967647002079,1080.8188900002278,1077.5225647999905,1077.5225647999905,1077.5225647999905,1077.5225647999905,new_fruit_4.png,277,5.0,2.2776031997054815,,,,079,00,2025-06-12_16h35.55.337,Surprise recog test,2023.1.3,59.96203211514388,
277,0,277,0,,,,,,,,,,,,,,,,,,,,,,,,,,,,,,,,,,1081.6612883000635,1082.6848929999396,1080.8188900002278,1080.8188900002278,1080.8188900002278,1080.8188900002278,old_sceneIn_27.png,278,5.0,0.84336580010131,,,,079,00,2025-06-12_16h35.55.337,Surprise recog test,2023.1.3,59.96203211514388,
278,0,278,0,,,,,,,,,,,,,,,,,,,,,,,,,,,,,,,,,,1084.5270295999944,1085.5437011001632,1082.6848929999396,1082.6848929999396,1082.6848929999396,1082.6848929999396,old_fruit_37.png,279,1.0,1.8423562999814749,,,,079,00,2025-06-12_16h35.55.337,Surprise recog test,2023.1.3,59.96203211514388,
279,0,279,0,,,,,,,,,,,,,,,,,,,,,,,,,,,,,,,,,,1086.4443859998137,1087.46257899981,1085.5437011001632,1085.5437011001632,1085.5437011001632,1085.5437011001632,new_sceneOut_29.png,280,5.0,0.9015651000663638,,,,079,00,2025-06-12_16h35.55.337,Surprise recog test,2023.1.3,59.96203211514388,
280,0,280,0,,,,,,,,,,,,,,,,,,,,,,,,,,,,,,,,,,1088.5592895001173,1089.58356729988,1087.46257899981,1087.46257899981,1087.46257899981,1087.46257899981,new_sceneIn_26.png,281,5.0,1.098577399738133,,,,079,00,2025-06-12_16h35.55.337,Surprise recog test,2023.1.3,59.96203211514388,
281,0,281,0,,,,,,,,,,,,,,,,,,,,,,,,,,,,,,,,,,1090.5657244999893,,1089.58356729988,1089.58356729988,1089.58356729988,1089.58356729988,old_stationery_47.png,282,5.0,0.9850487997755408,,,,079,00,2025-06-12_16h35.55.337,Surprise recog test,2023.1.3,59.96203211514388,
282,0,282,0,,,,,,,,,,,,,,,,,,,,,,,,,,,,,,,,,,1092.9024367998354,,1091.5994392000139,1091.5994392000139,1091.5994392000139,1091.5994392000139,new_fruit_10.png,283,5.0,1.3048328999429941,,,,079,00,2025-06-12_16h35.55.337,Surprise recog test,2023.1.3,59.96203211514388,
283,0,283,0,,,,,,,,,,,,,,,,,,,,,,,,,,,,,,,,,,1095.2057278999127,1096.2261533997953,1093.9342865999788,1093.9342865999788,1093.9342865999788,1093.9342865999788,old_sceneOut_21.png,284,5.0,1.2739233002066612,,,,079,00,2025-06-12_16h35.55.337,Surprise recog test,2023.1.3,59.96203211514388,
284,0,284,0,,,,,,,,,,,,,,,,,,,,,,,,,,,,,,,,,,1097.4192359000444,1098.4280234999023,1096.2261533997953,1096.2261533997953,1096.2261533997953,1096.2261533997953,old_sceneOut_47.png,285,5.0,1.1890202998183668,,,,079,00,2025-06-12_16h35.55.337,Surprise recog test,2023.1.3,59.96203211514388,
285,0,285,0,,,,,,,,,,,,,,,,,,,,,,,,,,,,,,,,,,1099.4043429000303,1100.4250401002355,1098.4280234999023,1098.4280234999023,1098.4280234999023,1098.4280234999023,old_sceneOut_7.png,286,5.0,0.9697961998172104,,,,079,00,2025-06-12_16h35.55.337,Surprise recog test,2023.1.3,59.96203211514388,
286,0,286,0,,,,,,,,,,,,,,,,,,,,,,,,,,,,,,,,,,1101.1836160002276,1102.2097145002335,1100.4250401002355,1100.4250401002355,1100.4250401002355,1100.4250401002355,new_stationery_4.png,287,5.0,0.7604286000132561,,,,079,00,2025-06-12_16h35.55.337,Surprise recog test,2023.1.3,59.96203211514388,
287,0,287,0,,,,,,,,,,,,,,,,,,,,,,,,,,,,,,,,,,1103.3119505001232,,1102.2097145002335,1102.2097145002335,1102.2097145002335,1102.2097145002335,new_sceneOut_46.png,288,5.0,1.101648600306362,,,,079,00,2025-06-12_16h35.55.337,Surprise recog test,2023.1.3,59.96203211514388,
288,0,288,0,,,,,,,,,,,,,,,,,,,,,,,,,,,,,,,,,,1105.8430220000446,1106.8507461999543,1104.3449166999198,1104.3449166999198,1104.3449166999198,1104.3449166999198,new_sceneIn_15.png,289,5.0,1.4991151997819543,,,,079,00,2025-06-12_16h35.55.337,Surprise recog test,2023.1.3,59.96203211514388,
289,0,289,0,,,,,,,,,,,,,,,,,,,,,,,,,,,,,,,,,,1107.9332777000964,1108.9606045000255,1106.8507461999543,1106.8507461999543,1106.8507461999543,1106.8507461999543,old_sceneIn_46.png,290,5.0,1.076323099900037,,,,079,00,2025-06-12_16h35.55.337,Surprise recog test,2023.1.3,59.96203211514388,
290,0,290,0,,,,,,,,,,,,,,,,,,,,,,,,,,,,,,,,,,1111.3475293000229,1112.3657801002264,1108.9606045000255,1108.9606045000255,1108.9606045000255,1108.9606045000255,old_fruit_24.png,291,1.0,2.382570799905807,,,,079,00,2025-06-12_16h35.55.337,Surprise recog test,2023.1.3,59.96203211514388,
291,0,291,0,,,,,,,,,,,,,,,,,,,,,,,,,,,,,,,,,,1114.2412756001577,1115.269799400121,1112.3657801002264,1112.3657801002264,1112.3657801002264,1112.3657801002264,new_stationery_22.png,292,5.0,1.8753534001298249,,,,079,00,2025-06-12_16h35.55.337,Surprise recog test,2023.1.3,59.96203211514388,
292,0,292,0,,,,,,,,,,,,,,,,,,,,,,,,,,,,,,,,,,1116.2876145998016,,1115.269799400121,1115.269799400121,1115.269799400121,1115.269799400121,new_sceneOut_32.png,293,5.0,1.017415499780327,,,,079,00,2025-06-12_16h35.55.337,Surprise recog test,2023.1.3,59.96203211514388,
293,0,293,0,,,,,,,,,,,,,,,,,,,,,,,,,,,,,,,,,,1118.2088138000108,1119.235879499931,1117.3096067002043,1117.3096067002043,1117.3096067002043,1117.3096067002043,old_sceneIn_49.png,294,5.0,0.8948889998719096,,,,079,00,2025-06-12_16h35.55.337,Surprise recog test,2023.1.3,59.96203211514388,
294,0,294,0,,,,,,,,,,,,,,,,,,,,,,,,,,,,,,,,,,1120.2766546998173,1121.3069098000415,1119.235879499931,1119.235879499931,1119.235879499931,1119.235879499931,new_sceneOut_1.png,295,5.0,1.0409833998419344,,,,079,00,2025-06-12_16h35.55.337,Surprise recog test,2023.1.3,59.96203211514388,
295,0,295,0,,,,,,,,,,,,,,,,,,,,,,,,,,,,,,,,,,1122.211451199837,1123.2314202999696,1121.3069098000415,1121.3069098000415,1121.3069098000415,1121.3069098000415,old_sceneIn_25.png,296,5.0,0.9070066995918751,,,,079,00,2025-06-12_16h35.55.337,Surprise recog test,2023.1.3,59.96203211514388,
296,0,296,0,,,,,,,,,,,,,,,,,,,,,,,,,,,,,,,,,,1124.1607649000362,,1123.2314202999696,1123.2314202999696,1123.2314202999696,1123.2314202999696,old_sceneOut_8.png,297,5.0,0.9233225001953542,,,,079,00,2025-06-12_16h35.55.337,Surprise recog test,2023.1.3,59.96203211514388,
297,0,297,0,,,,,,,,,,,,,,,,,,,,,,,,,,,,,,,,,,1126.5716714002192,1127.595976300072,1125.1972107999027,1125.1972107999027,1125.1972107999027,1125.1972107999027,new_sceneOut_16.png,298,5.0,1.3772601000964642,,,,079,00,2025-06-12_16h35.55.337,Surprise recog test,2023.1.3,59.96203211514388,
298,0,298,0,,,,,,,,,,,,,,,,,,,,,,,,,,,,,,,,,,1128.45438570017,1129.475045400206,1127.595976300072,1127.595976300072,1127.595976300072,1127.595976300072,new_sceneOut_15.png,299,5.0,0.8603489003144205,,,,079,00,2025-06-12_16h35.55.337,Surprise recog test,2023.1.3,59.96203211514388,
299,0,299,0,,,,,,,,,,,,,,,,,,,,,,,,,,,,,,,,,,1130.5471414998174,1131.568582400214,1129.475045400206,1129.475045400206,1129.475045400206,1129.475045400206,old_stationery_42.png,300,5.0,1.07170519977808,,,,079,00,2025-06-12_16h35.55.337,Surprise recog test,2023.1.3,59.96203211514388,
300,0,300,0,,,,,,,,,,,,,,,,,,,,,,,,,,,,,,,,,,1134.4873563,,1131.568582400214,1131.568582400214,1131.568582400214,1131.568582400214,old_stationery_46.png,301,4.0,2.9195592999458313,,,,079,00,2025-06-12_16h35.55.337,Surprise recog test,2023.1.3,59.96203211514388,
301,0,301,0,,,,,,,,,,,,,,,,,,,,,,,,,,,,,,,,,,1136.9090527999215,1137.9415639000945,1135.5079973000102,1135.5079973000102,1135.5079973000102,1135.5079973000102,new_fruit_43.png,302,5.0,1.395527099724859,,,,079,00,2025-06-12_16h35.55.337,Surprise recog test,2023.1.3,59.96203211514388,
302,0,302,0,,,,,,,,,,,,,,,,,,,,,,,,,,,,,,,,,,1140.9854588001035,1142.0093602002598,1137.9415639000945,1137.9415639000945,1137.9415639000945,1137.9415639000945,new_fruit_33.png,303,5.0,3.046706600114703,,,,079,00,2025-06-12_16h35.55.337,Surprise recog test,2023.1.3,59.96203211514388,
303,0,303,0,,,,,,,,,,,,,,,,,,,,,,,,,,,,,,,,,,1143.437461799942,1144.449781499803,1142.0093602002598,1142.0093602002598,1142.0093602002598,1142.0093602002598,old_stationery_27.png,304,5.0,1.4304431998170912,,,,079,00,2025-06-12_16h35.55.337,Surprise recog test,2023.1.3,59.96203211514388,
304,0,304,0,,,,,,,,,,,,,,,,,,,,,,,,,,,,,,,,,,1145.2576216999441,1146.2669812999666,1144.449781499803,1144.449781499803,1144.449781499803,1144.449781499803,new_sceneIn_39.png,305,5.0,0.8031798000447452,,,,079,00,2025-06-12_16h35.55.337,Surprise recog test,2023.1.3,59.96203211514388,
305,0,305,0,,,,,,,,,,,,,,,,,,,,,,,,,,,,,,,,,,1147.3329337001778,1148.3543644999154,1146.2669812999666,1146.2669812999666,1146.2669812999666,1146.2669812999666,new_sceneIn_31.png,306,5.0,1.0614217999391258,,,,079,00,2025-06-12_16h35.55.337,Surprise recog test,2023.1.3,59.96203211514388,
306,0,306,0,,,,,,,,,,,,,,,,,,,,,,,,,,,,,,,,,,1149.290344200097,1150.3033034000546,1148.3543644999154,1148.3543644999154,1148.3543644999154,1148.3543644999154,old_sceneIn_43.png,307,5.0,0.9335834998637438,,,,079,00,2025-06-12_16h35.55.337,Surprise recog test,2023.1.3,59.96203211514388,
307,0,307,0,,,,,,,,,,,,,,,,,,,,,,,,,,,,,,,,,,1151.5226472001523,1152.5498222000897,1150.3033034000546,1150.3033034000546,1150.3033034000546,1150.3033034000546,new_fruit_39.png,308,5.0,1.2134525999426842,,,,079,00,2025-06-12_16h35.55.337,Surprise recog test,2023.1.3,59.96203211514388,
308,0,308,0,,,,,,,,,,,,,,,,,,,,,,,,,,,,,,,,,,1153.3824320998974,1154.3913897001185,1152.5498222000897,1152.5498222000897,1152.5498222000897,1152.5498222000897,new_stationery_9.png,309,5.0,0.8279391997493804,,,,079,00,2025-06-12_16h35.55.337,Surprise recog test,2023.1.3,59.96203211514388,
309,0,309,0,,,,,,,,,,,,,,,,,,,,,,,,,,,,,,,,,,1158.2056054002605,,1154.3913897001185,1154.3913897001185,1154.3913897001185,1154.3913897001185,old_fruit_7.png,310,5.0,3.810055600013584,,,,079,00,2025-06-12_16h35.55.337,Surprise recog test,2023.1.3,59.96203211514388,
310,0,310,0,,,,,,,,,,,,,,,,,,,,,,,,,,,,,,,,,,1160.2647036998533,1161.2883723000996,1159.2386703998782,1159.2386703998782,1159.2386703998782,1159.2386703998782,old_sceneOut_16.png,311,5.0,1.0259249997325242,,,,079,00,2025-06-12_16h35.55.337,Surprise recog test,2023.1.3,59.96203211514388,
311,0,311,0,,,,,,,,,,,,,,,,,,,,,,,,,,,,,,,,,,1165.6985431998037,1166.7240673000924,1161.2883723000996,1161.2883723000996,1161.2883723000996,1161.2883723000996,old_stationery_13.png,312,4.0,4.4123997003771365,,,,079,00,2025-06-12_16h35.55.337,Surprise recog test,2023.1.3,59.96203211514388,
312,0,312,0,,,,,,,,,,,,,,,,,,,,,,,,,,,,,,,,,,1168.3448952999897,1169.3733506002463,1166.7240673000924,1166.7240673000924,1166.7240673000924,1166.7240673000924,old_sceneOut_44.png,313,5.0,1.6216173996217549,,,,079,00,2025-06-12_16h35.55.337,Surprise recog test,2023.1.3,59.96203211514388,
313,0,313,0,,,,,,,,,,,,,,,,,,,,,,,,,,,,,,,,,,1171.5414793998934,1172.5663868999109,1169.3733506002463,1169.3733506002463,1169.3733506002463,1169.3733506002463,old_fruit_47.png,314,1.0,2.1726412000134587,,,,079,00,2025-06-12_16h35.55.337,Surprise recog test,2023.1.3,59.96203211514388,
314,0,314,0,,,,,,,,,,,,,,,,,,,,,,,,,,,,,,,,,,1173.7660536998883,1174.7839775998145,1172.5663868999109,1172.5663868999109,1172.5663868999109,1172.5663868999109,new_stationery_26.png,315,5.0,1.1980081000365317,,,,079,00,2025-06-12_16h35.55.337,Surprise recog test,2023.1.3,59.96203211514388,
315,0,315,0,,,,,,,,,,,,,,,,,,,,,,,,,,,,,,,,,,1177.3189383000135,1178.3320458000526,1174.7839775998145,1174.7839775998145,1174.7839775998145,1174.7839775998145,new_fruit_16.png,316,5.0,2.5337082003243268,,,,079,00,2025-06-12_16h35.55.337,Surprise recog test,2023.1.3,59.96203211514388,
316,0,316,0,,,,,,,,,,,,,,,,,,,,,,,,,,,,,,,,,,1180.2414684002288,,1178.3320458000526,1178.3320458000526,1178.3320458000526,1178.3320458000526,old_fruit_43.png,317,3.0,1.909382099751383,,,,079,00,2025-06-12_16h35.55.337,Surprise recog test,2023.1.3,59.96203211514388,
317,0,317,0,,,,,,,,,,,,,,,,,,,,,,,,,,,,,,,,,,1183.4764116001315,,1181.2712269998156,1181.2712269998156,1181.2712269998156,1181.2712269998156,new_fruit_27.png,318,4.0,2.2056104000657797,,,,079,00,2025-06-12_16h35.55.337,Surprise recog test,2023.1.3,59.96203211514388,
318,0,318,0,,,,,,,,,,,,,,,,,,,,,,,,,,,,,,,,,,1185.331836400088,1186.3626989000477,1184.510632299818,1184.510632299818,1184.510632299818,1184.510632299818,old_sceneOut_49.png,319,5.0,0.823744900058955,,,,079,00,2025-06-12_16h35.55.337,Surprise recog test,2023.1.3,59.96203211514388,
319,0,319,0,,,,,,,,,,,,,,,,,,,,,,,,,,,,,,,,,,1187.0017844000831,1188.030129100196,1186.3626989000477,1186.3626989000477,1186.3626989000477,1186.3626989000477,new_sceneOut_49.png,320,5.0,0.6409779000096023,,,,079,00,2025-06-12_16h35.55.337,Surprise recog test,2023.1.3,59.96203211514388,
320,0,320,0,,,,,,,,,,,,,,,,,,,,,,,,,,,,,,,,,,1188.7361817001365,1189.766056700144,1188.030129100196,1188.030129100196,1188.030129100196,1188.030129100196,old_sceneIn_4.png,321,5.0,0.7060023997910321,,,,079,00,2025-06-12_16h35.55.337,Surprise recog test,2023.1.3,59.96203211514388,
321,0,321,0,,,,,,,,,,,,,,,,,,,,,,,,,,,,,,,,,,1191.0642173001543,1192.0836526001804,1189.766056700144,1189.766056700144,1189.766056700144,1189.766056700144,new_fruit_24.png,322,5.0,1.3007706999778748,,,,079,00,2025-06-12_16h35.55.337,Surprise recog test,2023.1.3,59.96203211514388,
322,0,322,0,,,,,,,,,,,,,,,,,,,,,,,,,,,,,,,,,,1194.1650489000604,1195.1870511001907,1192.0836526001804,1192.0836526001804,1192.0836526001804,1192.0836526001804,old_fruit_46.png,323,4.0,2.079971299972385,,,,079,00,2025-06-12_16h35.55.337,Surprise recog test,2023.1.3,59.96203211514388,
323,0,323,0,,,,,,,,,,,,,,,,,,,,,,,,,,,,,,,,,,1196.436486700084,1197.4528025998734,1195.1870511001907,1195.1870511001907,1195.1870511001907,1195.1870511001907,new_stationery_13.png,324,5.0,1.2512290999293327,,,,079,00,2025-06-12_16h35.55.337,Surprise recog test,2023.1.3,59.96203211514388,
324,0,324,0,,,,,,,,,,,,,,,,,,,,,,,,,,,,,,,,,,1199.1123293000273,1200.1417523999698,1197.4528025998734,1197.4528025998734,1197.4528025998734,1197.4528025998734,new_fruit_12.png,325,5.0,1.6616334998980165,,,,079,00,2025-06-12_16h35.55.337,Surprise recog test,2023.1.3,59.96203211514388,
325,0,325,0,,,,,,,,,,,,,,,,,,,,,,,,,,,,,,,,,,1200.9520495999604,1201.965024500154,1200.1417523999698,1200.1417523999698,1200.1417523999698,1200.1417523999698,new_sceneOut_37.png,326,5.0,0.8091787002049387,,,,079,00,2025-06-12_16h35.55.337,Surprise recog test,2023.1.3,59.96203211514388,
326,0,326,0,,,,,,,,,,,,,,,,,,,,,,,,,,,,,,,,,,1203.5748517001048,1204.5902712000534,1201.965024500154,1201.965024500154,1201.965024500154,1201.965024500154,new_sceneOut_18.png,327,5.0,1.6071217996068299,,,,079,00,2025-06-12_16h35.55.337,Surprise recog test,2023.1.3,59.96203211514388,
327,0,327,0,,,,,,,,,,,,,,,,,,,,,,,,,,,,,,,,,,1205.7853083000518,1206.8011138997972,1204.5902712000534,1204.5902712000534,1204.5902712000534,1204.5902712000534,new_sceneOut_4.png,328,5.0,1.1958761997520924,,,,079,00,2025-06-12_16h35.55.337,Surprise recog test,2023.1.3,59.96203211514388,
328,0,328,0,,,,,,,,,,,,,,,,,,,,,,,,,,,,,,,,,,1207.7746529001743,1208.79817799991,1206.8011138997972,1206.8011138997972,1206.8011138997972,1206.8011138997972,old_stationery_39.png,329,5.0,0.9697825000621378,,,,079,00,2025-06-12_16h35.55.337,Surprise recog test,2023.1.3,59.96203211514388,
329,0,329,0,,,,,,,,,,,,,,,,,,,,,,,,,,,,,,,,,,1209.7557129999623,1210.783224400133,1208.79817799991,1208.79817799991,1208.79817799991,1208.79817799991,old_stationery_15.png,330,5.0,0.9577219998463988,,,,079,00,2025-06-12_16h35.55.337,Surprise recog test,2023.1.3,59.96203211514388,
330,0,330,0,,,,,,,,,,,,,,,,,,,,,,,,,,,,,,,,,,1211.8242816999555,1212.8517734999768,1210.783224400133,1210.783224400133,1210.783224400133,1210.783224400133,new_sceneIn_41.png,331,5.0,1.0383186000399292,,,,079,00,2025-06-12_16h35.55.337,Surprise recog test,2023.1.3,59.96203211514388,
331,0,331,0,,,,,,,,,,,,,,,,,,,,,,,,,,,,,,,,,,1214.143478000071,1215.1700464999303,1212.8517734999768,1212.8517734999768,1212.8517734999768,1212.8517734999768,new_fruit_47.png,332,5.0,1.293416399974376,,,,079,00,2025-06-12_16h35.55.337,Surprise recog test,2023.1.3,59.96203211514388,
332,0,332,0,,,,,,,,,,,,,,,,,,,,,,,,,,,,,,,,,,1217.9625106002204,1218.9913608999923,1215.1700464999303,1215.1700464999303,1215.1700464999303,1215.1700464999303,old_stationery_40.png,333,2.0,2.7949765999801457,,,,079,00,2025-06-12_16h35.55.337,Surprise recog test,2023.1.3,59.96203211514388,
333,0,333,0,,,,,,,,,,,,,,,,,,,,,,,,,,,,,,,,,,1221.05957019981,,1218.9913608999923,1218.9913608999923,1218.9913608999923,1218.9913608999923,old_sceneOut_13.png,334,5.0,2.068688000086695,,,,079,00,2025-06-12_16h35.55.337,Surprise recog test,2023.1.3,59.96203211514388,
334,0,334,0,,,,,,,,,,,,,,,,,,,,,,,,,,,,,,,,,,1222.8843477000482,1223.8986777998507,1222.0928281000815,1222.0928281000815,1222.0928281000815,1222.0928281000815,old_sceneOut_19.png,335,5.0,0.7941535003483295,,,,079,00,2025-06-12_16h35.55.337,Surprise recog test,2023.1.3,59.96203211514388,
335,0,335,0,,,,,,,,,,,,,,,,,,,,,,,,,,,,,,,,,,1226.3264568001032,1227.3397119999863,1223.8986777998507,1223.8986777998507,1223.8986777998507,1223.8986777998507,new_stationery_8.png,336,4.0,2.4179803002625704,,,,079,00,2025-06-12_16h35.55.337,Surprise recog test,2023.1.3,59.96203211514388,
336,0,336,0,,,,,,,,,,,,,,,,,,,,,,,,,,,,,,,,,,1228.590578299947,1229.6176308002323,1227.3397119999863,1227.3397119999863,1227.3397119999863,1227.3397119999863,new_sceneOut_30.png,337,5.0,1.2513140002265573,,,,079,00,2025-06-12_16h35.55.337,Surprise recog test,2023.1.3,59.96203211514388,
337,0,337,0,,,,,,,,,,,,,,,,,,,,,,,,,,,,,,,,,,1230.761590400245,1231.7836545999162,1229.6176308002323,1229.6176308002323,1229.6176308002323,1229.6176308002323,new_fruit_36.png,338,5.0,1.1476949001662433,,,,079,00,2025-06-12_16h35.55.337,Surprise recog test,2023.1.3,59.96203211514388,
338,0,338,0,,,,,,,,,,,,,,,,,,,,,,,,,,,,,,,,,,1234.0618730001152,1235.074837999884,1231.7836545999162,1231.7836545999162,1231.7836545999162,1231.7836545999162,new_fruit_2.png,339,4.0,2.278460199944675,,,,079,00,2025-06-12_16h35.55.337,Surprise recog test,2023.1.3,59.96203211514388,
339,0,339,0,,,,,,,,,,,,,,,,,,,,,,,,,,,,,,,,,,1236.1422159001231,1237.1723523000255,1235.074837999884,1235.074837999884,1235.074837999884,1235.074837999884,old_sceneOut_26.png,340,5.0,1.0611367002129555,,,,079,00,2025-06-12_16h35.55.337,Surprise recog test,2023.1.3,59.96203211514388,
340,0,340,0,,,,,,,,,,,,,,,,,,,,,,,,,,,,,,,,,,1238.083526100032,1239.100955199916,1237.1723523000255,1237.1723523000255,1237.1723523000255,1237.1723523000255,new_stationery_39.png,341,5.0,0.9137694998644292,,,,079,00,2025-06-12_16h35.55.337,Surprise recog test,2023.1.3,59.96203211514388,
341,0,341,0,,,,,,,,,,,,,,,,,,,,,,,,,,,,,,,,,,1240.2382342000492,1241.2593590002507,1239.100955199916,1239.100955199916,1239.100955199916,1239.100955199916,new_sceneIn_48.png,342,5.0,1.13328339997679,,,,079,00,2025-06-12_16h35.55.337,Surprise recog test,2023.1.3,59.96203211514388,
342,0,342,0,,,,,,,,,,,,,,,,,,,,,,,,,,,,,,,,,,1242.3099110000767,,1241.2593590002507,1241.2593590002507,1241.2593590002507,1241.2593590002507,new_fruit_7.png,343,5.0,1.053039699792862,,,,079,00,2025-06-12_16h35.55.337,Surprise recog test,2023.1.3,59.96203211514388,
343,0,343,0,,,,,,,,,,,,,,,,,,,,,,,,,,,,,,,,,,1244.2739404002205,1245.2962321001105,1243.3430690001696,1243.3430690001696,1243.3430690001696,1243.3430690001696,new_fruit_42.png,344,5.0,0.9289210001006722,,,,079,00,2025-06-12_16h35.55.337,Surprise recog test,2023.1.3,59.96203211514388,
344,0,344,0,,,,,,,,,,,,,,,,,,,,,,,,,,,,,,,,,,1248.0264213001356,1249.045232700184,1245.2962321001105,1245.2962321001105,1245.2962321001105,1245.2962321001105,old_fruit_33.png,345,1.0,2.7324221995659173,,,,079,00,2025-06-12_16h35.55.337,Surprise recog test,2023.1.3,59.96203211514388,
345,0,345,0,,,,,,,,,,,,,,,,,,,,,,,,,,,,,,,,,,1250.3153193001635,,1249.045232700184,1249.045232700184,1249.045232700184,1249.045232700184,old_sceneOut_25.png,346,5.0,1.2637612000107765,,,,079,00,2025-06-12_16h35.55.337,Surprise recog test,2023.1.3,59.96203211514388,
346,0,346,0,,,,,,,,,,,,,,,,,,,,,,,,,,,,,,,,,,1253.4443955002353,1254.4662474999204,1251.3491382999346,1251.3491382999346,1251.3491382999346,1251.3491382999346,old_fruit_42.png,347,1.0,2.0973044000566006,,,,079,00,2025-06-12_16h35.55.337,Surprise recog test,2023.1.3,59.96203211514388,
347,0,347,0,,,,,,,,,,,,,,,,,,,,,,,,,,,,,,,,,,1255.55078150006,1256.5580013999715,1254.4662474999204,1254.4662474999204,1254.4662474999204,1254.4662474999204,old_sceneIn_1.png,348,5.0,1.0797247998416424,,,,079,00,2025-06-12_16h35.55.337,Surprise recog test,2023.1.3,59.96203211514388,
348,0,348,0,,,,,,,,,,,,,,,,,,,,,,,,,,,,,,,,,,1257.2273478000425,1258.253256900236,1256.5580013999715,1256.5580013999715,1256.5580013999715,1256.5580013999715,new_sceneIn_35.png,349,5.0,0.6648029000498354,,,,079,00,2025-06-12_16h35.55.337,Surprise recog test,2023.1.3,59.96203211514388,
349,0,349,0,,,,,,,,,,,,,,,,,,,,,,,,,,,,,,,,,,1258.8934121001512,1259.9133939999156,1258.253256900236,1258.253256900236,1258.253256900236,1258.253256900236,new_sceneIn_20.png,350,5.0,0.6406555003486574,,,,079,00,2025-06-12_16h35.55.337,Surprise recog test,2023.1.3,59.96203211514388,
350,0,350,0,,,,,,,,,,,,,,,,,,,,,,,,,,,,,,,,,,1261.8151461998932,1262.8381619998254,1259.9133939999156,1259.9133939999156,1259.9133939999156,1259.9133939999156,new_fruit_31.png,351,5.0,1.8992202999070287,,,,079,00,2025-06-12_16h35.55.337,Surprise recog test,2023.1.3,59.96203211514388,
351,0,351,0,,,,,,,,,,,,,,,,,,,,,,,,,,,,,,,,,,1263.6275880998,,1262.8381619998254,1262.8381619998254,1262.8381619998254,1262.8381619998254,new_fruit_37.png,352,5.0,0.7865860997699201,,,,079,00,2025-06-12_16h35.55.337,Surprise recog test,2023.1.3,59.96203211514388,
