trial_loop.thisRepN,trial_loop.thisTrialN,trial_loop.thisN,trial_loop.thisIndex,VAS_slider.started,VAS_text.started,VAS_notstressed_text.started,VAS_stressed_text.started,continue_input.started,continue_text.started,label0.started,label10.started,label20.started,label30.started,label40.started,label50.started,label60.started,label70.started,label80.started,label90.started,label100.started,VAS_slider.response,VAS_slider.rt,VAS_slider.history,Answer_VAS,continue_input.keys,instruction_text.started,continue_text_2.started,continue_input_2.started,continue_input_2.keys,continue_input_2.rt,continue_input_2.duration,example_text.started,example_slider_2.started,example_image.started,example_slider_2.response,example_slider_2.rt,fixcross.started,fixcross.stopped,front_square.started,stim_images.started,trial_inst_images.started,slider_images.started,thisImg,trial_count,slider_images.response,slider_images.rt,slider_images.stopped,outro.started,participant,condition,date,expName,psychopyVersion,frameRate,
,,,,29.137232299995958,29.137232299995958,29.137232299995958,29.137232299995958,29.137232299995958,29.137232299995958,29.137232299995958,29.137232299995958,29.137232299995958,29.137232299995958,29.137232299995958,29.137232299995958,29.137232299995958,29.137232299995958,29.137232299995958,29.137232299995958,29.137232299995958,1.0444444444444445,15.608212999999523,"[(1.0444444444444445, 15.608212999999523)]",1.0444444444444445,None,,,,,,,,,,,,,,,,,,,,,,,,082,10,2025-06-25_16h34.48.155,Surprise recog test,2023.1.3,59.95074446667667,
,,,,,,,,,,,,,,,,,,,,,,,,,,44.77365590000409,44.77365590000409,44.77365590000409,space,20.0751750000054,None,,,,,,,,,,,,,,,,,,082,10,2025-06-25_16h34.48.155,Surprise recog test,2023.1.3,59.95074446667667,
0,0,0,0,,,,,,,,,,,,,,,,,,,,,,,,,,,,,64.98365680000279,64.98365680000279,64.98365680000279,4.0,19.740107799996622,89.55675679999695,90.57726170000387,85.68326479999814,85.68326479999814,85.68326479999814,85.68326479999814,old_sceneOut_17.png,1,5.0,3.8797455000021728,,,082,10,2025-06-25_16h34.48.155,Surprise recog test,2023.1.3,59.95074446667667,
1,0,1,0,,,,,,,,,,,,,,,,,,,,,,,,,,,,,,,,,,93.10932129999856,94.12596799999301,90.57726170000387,90.57726170000387,90.57726170000387,90.57726170000387,old_sceneOut_5.png,2,5.0,2.533649000004516,,,082,10,2025-06-25_16h34.48.155,Surprise recog test,2023.1.3,59.95074446667667,
2,0,2,0,,,,,,,,,,,,,,,,,,,,,,,,,,,,,,,,,,96.4119658999989,97.43505369999912,94.12596799999301,94.12596799999301,94.12596799999301,94.12596799999301,old_stationery_37.png,3,1.0,2.285703800007468,,,082,10,2025-06-25_16h34.48.155,Surprise recog test,2023.1.3,59.95074446667667,
3,0,3,0,,,,,,,,,,,,,,,,,,,,,,,,,,,,,,,,,,99.96040450000146,100.98463969999284,97.43505369999912,97.43505369999912,97.43505369999912,97.43505369999912,new_sceneOut_46.png,4,4.0,2.5267591000010725,,,082,10,2025-06-25_16h34.48.155,Surprise recog test,2023.1.3,59.95074446667667,
4,0,4,0,,,,,,,,,,,,,,,,,,,,,,,,,,,,,,,,,,103.05280819999462,104.06903109999257,100.98463969999284,100.98463969999284,100.98463969999284,100.98463969999284,new_fruit_36.png,5,2.0,2.0688967000023695,,,082,10,2025-06-25_16h34.48.155,Surprise recog test,2023.1.3,59.95074446667667,
5,0,5,0,,,,,,,,,,,,,,,,,,,,,,,,,,,,,,,,,,107.45804430000135,108.46352509999997,104.06903109999257,104.06903109999257,104.06903109999257,104.06903109999257,new_fruit_3.png,6,4.0,3.3863866000028793,,,082,10,2025-06-25_16h34.48.155,Surprise recog test,2023.1.3,59.95074446667667,
6,0,6,0,,,,,,,,,,,,,,,,,,,,,,,,,,,,,,,,,,110.6774418999994,111.68199359999562,108.46352509999997,108.46352509999997,108.46352509999997,108.46352509999997,old_sceneIn_27.png,7,5.0,2.2091109000029974,,,082,10,2025-06-25_16h34.48.155,Surprise recog test,2023.1.3,59.95074446667667,
7,0,7,0,,,,,,,,,,,,,,,,,,,,,,,,,,,,,,,,,,113.74662079999689,114.75093559999368,111.68199359999562,111.68199359999562,111.68199359999562,111.68199359999562,new_fruit_50.png,8,4.0,2.0540551000012783,,,082,10,2025-06-25_16h34.48.155,Surprise recog test,2023.1.3,59.95074446667667,
8,0,8,0,,,,,,,,,,,,,,,,,,,,,,,,,,,,,,,,,,119.65084590000333,120.67110360000515,114.75093559999368,114.75093559999368,114.75093559999368,114.75093559999368,old_sceneIn_50.png,9,3.0,4.894491099999868,,,082,10,2025-06-25_16h34.48.155,Surprise recog test,2023.1.3,59.95074446667667,
9,0,9,0,,,,,,,,,,,,,,,,,,,,,,,,,,,,,,,,,,123.56346239999402,124.58805579999171,120.67110360000515,120.67110360000515,120.67110360000515,120.67110360000515,new_sceneIn_16.png,10,2.0,2.8949041000014404,,,082,10,2025-06-25_16h34.48.155,Surprise recog test,2023.1.3,59.95074446667667,
10,0,10,0,,,,,,,,,,,,,,,,,,,,,,,,,,,,,,,,,,126.25990109999839,,124.58805579999171,124.58805579999171,124.58805579999171,124.58805579999171,old_stationery_27.png,11,1.0,1.6733381999947596,,,082,10,2025-06-25_16h34.48.155,Surprise recog test,2023.1.3,59.95074446667667,
11,0,11,0,,,,,,,,,,,,,,,,,,,,,,,,,,,,,,,,,,129.6397527999943,130.65105600000243,127.29476239999349,127.29476239999349,127.29476239999349,127.29476239999349,old_sceneOut_37.png,12,4.0,2.3444447000074433,,,082,10,2025-06-25_16h34.48.155,Surprise recog test,2023.1.3,59.95074446667667,
12,0,12,0,,,,,,,,,,,,,,,,,,,,,,,,,,,,,,,,,,133.2522486999951,134.2703041999921,130.65105600000243,130.65105600000243,130.65105600000243,130.65105600000243,new_fruit_45.png,13,4.0,2.5967074999934994,,,082,10,2025-06-25_16h34.48.155,Surprise recog test,2023.1.3,59.95074446667667,
13,0,13,0,,,,,,,,,,,,,,,,,,,,,,,,,,,,,,,,,,136.38419329999306,137.40431280000485,134.2703041999921,134.2703041999921,134.2703041999921,134.2703041999921,old_stationery_5.png,14,1.0,2.1096520999999484,,,082,10,2025-06-25_16h34.48.155,Surprise recog test,2023.1.3,59.95074446667667,
14,0,14,0,,,,,,,,,,,,,,,,,,,,,,,,,,,,,,,,,,138.8840315999987,139.90577919999487,137.40431280000485,137.40431280000485,137.40431280000485,137.40431280000485,old_stationery_46.png,15,1.0,1.4798878000001423,,,082,10,2025-06-25_16h34.48.155,Surprise recog test,2023.1.3,59.95074446667667,
15,0,15,0,,,,,,,,,,,,,,,,,,,,,,,,,,,,,,,,,,142.94969929999206,143.98185599999852,139.90577919999487,139.90577919999487,139.90577919999487,139.90577919999487,new_stationery_36.png,16,4.0,3.043087199999718,,,082,10,2025-06-25_16h34.48.155,Surprise recog test,2023.1.3,59.95074446667667,
16,0,16,0,,,,,,,,,,,,,,,,,,,,,,,,,,,,,,,,,,146.75043559999904,147.7660140999942,143.98185599999852,143.98185599999852,143.98185599999852,143.98185599999852,old_sceneOut_2.png,17,5.0,2.7730415999976685,,,082,10,2025-06-25_16h34.48.155,Surprise recog test,2023.1.3,59.95074446667667,
17,0,17,0,,,,,,,,,,,,,,,,,,,,,,,,,,,,,,,,,,149.89398880000226,150.9087040000013,147.7660140999942,147.7660140999942,147.7660140999942,147.7660140999942,old_stationery_13.png,18,1.0,2.1233174999943003,,,082,10,2025-06-25_16h34.48.155,Surprise recog test,2023.1.3,59.95074446667667,
18,0,18,0,,,,,,,,,,,,,,,,,,,,,,,,,,,,,,,,,,153.38305239999318,,150.9087040000013,150.9087040000013,150.9087040000013,150.9087040000013,new_sceneOut_42.png,19,5.0,2.4763363000092795,,,082,10,2025-06-25_16h34.48.155,Surprise recog test,2023.1.3,59.95074446667667,
19,0,19,0,,,,,,,,,,,,,,,,,,,,,,,,,,,,,,,,,,156.26774209999712,,154.41401409999526,154.41401409999526,154.41401409999526,154.41401409999526,old_stationery_12.png,20,1.0,1.8554014000110328,,,082,10,2025-06-25_16h34.48.155,Surprise recog test,2023.1.3,59.95074446667667,
20,0,20,0,,,,,,,,,,,,,,,,,,,,,,,,,,,,,,,,,,160.05186940000567,161.06674359999306,157.29886379999516,157.29886379999516,157.29886379999516,157.29886379999516,new_stationery_47.png,21,2.0,2.744812200005981,,,082,10,2025-06-25_16h34.48.155,Surprise recog test,2023.1.3,59.95074446667667,
21,0,21,0,,,,,,,,,,,,,,,,,,,,,,,,,,,,,,,,,,165.44207439999445,,161.06674359999306,161.06674359999306,161.06674359999306,161.06674359999306,new_sceneIn_2.png,22,4.0,4.375050600006944,,,082,10,2025-06-25_16h34.48.155,Surprise recog test,2023.1.3,59.95074446667667,
22,0,22,0,,,,,,,,,,,,,,,,,,,,,,,,,,,,,,,,,,168.68847839999944,169.7122662000038,166.4625367999979,166.4625367999979,166.4625367999979,166.4625367999979,new_stationery_22.png,23,1.0,2.2215571999986423,,,082,10,2025-06-25_16h34.48.155,Surprise recog test,2023.1.3,59.95074446667667,
23,0,23,0,,,,,,,,,,,,,,,,,,,,,,,,,,,,,,,,,,172.28892479999922,173.31548479999765,169.7122662000038,169.7122662000038,169.7122662000038,169.7122662000038,old_fruit_42.png,24,4.0,2.5785949999990407,,,082,10,2025-06-25_16h34.48.155,Surprise recog test,2023.1.3,59.95074446667667,
24,0,24,0,,,,,,,,,,,,,,,,,,,,,,,,,,,,,,,,,,175.99737189999723,177.0191266000038,173.31548479999765,173.31548479999765,173.31548479999765,173.31548479999765,new_stationery_24.png,25,1.0,2.6838661000074353,,,082,10,2025-06-25_16h34.48.155,Surprise recog test,2023.1.3,59.95074446667667,
25,0,25,0,,,,,,,,,,,,,,,,,,,,,,,,,,,,,,,,,,181.34652229999483,182.36693269999523,177.0191266000038,177.0191266000038,177.0191266000038,177.0191266000038,new_fruit_8.png,26,3.0,4.3314411000028485,,,082,10,2025-06-25_16h34.48.155,Surprise recog test,2023.1.3,59.95074446667667,
26,0,26,0,,,,,,,,,,,,,,,,,,,,,,,,,,,,,,,,,,187.15667229999963,188.1778706000041,182.36693269999523,182.36693269999523,182.36693269999523,182.36693269999523,old_sceneIn_17.png,27,4.0,4.790358400001423,,,082,10,2025-06-25_16h34.48.155,Surprise recog test,2023.1.3,59.95074446667667,
27,0,27,0,,,,,,,,,,,,,,,,,,,,,,,,,,,,,,,,,,192.00314960000105,193.03062710000086,188.1778706000041,188.1778706000041,188.1778706000041,188.1778706000041,old_sceneOut_23.png,28,4.0,3.826066499997978,,,082,10,2025-06-25_16h34.48.155,Surprise recog test,2023.1.3,59.95074446667667,
28,0,28,0,,,,,,,,,,,,,,,,,,,,,,,,,,,,,,,,,,196.57957739999983,197.5977955999988,193.03062710000086,193.03062710000086,193.03062710000086,193.03062710000086,new_stationery_44.png,29,3.0,3.5505343999975594,,,082,10,2025-06-25_16h34.48.155,Surprise recog test,2023.1.3,59.95074446667667,
29,0,29,0,,,,,,,,,,,,,,,,,,,,,,,,,,,,,,,,,,199.61571050000202,200.63836879999144,197.5977955999988,197.5977955999988,197.5977955999988,197.5977955999988,new_sceneIn_33.png,30,5.0,2.014823500008788,,,082,10,2025-06-25_16h34.48.155,Surprise recog test,2023.1.3,59.95074446667667,
30,0,30,0,,,,,,,,,,,,,,,,,,,,,,,,,,,,,,,,,,203.87568670000474,,200.63836879999144,200.63836879999144,200.63836879999144,200.63836879999144,old_sceneIn_13.png,31,1.0,3.2400290000077803,,,082,10,2025-06-25_16h34.48.155,Surprise recog test,2023.1.3,59.95074446667667,
31,0,31,0,,,,,,,,,,,,,,,,,,,,,,,,,,,,,,,,,,207.03021640000225,208.05694789999689,204.8951262000046,204.8951262000046,204.8951262000046,204.8951262000046,old_fruit_5.png,32,4.0,2.1300954000034835,,,082,10,2025-06-25_16h34.48.155,Surprise recog test,2023.1.3,59.95074446667667,
32,0,32,0,,,,,,,,,,,,,,,,,,,,,,,,,,,,,,,,,,211.771980599995,212.79109759999847,208.05694789999689,208.05694789999689,208.05694789999689,208.05694789999689,old_fruit_38.png,33,4.0,3.713728800008539,,,082,10,2025-06-25_16h34.48.155,Surprise recog test,2023.1.3,59.95074446667667,
33,0,33,0,,,,,,,,,,,,,,,,,,,,,,,,,,,,,,,,,,214.17134509999596,215.1997823999991,212.79109759999847,212.79109759999847,212.79109759999847,212.79109759999847,new_fruit_30.png,34,4.0,1.3804271999979392,,,082,10,2025-06-25_16h34.48.155,Surprise recog test,2023.1.3,59.95074446667667,
34,0,34,0,,,,,,,,,,,,,,,,,,,,,,,,,,,,,,,,,,216.8900130999973,217.91837709999527,215.1997823999991,215.1997823999991,215.1997823999991,215.1997823999991,old_stationery_44.png,35,1.0,1.6913575000071432,,,082,10,2025-06-25_16h34.48.155,Surprise recog test,2023.1.3,59.95074446667667,
35,0,35,0,,,,,,,,,,,,,,,,,,,,,,,,,,,,,,,,,,220.0518022000033,221.0726183999941,217.91837709999527,217.91837709999527,217.91837709999527,217.91837709999527,old_sceneIn_9.png,36,5.0,2.1347449999884702,,,082,10,2025-06-25_16h34.48.155,Surprise recog test,2023.1.3,59.95074446667667,
36,0,36,0,,,,,,,,,,,,,,,,,,,,,,,,,,,,,,,,,,223.58926789999532,224.59808490000432,221.0726183999941,221.0726183999941,221.0726183999941,221.0726183999941,old_fruit_50.png,37,4.0,2.5194208000029903,,,082,10,2025-06-25_16h34.48.155,Surprise recog test,2023.1.3,59.95074446667667,
37,0,37,0,,,,,,,,,,,,,,,,,,,,,,,,,,,,,,,,,,226.80440409999574,227.8203577999957,224.59808490000432,224.59808490000432,224.59808490000432,224.59808490000432,new_sceneIn_4.png,38,5.0,2.2041706000018166,,,082,10,2025-06-25_16h34.48.155,Surprise recog test,2023.1.3,59.95074446667667,
38,0,38,0,,,,,,,,,,,,,,,,,,,,,,,,,,,,,,,,,,229.37646210000094,230.39464450000378,227.8203577999957,227.8203577999957,227.8203577999957,227.8203577999957,new_sceneIn_31.png,39,5.0,1.5569202000042424,,,082,10,2025-06-25_16h34.48.155,Surprise recog test,2023.1.3,59.95074446667667,
39,0,39,0,,,,,,,,,,,,,,,,,,,,,,,,,,,,,,,,,,235.39293200000247,,230.39464450000378,230.39464450000378,230.39464450000378,230.39464450000378,new_fruit_31.png,40,None,None,235.38590809999732,,082,10,2025-06-25_16h34.48.155,Surprise recog test,2023.1.3,59.95074446667667,
40,0,40,0,,,,,,,,,,,,,,,,,,,,,,,,,,,,,,,,,,238.8364142999926,,236.4053433999943,236.4053433999943,236.4053433999943,236.4053433999943,old_stationery_49.png,41,1.0,2.427945400006138,,,082,10,2025-06-25_16h34.48.155,Surprise recog test,2023.1.3,59.95074446667667,
41,0,41,0,,,,,,,,,,,,,,,,,,,,,,,,,,,,,,,,,,242.22252209999715,,239.86276669999643,239.86276669999643,239.86276669999643,239.86276669999643,new_stationery_37.png,42,4.0,2.3592363000061596,,,082,10,2025-06-25_16h34.48.155,Surprise recog test,2023.1.3,59.95074446667667,
42,0,42,0,,,,,,,,,,,,,,,,,,,,,,,,,,,,,,,,,,244.78898569999728,245.80516829999397,243.2409037000034,243.2409037000034,243.2409037000034,243.2409037000034,old_sceneIn_37.png,43,5.0,1.5391428000002634,,,082,10,2025-06-25_16h34.48.155,Surprise recog test,2023.1.3,59.95074446667667,
43,0,43,0,,,,,,,,,,,,,,,,,,,,,,,,,,,,,,,,,,247.6588419000036,248.68249880000076,245.80516829999397,245.80516829999397,245.80516829999397,245.80516829999397,old_fruit_19.png,44,4.0,1.8522698000015225,,,082,10,2025-06-25_16h34.48.155,Surprise recog test,2023.1.3,59.95074446667667,
44,0,44,0,,,,,,,,,,,,,,,,,,,,,,,,,,,,,,,,,,251.00464339999598,252.014983999994,248.68249880000076,248.68249880000076,248.68249880000076,248.68249880000076,old_sceneIn_34.png,45,4.0,2.322850099997595,,,082,10,2025-06-25_16h34.48.155,Surprise recog test,2023.1.3,59.95074446667667,
45,0,45,0,,,,,,,,,,,,,,,,,,,,,,,,,,,,,,,,,,253.81498670000292,,252.014983999994,252.014983999994,252.014983999994,252.014983999994,old_fruit_2.png,46,4.0,1.7941691000014544,,,082,10,2025-06-25_16h34.48.155,Surprise recog test,2023.1.3,59.95074446667667,
46,0,46,0,,,,,,,,,,,,,,,,,,,,,,,,,,,,,,,,,,256.0402124999964,257.0561381000007,254.84272950000013,254.84272950000013,254.84272950000013,254.84272950000013,new_sceneOut_40.png,47,4.0,1.1985631999996258,,,082,10,2025-06-25_16h34.48.155,Surprise recog test,2023.1.3,59.95074446667667,
47,0,47,0,,,,,,,,,,,,,,,,,,,,,,,,,,,,,,,,,,259.1619042999955,260.1886879999947,257.0561381000007,257.0561381000007,257.0561381000007,257.0561381000007,new_stationery_30.png,48,4.0,2.099056799997925,,,082,10,2025-06-25_16h34.48.155,Surprise recog test,2023.1.3,59.95074446667667,
48,0,48,0,,,,,,,,,,,,,,,,,,,,,,,,,,,,,,,,,,262.1397449999931,,260.1886879999947,260.1886879999947,260.1886879999947,260.1886879999947,old_sceneIn_1.png,49,5.0,1.9533063999988372,,,082,10,2025-06-25_16h34.48.155,Surprise recog test,2023.1.3,59.95074446667667,
49,0,49,0,,,,,,,,,,,,,,,,,,,,,,,,,,,,,,,,,,265.01793129999714,266.0293543000007,263.17331129999366,263.17331129999366,263.17331129999366,263.17331129999366,new_stationery_14.png,50,5.0,1.8468589999974938,,,082,10,2025-06-25_16h34.48.155,Surprise recog test,2023.1.3,59.95074446667667,
50,0,50,0,,,,,,,,,,,,,,,,,,,,,,,,,,,,,,,,,,269.1822342999949,270.21007909999753,266.0293543000007,266.0293543000007,266.0293543000007,266.0293543000007,new_stationery_50.png,51,3.0,3.1484473000018625,,,082,10,2025-06-25_16h34.48.155,Surprise recog test,2023.1.3,59.95074446667667,
51,0,51,0,,,,,,,,,,,,,,,,,,,,,,,,,,,,,,,,,,273.0169356999977,274.04836729999806,270.21007909999753,270.21007909999753,270.21007909999753,270.21007909999753,old_fruit_44.png,52,4.0,2.8096199999999953,,,082,10,2025-06-25_16h34.48.155,Surprise recog test,2023.1.3,59.95074446667667,
52,0,52,0,,,,,,,,,,,,,,,,,,,,,,,,,,,,,,,,,,276.171245199992,277.1895589999913,274.04836729999806,274.04836729999806,274.04836729999806,274.04836729999806,new_sceneOut_7.png,53,5.0,2.121812500001397,,,082,10,2025-06-25_16h34.48.155,Surprise recog test,2023.1.3,59.95074446667667,
53,0,53,0,,,,,,,,,,,,,,,,,,,,,,,,,,,,,,,,,,278.99514319999435,280.0154295999964,277.1895589999913,277.1895589999913,277.1895589999913,277.1895589999913,old_stationery_32.png,54,1.0,1.799016400007531,,,082,10,2025-06-25_16h34.48.155,Surprise recog test,2023.1.3,59.95074446667667,
54,0,54,0,,,,,,,,,,,,,,,,,,,,,,,,,,,,,,,,,,282.6445539999986,283.67438680000487,280.0154295999964,280.0154295999964,280.0154295999964,280.0154295999964,old_stationery_21.png,55,1.0,2.629888800001936,,,082,10,2025-06-25_16h34.48.155,Surprise recog test,2023.1.3,59.95074446667667,
55,0,55,0,,,,,,,,,,,,,,,,,,,,,,,,,,,,,,,,,,286.22947409999324,287.2571764000022,283.67438680000487,283.67438680000487,283.67438680000487,283.67438680000487,new_fruit_23.png,56,4.0,2.552771999995457,,,082,10,2025-06-25_16h34.48.155,Surprise recog test,2023.1.3,59.95074446667667,
56,0,56,0,,,,,,,,,,,,,,,,,,,,,,,,,,,,,,,,,,289.2316984999925,290.2601694000041,287.2571764000022,287.2571764000022,287.2571764000022,287.2571764000022,new_stationery_9.png,57,2.0,1.9755259999947157,,,082,10,2025-06-25_16h34.48.155,Surprise recog test,2023.1.3,59.95074446667667,
57,0,57,0,,,,,,,,,,,,,,,,,,,,,,,,,,,,,,,,,,291.9283843000012,292.942435799996,290.2601694000041,290.2601694000041,290.2601694000041,290.2601694000041,new_sceneIn_9.png,58,5.0,1.6687302999926032,,,082,10,2025-06-25_16h34.48.155,Surprise recog test,2023.1.3,59.95074446667667,
58,0,58,0,,,,,,,,,,,,,,,,,,,,,,,,,,,,,,,,,,295.33697000000393,296.36596769999596,292.942435799996,292.942435799996,292.942435799996,292.942435799996,new_sceneIn_27.png,59,3.0,2.3953177999937907,,,082,10,2025-06-25_16h34.48.155,Surprise recog test,2023.1.3,59.95074446667667,
59,0,59,0,,,,,,,,,,,,,,,,,,,,,,,,,,,,,,,,,,297.96564120000403,298.98397169999953,296.36596769999596,296.36596769999596,296.36596769999596,296.36596769999596,old_sceneOut_32.png,60,5.0,1.599849099991843,,,082,10,2025-06-25_16h34.48.155,Surprise recog test,2023.1.3,59.95074446667667,
60,0,60,0,,,,,,,,,,,,,,,,,,,,,,,,,,,,,,,,,,301.9957936999999,303.02203569999256,298.98397169999953,298.98397169999953,298.98397169999953,298.98397169999953,new_stationery_43.png,61,4.0,3.0144184999953723,,,082,10,2025-06-25_16h34.48.155,Surprise recog test,2023.1.3,59.95074446667667,
61,0,61,0,,,,,,,,,,,,,,,,,,,,,,,,,,,,,,,,,,304.97517989999324,,303.02203569999256,303.02203569999256,303.02203569999256,303.02203569999256,new_fruit_14.png,62,4.0,1.9561327999981586,,,082,10,2025-06-25_16h34.48.155,Surprise recog test,2023.1.3,59.95074446667667,
62,0,62,0,,,,,,,,,,,,,,,,,,,,,,,,,,,,,,,,,,309.7562526999973,310.7757195000013,306.00747959999717,306.00747959999717,306.00747959999717,306.00747959999717,new_sceneOut_1.png,63,3.0,3.748222000009264,,,082,10,2025-06-25_16h34.48.155,Surprise recog test,2023.1.3,59.95074446667667,
63,0,63,0,,,,,,,,,,,,,,,,,,,,,,,,,,,,,,,,,,312.3244582000043,313.3488060999953,310.7757195000013,310.7757195000013,310.7757195000013,310.7757195000013,old_stationery_41.png,64,1.0,1.5500547000119695,,,082,10,2025-06-25_16h34.48.155,Surprise recog test,2023.1.3,59.95074446667667,
64,0,64,0,,,,,,,,,,,,,,,,,,,,,,,,,,,,,,,,,,315.34047629999986,316.3657635999989,313.3488060999953,313.3488060999953,313.3488060999953,313.3488060999953,old_sceneIn_36.png,65,5.0,1.994409099992481,,,082,10,2025-06-25_16h34.48.155,Surprise recog test,2023.1.3,59.95074446667667,
65,0,65,0,,,,,,,,,,,,,,,,,,,,,,,,,,,,,,,,,,318.73831359999895,,316.3657635999989,316.3657635999989,316.3657635999989,316.3657635999989,old_fruit_37.png,66,4.0,2.3740837999939686,,,082,10,2025-06-25_16h34.48.155,Surprise recog test,2023.1.3,59.95074446667667,
66,0,66,0,,,,,,,,,,,,,,,,,,,,,,,,,,,,,,,,,,322.175625399992,323.20777629999793,319.7689379999938,319.7689379999938,319.7689379999938,319.7689379999938,old_sceneOut_41.png,67,4.0,2.4087498000008054,,,082,10,2025-06-25_16h34.48.155,Surprise recog test,2023.1.3,59.95074446667667,
67,0,67,0,,,,,,,,,,,,,,,,,,,,,,,,,,,,,,,,,,325.20827859999554,,323.20777629999793,323.20777629999793,323.20777629999793,323.20777629999793,new_sceneOut_11.png,68,5.0,2.002480299997842,,,082,10,2025-06-25_16h34.48.155,Surprise recog test,2023.1.3,59.95074446667667,
68,0,68,0,,,,,,,,,,,,,,,,,,,,,,,,,,,,,,,,,,328.56352830000105,329.5896775000001,326.22989580000285,326.22989580000285,326.22989580000285,326.22989580000285,new_sceneIn_11.png,69,5.0,2.3297931000124663,,,082,10,2025-06-25_16h34.48.155,Surprise recog test,2023.1.3,59.95074446667667,
69,0,69,0,,,,,,,,,,,,,,,,,,,,,,,,,,,,,,,,,,331.496764800002,,329.5896775000001,329.5896775000001,329.5896775000001,329.5896775000001,new_stationery_21.png,70,5.0,1.9083880000107456,,,082,10,2025-06-25_16h34.48.155,Surprise recog test,2023.1.3,59.95074446667667,
70,0,70,0,,,,,,,,,,,,,,,,,,,,,,,,,,,,,,,,,,333.8868425999972,334.91322040000523,332.532269000003,332.532269000003,332.532269000003,332.532269000003,old_fruit_4.png,71,5.0,1.3574687999935122,,,082,10,2025-06-25_16h34.48.155,Surprise recog test,2023.1.3,59.95074446667667,
71,0,71,0,,,,,,,,,,,,,,,,,,,,,,,,,,,,,,,,,,336.3232219000056,337.33938459999627,334.91322040000523,334.91322040000523,334.91322040000523,334.91322040000523,new_sceneIn_5.png,72,5.0,1.4111197000020184,,,082,10,2025-06-25_16h34.48.155,Surprise recog test,2023.1.3,59.95074446667667,
72,0,72,0,,,,,,,,,,,,,,,,,,,,,,,,,,,,,,,,,,339.094176300001,340.118186599997,337.33938459999627,337.33938459999627,337.33938459999627,337.33938459999627,old_stationery_35.png,73,1.0,1.7509840999991866,,,082,10,2025-06-25_16h34.48.155,Surprise recog test,2023.1.3,59.95074446667667,
73,0,73,0,,,,,,,,,,,,,,,,,,,,,,,,,,,,,,,,,,341.069914599997,342.08083809999516,340.118186599997,340.118186599997,340.118186599997,340.118186599997,old_stationery_33.png,74,1.0,0.9523546999989776,,,082,10,2025-06-25_16h34.48.155,Surprise recog test,2023.1.3,59.95074446667667,
74,0,74,0,,,,,,,,,,,,,,,,,,,,,,,,,,,,,,,,,,344.32581900000514,,342.08083809999516,342.08083809999516,342.08083809999516,342.08083809999516,old_sceneOut_10.png,75,4.0,2.2439723999996204,,,082,10,2025-06-25_16h34.48.155,Surprise recog test,2023.1.3,59.95074446667667,
75,0,75,0,,,,,,,,,,,,,,,,,,,,,,,,,,,,,,,,,,346.61946129999706,347.6304461999971,345.3457705000037,345.3457705000037,345.3457705000037,345.3457705000037,old_stationery_39.png,76,1.0,1.269855300008203,,,082,10,2025-06-25_16h34.48.155,Surprise recog test,2023.1.3,59.95074446667667,
76,0,76,0,,,,,,,,,,,,,,,,,,,,,,,,,,,,,,,,,,348.5076829000027,349.52680249999685,347.6304461999971,347.6304461999971,347.6304461999971,347.6304461999971,old_stationery_47.png,77,1.0,0.8727463999966858,,,082,10,2025-06-25_16h34.48.155,Surprise recog test,2023.1.3,59.95074446667667,
77,0,77,0,,,,,,,,,,,,,,,,,,,,,,,,,,,,,,,,,,350.4364496999915,351.47140929999296,349.52680249999685,349.52680249999685,349.52680249999685,349.52680249999685,old_stationery_6.png,78,1.0,0.9086320999922464,,,082,10,2025-06-25_16h34.48.155,Surprise recog test,2023.1.3,59.95074446667667,
78,0,78,0,,,,,,,,,,,,,,,,,,,,,,,,,,,,,,,,,,353.3342798999947,354.3576877000014,351.47140929999296,351.47140929999296,351.47140929999296,351.47140929999296,new_fruit_43.png,79,5.0,1.8673585999931674,,,082,10,2025-06-25_16h34.48.155,Surprise recog test,2023.1.3,59.95074446667667,
79,0,79,0,,,,,,,,,,,,,,,,,,,,,,,,,,,,,,,,,,355.5408399000007,356.56871419999516,354.3576877000014,354.3576877000014,354.3576877000014,354.3576877000014,old_sceneOut_9.png,80,5.0,1.1786363999999594,,,082,10,2025-06-25_16h34.48.155,Surprise recog test,2023.1.3,59.95074446667667,
80,0,80,0,,,,,,,,,,,,,,,,,,,,,,,,,,,,,,,,,,358.0176247999916,359.0368674999918,356.56871419999516,356.56871419999516,356.56871419999516,356.56871419999516,new_sceneOut_48.png,81,5.0,1.4505117000080645,,,082,10,2025-06-25_16h34.48.155,Surprise recog test,2023.1.3,59.95074446667667,
81,0,81,0,,,,,,,,,,,,,,,,,,,,,,,,,,,,,,,,,,360.74542360000487,361.76072599999316,359.0368674999918,359.0368674999918,359.0368674999918,359.0368674999918,new_fruit_35.png,82,3.0,1.7094614000088768,,,082,10,2025-06-25_16h34.48.155,Surprise recog test,2023.1.3,59.95074446667667,
82,0,82,0,,,,,,,,,,,,,,,,,,,,,,,,,,,,,,,,,,364.2823994999926,365.30157809999946,361.76072599999316,361.76072599999316,361.76072599999316,361.76072599999316,new_sceneOut_49.png,83,4.0,2.516145800007507,,,082,10,2025-06-25_16h34.48.155,Surprise recog test,2023.1.3,59.95074446667667,
83,0,83,0,,,,,,,,,,,,,,,,,,,,,,,,,,,,,,,,,,367.24768760000006,368.27827100000286,365.30157809999946,365.30157809999946,365.30157809999946,365.30157809999946,new_stationery_46.png,84,5.0,1.9464517000014894,,,082,10,2025-06-25_16h34.48.155,Surprise recog test,2023.1.3,59.95074446667667,
84,0,84,0,,,,,,,,,,,,,,,,,,,,,,,,,,,,,,,,,,369.71577189999516,370.7361302999925,368.27827100000286,368.27827100000286,368.27827100000286,368.27827100000286,new_stationery_48.png,85,5.0,1.4379823000053875,,,082,10,2025-06-25_16h34.48.155,Surprise recog test,2023.1.3,59.95074446667667,
85,0,85,0,,,,,,,,,,,,,,,,,,,,,,,,,,,,,,,,,,372.08921499999997,373.0999288000021,370.7361302999925,370.7361302999925,370.7361302999925,370.7361302999925,new_stationery_13.png,86,5.0,1.3513367999985348,,,082,10,2025-06-25_16h34.48.155,Surprise recog test,2023.1.3,59.95074446667667,
86,0,86,0,,,,,,,,,,,,,,,,,,,,,,,,,,,,,,,,,,375.2164267000044,,373.0999288000021,373.0999288000021,373.0999288000021,373.0999288000021,old_sceneIn_18.png,87,4.0,2.1129596999962814,,,082,10,2025-06-25_16h34.48.155,Surprise recog test,2023.1.3,59.95074446667667,
87,0,87,0,,,,,,,,,,,,,,,,,,,,,,,,,,,,,,,,,,378.2986688999954,379.3205189,376.23789679999754,376.23789679999754,376.23789679999754,376.23789679999754,old_fruit_39.png,88,4.0,2.0537866999948164,,,082,10,2025-06-25_16h34.48.155,Surprise recog test,2023.1.3,59.95074446667667,
88,0,88,0,,,,,,,,,,,,,,,,,,,,,,,,,,,,,,,,,,381.0838810999994,382.10517539999273,379.3205189,379.3205189,379.3205189,379.3205189,old_fruit_49.png,89,4.0,1.7658134000084829,,,082,10,2025-06-25_16h34.48.155,Surprise recog test,2023.1.3,59.95074446667667,
89,0,89,0,,,,,,,,,,,,,,,,,,,,,,,,,,,,,,,,,,383.7545564000029,384.77252889999363,382.10517539999273,382.10517539999273,382.10517539999273,382.10517539999273,new_stationery_35.png,90,1.0,1.650861599991913,,,082,10,2025-06-25_16h34.48.155,Surprise recog test,2023.1.3,59.95074446667667,
90,0,90,0,,,,,,,,,,,,,,,,,,,,,,,,,,,,,,,,,,386.9735417000047,387.9875106999971,384.77252889999363,384.77252889999363,384.77252889999363,384.77252889999363,new_fruit_13.png,91,5.0,2.2027659000013955,,,082,10,2025-06-25_16h34.48.155,Surprise recog test,2023.1.3,59.95074446667667,
91,0,91,0,,,,,,,,,,,,,,,,,,,,,,,,,,,,,,,,,,389.82383530000516,390.8356812999991,387.9875106999971,387.9875106999971,387.9875106999971,387.9875106999971,old_sceneOut_49.png,92,5.0,1.8347852000006242,,,082,10,2025-06-25_16h34.48.155,Surprise recog test,2023.1.3,59.95074446667667,
92,0,92,0,,,,,,,,,,,,,,,,,,,,,,,,,,,,,,,,,,392.25136049999855,393.2754903000023,390.8356812999991,390.8356812999991,390.8356812999991,390.8356812999991,old_sceneOut_18.png,93,4.0,1.408781700010877,,,082,10,2025-06-25_16h34.48.155,Surprise recog test,2023.1.3,59.95074446667667,
93,0,93,0,,,,,,,,,,,,,,,,,,,,,,,,,,,,,,,,,,394.69594370000414,395.7040893999947,393.2754903000023,393.2754903000023,393.2754903000023,393.2754903000023,new_sceneIn_26.png,94,4.0,1.4208465000119759,,,082,10,2025-06-25_16h34.48.155,Surprise recog test,2023.1.3,59.95074446667667,
94,0,94,0,,,,,,,,,,,,,,,,,,,,,,,,,,,,,,,,,,397.7045072000037,398.73329000000376,395.7040893999947,395.7040893999947,395.7040893999947,395.7040893999947,old_sceneIn_20.png,95,5.0,1.9950796000048285,,,082,10,2025-06-25_16h34.48.155,Surprise recog test,2023.1.3,59.95074446667667,
95,0,95,0,,,,,,,,,,,,,,,,,,,,,,,,,,,,,,,,,,401.6588391999976,402.6848648000014,398.73329000000376,398.73329000000376,398.73329000000376,398.73329000000376,new_sceneIn_25.png,96,2.0,2.926698299997952,,,082,10,2025-06-25_16h34.48.155,Surprise recog test,2023.1.3,59.95074446667667,
96,0,96,0,,,,,,,,,,,,,,,,,,,,,,,,,,,,,,,,,,404.88654219999444,405.9032167999976,402.6848648000014,402.6848648000014,402.6848648000014,402.6848648000014,new_sceneOut_24.png,97,3.0,2.202323100005742,,,082,10,2025-06-25_16h34.48.155,Surprise recog test,2023.1.3,59.95074446667667,
97,0,97,0,,,,,,,,,,,,,,,,,,,,,,,,,,,,,,,,,,407.38611550000496,408.40841970000474,405.9032167999976,405.9032167999976,405.9032167999976,405.9032167999976,old_stationery_40.png,98,1.0,1.4843297000043094,,,082,10,2025-06-25_16h34.48.155,Surprise recog test,2023.1.3,59.95074446667667,
98,0,98,0,,,,,,,,,,,,,,,,,,,,,,,,,,,,,,,,,,410.3411610000039,411.3569007000042,408.40841970000474,408.40841970000474,408.40841970000474,408.40841970000474,new_sceneOut_25.png,99,4.0,1.9343953000061447,,,082,10,2025-06-25_16h34.48.155,Surprise recog test,2023.1.3,59.95074446667667,
99,0,99,0,,,,,,,,,,,,,,,,,,,,,,,,,,,,,,,,,,413.3475538999919,414.36171739999554,411.3569007000042,411.3569007000042,411.3569007000042,411.3569007000042,new_sceneOut_4.png,100,5.0,1.9897436000028392,,,082,10,2025-06-25_16h34.48.155,Surprise recog test,2023.1.3,59.95074446667667,
100,0,100,0,,,,,,,,,,,,,,,,,,,,,,,,,,,,,,,,,,417.0953322999994,418.11456040000485,414.36171739999554,414.36171739999554,414.36171739999554,414.36171739999554,old_sceneIn_38.png,101,5.0,2.7345379999896977,,,082,10,2025-06-25_16h34.48.155,Surprise recog test,2023.1.3,59.95074446667667,
101,0,101,0,,,,,,,,,,,,,,,,,,,,,,,,,,,,,,,,,,420.1840558999975,421.2024409000005,418.11456040000485,418.11456040000485,418.11456040000485,418.11456040000485,new_stationery_12.png,102,3.0,2.071621299997787,,,082,10,2025-06-25_16h34.48.155,Surprise recog test,2023.1.3,59.95074446667667,
102,0,102,0,,,,,,,,,,,,,,,,,,,,,,,,,,,,,,,,,,423.6197896999947,424.63732300000265,421.2024409000005,421.2024409000005,421.2024409000005,421.2024409000005,old_sceneOut_43.png,103,5.0,2.418729600001825,,,082,10,2025-06-25_16h34.48.155,Surprise recog test,2023.1.3,59.95074446667667,
103,0,103,0,,,,,,,,,,,,,,,,,,,,,,,,,,,,,,,,,,426.51641889999155,427.5312965000048,424.63732300000265,424.63732300000265,424.63732300000265,424.63732300000265,old_stationery_10.png,104,1.0,1.8779255999979796,,,082,10,2025-06-25_16h34.48.155,Surprise recog test,2023.1.3,59.95074446667667,
104,0,104,0,,,,,,,,,,,,,,,,,,,,,,,,,,,,,,,,,,429.37539449999167,430.384936699993,427.5312965000048,427.5312965000048,427.5312965000048,427.5312965000048,new_sceneIn_34.png,105,5.0,1.8399180000124034,,,082,10,2025-06-25_16h34.48.155,Surprise recog test,2023.1.3,59.95074446667667,
105,0,105,0,,,,,,,,,,,,,,,,,,,,,,,,,,,,,,,,,,431.90466279999237,432.9342520999926,430.384936699993,430.384936699993,430.384936699993,430.384936699993,new_sceneIn_18.png,106,4.0,1.515846700000111,,,082,10,2025-06-25_16h34.48.155,Surprise recog test,2023.1.3,59.95074446667667,
106,0,106,0,,,,,,,,,,,,,,,,,,,,,,,,,,,,,,,,,,435.0740341000055,436.0888106999919,432.9342520999926,432.9342520999926,432.9342520999926,432.9342520999926,old_sceneIn_48.png,107,1.0,2.144397399999434,,,082,10,2025-06-25_16h34.48.155,Surprise recog test,2023.1.3,59.95074446667667,
107,0,107,0,,,,,,,,,,,,,,,,,,,,,,,,,,,,,,,,,,438.694493300005,439.7203904000053,436.0888106999919,436.0888106999919,436.0888106999919,436.0888106999919,new_fruit_29.png,108,4.0,2.6005953999992926,,,082,10,2025-06-25_16h34.48.155,Surprise recog test,2023.1.3,59.95074446667667,
108,0,108,0,,,,,,,,,,,,,,,,,,,,,,,,,,,,,,,,,,443.0908921999944,,439.7203904000053,439.7203904000053,439.7203904000053,439.7203904000053,new_fruit_10.png,109,3.0,3.3723864999919897,,,082,10,2025-06-25_16h34.48.155,Surprise recog test,2023.1.3,59.95074446667667,
109,0,109,0,,,,,,,,,,,,,,,,,,,,,,,,,,,,,,,,,,445.6327219999948,446.64355569999316,444.1103621999937,444.1103621999937,444.1103621999937,444.1103621999937,old_sceneOut_30.png,110,4.0,1.5179238999990048,,,082,10,2025-06-25_16h34.48.155,Surprise recog test,2023.1.3,59.95074446667667,
110,0,110,0,,,,,,,,,,,,,,,,,,,,,,,,,,,,,,,,,,448.2377081000013,449.2479491999984,446.64355569999316,446.64355569999316,446.64355569999316,446.64355569999316,new_sceneIn_6.png,111,4.0,1.590167400005157,,,082,10,2025-06-25_16h34.48.155,Surprise recog test,2023.1.3,59.95074446667667,
111,0,111,0,,,,,,,,,,,,,,,,,,,,,,,,,,,,,,,,,,451.0213603000011,452.03186180000193,449.2479491999984,449.2479491999984,449.2479491999984,449.2479491999984,old_stationery_19.png,112,1.0,1.765720399998827,,,082,10,2025-06-25_16h34.48.155,Surprise recog test,2023.1.3,59.95074446667667,
112,0,112,0,,,,,,,,,,,,,,,,,,,,,,,,,,,,,,,,,,453.7808827999979,454.79132269999536,452.03186180000193,452.03186180000193,452.03186180000193,452.03186180000193,old_fruit_47.png,113,3.0,1.744030700006988,,,082,10,2025-06-25_16h34.48.155,Surprise recog test,2023.1.3,59.95074446667667,
113,0,113,0,,,,,,,,,,,,,,,,,,,,,,,,,,,,,,,,,,456.5373765999975,457.5642288999952,454.79132269999536,454.79132269999536,454.79132269999536,454.79132269999536,old_fruit_22.png,114,3.0,1.7449023999943165,,,082,10,2025-06-25_16h34.48.155,Surprise recog test,2023.1.3,59.95074446667667,
114,0,114,0,,,,,,,,,,,,,,,,,,,,,,,,,,,,,,,,,,459.47975090000546,460.50140379999357,457.5642288999952,457.5642288999952,457.5642288999952,457.5642288999952,old_sceneOut_14.png,115,5.0,1.9163937000121223,,,082,10,2025-06-25_16h34.48.155,Surprise recog test,2023.1.3,59.95074446667667,
115,0,115,0,,,,,,,,,,,,,,,,,,,,,,,,,,,,,,,,,,462.4428440000047,463.46812570000475,460.50140379999357,460.50140379999357,460.50140379999357,460.50140379999357,new_sceneOut_10.png,116,4.0,1.9431484999950044,,,082,10,2025-06-25_16h34.48.155,Surprise recog test,2023.1.3,59.95074446667667,
116,0,116,0,,,,,,,,,,,,,,,,,,,,,,,,,,,,,,,,,,466.31552580000425,467.3311223000055,463.46812570000475,463.46812570000475,463.46812570000475,463.46812570000475,old_fruit_46.png,117,3.0,2.8490669000020716,,,082,10,2025-06-25_16h34.48.155,Surprise recog test,2023.1.3,59.95074446667667,
117,0,117,0,,,,,,,,,,,,,,,,,,,,,,,,,,,,,,,,,,468.39951659999497,469.42557189999206,467.3311223000055,467.3311223000055,467.3311223000055,467.3311223000055,old_fruit_11.png,118,3.0,1.061893300007796,,,082,10,2025-06-25_16h34.48.155,Surprise recog test,2023.1.3,59.95074446667667,
118,0,118,0,,,,,,,,,,,,,,,,,,,,,,,,,,,,,,,,,,471.1463711999968,,469.42557189999206,469.42557189999206,469.42557189999206,469.42557189999206,new_fruit_7.png,119,5.0,1.722452500005602,,,082,10,2025-06-25_16h34.48.155,Surprise recog test,2023.1.3,59.95074446667667,
119,0,119,0,,,,,,,,,,,,,,,,,,,,,,,,,,,,,,,,,,474.5548321999959,475.5834424999921,472.1684324999951,472.1684324999951,472.1684324999951,472.1684324999951,old_sceneIn_12.png,120,3.0,2.384488199997577,,,082,10,2025-06-25_16h34.48.155,Surprise recog test,2023.1.3,59.95074446667667,
120,0,120,0,,,,,,,,,,,,,,,,,,,,,,,,,,,,,,,,,,477.0326380000042,478.05519440000353,475.5834424999921,475.5834424999921,475.5834424999921,475.5834424999921,old_sceneIn_15.png,121,5.0,1.451178200004506,,,082,10,2025-06-25_16h34.48.155,Surprise recog test,2023.1.3,59.95074446667667,
121,0,121,0,,,,,,,,,,,,,,,,,,,,,,,,,,,,,,,,,,481.6606821000023,482.6814033999981,478.05519440000353,478.05519440000353,478.05519440000353,478.05519440000353,old_fruit_35.png,122,4.0,3.607510200003162,,,082,10,2025-06-25_16h34.48.155,Surprise recog test,2023.1.3,59.95074446667667,
122,0,122,0,,,,,,,,,,,,,,,,,,,,,,,,,,,,,,,,,,484.30625399999553,485.31000029999996,482.6814033999981,482.6814033999981,482.6814033999981,482.6814033999981,new_sceneIn_30.png,123,5.0,1.624437799997395,,,082,10,2025-06-25_16h34.48.155,Surprise recog test,2023.1.3,59.95074446667667,
123,0,123,0,,,,,,,,,,,,,,,,,,,,,,,,,,,,,,,,,,486.2563130000053,487.2738337000046,485.31000029999996,485.31000029999996,485.31000029999996,485.31000029999996,new_sceneIn_36.png,124,5.0,0.9365972000086913,,,082,10,2025-06-25_16h34.48.155,Surprise recog test,2023.1.3,59.95074446667667,
124,0,124,0,,,,,,,,,,,,,,,,,,,,,,,,,,,,,,,,,,489.59413759999734,490.61867060000077,487.2738337000046,487.2738337000046,487.2738337000046,487.2738337000046,old_sceneOut_16.png,125,4.0,2.320505099996808,,,082,10,2025-06-25_16h34.48.155,Surprise recog test,2023.1.3,59.95074446667667,
125,0,125,0,,,,,,,,,,,,,,,,,,,,,,,,,,,,,,,,,,492.42964469999424,493.4357258999953,490.61867060000077,490.61867060000077,490.61867060000077,490.61867060000077,new_fruit_41.png,126,4.0,1.8157605999876978,,,082,10,2025-06-25_16h34.48.155,Surprise recog test,2023.1.3,59.95074446667667,
126,0,126,0,,,,,,,,,,,,,,,,,,,,,,,,,,,,,,,,,,495.2059898000007,496.2310829999915,493.4357258999953,493.4357258999953,493.4357258999953,493.4357258999953,new_sceneIn_41.png,127,5.0,1.7650847000040812,,,082,10,2025-06-25_16h34.48.155,Surprise recog test,2023.1.3,59.95074446667667,
127,0,127,0,,,,,,,,,,,,,,,,,,,,,,,,,,,,,,,,,,498.57843599999615,499.5909229999961,496.2310829999915,496.2310829999915,496.2310829999915,496.2310829999915,new_fruit_33.png,128,4.0,2.3495641000045,,,082,10,2025-06-25_16h34.48.155,Surprise recog test,2023.1.3,59.95074446667667,
128,0,128,0,,,,,,,,,,,,,,,,,,,,,,,,,,,,,,,,,,501.3313921999943,502.3429127999989,499.5909229999961,499.5909229999961,499.5909229999961,499.5909229999961,new_sceneOut_28.png,129,4.0,1.7339019000064582,,,082,10,2025-06-25_16h34.48.155,Surprise recog test,2023.1.3,59.95074446667667,
129,0,129,0,,,,,,,,,,,,,,,,,,,,,,,,,,,,,,,,,,503.8756846000033,504.90553190000355,502.3429127999989,502.3429127999989,502.3429127999989,502.3429127999989,old_fruit_28.png,130,4.0,1.5274572999915108,,,082,10,2025-06-25_16h34.48.155,Surprise recog test,2023.1.3,59.95074446667667,
130,0,130,0,,,,,,,,,,,,,,,,,,,,,,,,,,,,,,,,,,506.0590496999939,,504.90553190000355,504.90553190000355,504.90553190000355,504.90553190000355,old_fruit_25.png,131,4.0,1.1559917999984464,,,082,10,2025-06-25_16h34.48.155,Surprise recog test,2023.1.3,59.95074446667667,
131,0,131,0,,,,,,,,,,,,,,,,,,,,,,,,,,,,,,,,,,509.6588258999982,510.67590709999786,507.08582659999956,507.08582659999956,507.08582659999956,507.08582659999956,new_stationery_32.png,132,5.0,2.5681125999981305,,,082,10,2025-06-25_16h34.48.155,Surprise recog test,2023.1.3,59.95074446667667,
132,0,132,0,,,,,,,,,,,,,,,,,,,,,,,,,,,,,,,,,,513.1850863,514.2152770999965,510.67590709999786,510.67590709999786,510.67590709999786,510.67590709999786,new_sceneIn_43.png,133,4.0,2.5087710000079824,,,082,10,2025-06-25_16h34.48.155,Surprise recog test,2023.1.3,59.95074446667667,
133,0,133,0,,,,,,,,,,,,,,,,,,,,,,,,,,,,,,,,,,515.8680542999937,,514.2152770999965,514.2152770999965,514.2152770999965,514.2152770999965,new_stationery_26.png,134,4.0,1.6518905999982962,,,082,10,2025-06-25_16h34.48.155,Surprise recog test,2023.1.3,59.95074446667667,
134,0,134,0,,,,,,,,,,,,,,,,,,,,,,,,,,,,,,,,,,519.3837286999915,520.3976985000045,516.8883362999914,516.8883362999914,516.8883362999914,516.8883362999914,new_sceneIn_8.png,135,4.0,2.4860957999917446,,,082,10,2025-06-25_16h34.48.155,Surprise recog test,2023.1.3,59.95074446667667,
135,0,135,0,,,,,,,,,,,,,,,,,,,,,,,,,,,,,,,,,,522.2370162000007,523.2554917999951,520.3976985000045,520.3976985000045,520.3976985000045,520.3976985000045,new_sceneOut_12.png,136,4.0,1.8403879999968922,,,082,10,2025-06-25_16h34.48.155,Surprise recog test,2023.1.3,59.95074446667667,
136,0,136,0,,,,,,,,,,,,,,,,,,,,,,,,,,,,,,,,,,525.5344722000009,526.5467786999943,523.2554917999951,523.2554917999951,523.2554917999951,523.2554917999951,old_sceneOut_47.png,137,5.0,2.2778725999960443,,,082,10,2025-06-25_16h34.48.155,Surprise recog test,2023.1.3,59.95074446667667,
137,0,137,0,,,,,,,,,,,,,,,,,,,,,,,,,,,,,,,,,,527.7968718000047,528.8227756999986,526.5467786999943,526.5467786999943,526.5467786999943,526.5467786999943,new_sceneIn_50.png,138,5.0,1.247732799994992,,,082,10,2025-06-25_16h34.48.155,Surprise recog test,2023.1.3,59.95074446667667,
138,0,138,0,,,,,,,,,,,,,,,,,,,,,,,,,,,,,,,,,,531.2331571999966,532.2532588000031,528.8227756999986,528.8227756999986,528.8227756999986,528.8227756999986,old_fruit_41.png,139,4.0,2.4111636000016006,,,082,10,2025-06-25_16h34.48.155,Surprise recog test,2023.1.3,59.95074446667667,
139,0,139,0,,,,,,,,,,,,,,,,,,,,,,,,,,,,,,,,,,533.922774599996,534.9429455999925,532.2532588000031,532.2532588000031,532.2532588000031,532.2532588000031,old_stationery_1.png,140,1.0,1.6626609999948414,,,082,10,2025-06-25_16h34.48.155,Surprise recog test,2023.1.3,59.95074446667667,
140,0,140,0,,,,,,,,,,,,,,,,,,,,,,,,,,,,,,,,,,536.7862916000013,537.8184986999986,534.9429455999925,534.9429455999925,534.9429455999925,534.9429455999925,new_stationery_6.png,141,5.0,1.8431311000022106,,,082,10,2025-06-25_16h34.48.155,Surprise recog test,2023.1.3,59.95074446667667,
141,0,141,0,,,,,,,,,,,,,,,,,,,,,,,,,,,,,,,,,,540.5187168999983,541.5371426000056,537.8184986999986,537.8184986999986,537.8184986999986,537.8184986999986,old_sceneIn_45.png,142,3.0,2.698432599994703,,,082,10,2025-06-25_16h34.48.155,Surprise recog test,2023.1.3,59.95074446667667,
142,0,142,0,,,,,,,,,,,,,,,,,,,,,,,,,,,,,,,,,,543.7386368000007,544.747561199998,541.5371426000056,541.5371426000056,541.5371426000056,541.5371426000056,new_stationery_18.png,143,1.0,2.2014427999965847,,,082,10,2025-06-25_16h34.48.155,Surprise recog test,2023.1.3,59.95074446667667,
143,0,143,0,,,,,,,,,,,,,,,,,,,,,,,,,,,,,,,,,,546.4641891999927,547.4929028000042,544.747561199998,544.747561199998,544.747561199998,544.747561199998,new_fruit_4.png,144,4.0,1.715233700000681,,,082,10,2025-06-25_16h34.48.155,Surprise recog test,2023.1.3,59.95074446667667,
144,0,144,0,,,,,,,,,,,,,,,,,,,,,,,,,,,,,,,,,,549.702264099993,550.7133621999965,547.4929028000042,547.4929028000042,547.4929028000042,547.4929028000042,old_stationery_22.png,145,5.0,2.2124999999941792,,,082,10,2025-06-25_16h34.48.155,Surprise recog test,2023.1.3,59.95074446667667,
145,0,145,0,,,,,,,,,,,,,,,,,,,,,,,,,,,,,,,,,,553.7468691999966,554.7599147000001,550.7133621999965,550.7133621999965,550.7133621999965,550.7133621999965,old_sceneIn_16.png,146,1.0,3.028862899998785,,,082,10,2025-06-25_16h34.48.155,Surprise recog test,2023.1.3,59.95074446667667,
146,0,146,0,,,,,,,,,,,,,,,,,,,,,,,,,,,,,,,,,,556.6362259000016,557.6521787999955,554.7599147000001,554.7599147000001,554.7599147000001,554.7599147000001,new_sceneOut_37.png,147,4.0,1.8749345999967773,,,082,10,2025-06-25_16h34.48.155,Surprise recog test,2023.1.3,59.95074446667667,
147,0,147,0,,,,,,,,,,,,,,,,,,,,,,,,,,,,,,,,,,560.120024200005,,557.6521787999955,557.6521787999955,557.6521787999955,557.6521787999955,new_stationery_45.png,148,3.0,2.4633420999889495,,,082,10,2025-06-25_16h34.48.155,Surprise recog test,2023.1.3,59.95074446667667,
148,0,148,0,,,,,,,,,,,,,,,,,,,,,,,,,,,,,,,,,,563.6624352999934,564.6754856000043,561.1552859999938,561.1552859999938,561.1552859999938,561.1552859999938,new_sceneOut_21.png,149,4.0,2.507318399992073,,,082,10,2025-06-25_16h34.48.155,Surprise recog test,2023.1.3,59.95074446667667,
149,0,149,0,,,,,,,,,,,,,,,,,,,,,,,,,,,,,,,,,,566.8599809000007,,564.6754856000043,564.6754856000043,564.6754856000043,564.6754856000043,old_sceneIn_4.png,150,4.0,2.177900299997418,,,082,10,2025-06-25_16h34.48.155,Surprise recog test,2023.1.3,59.95074446667667,
150,0,150,0,,,,,,,,,,,,,,,,,,,,,,,,,,,,,,,,,,570.1062519999978,571.1249898999959,567.8928895999998,567.8928895999998,567.8928895999998,567.8928895999998,old_fruit_1.png,151,5.0,2.215116499995929,,,082,10,2025-06-25_16h34.48.155,Surprise recog test,2023.1.3,59.95074446667667,
151,0,151,0,,,,,,,,,,,,,,,,,,,,,,,,,,,,,,,,,,573.2579760999943,574.2828848999925,571.1249898999959,571.1249898999959,571.1249898999959,571.1249898999959,new_sceneIn_28.png,152,5.0,2.1302352000057,,,082,10,2025-06-25_16h34.48.155,Surprise recog test,2023.1.3,59.95074446667667,
152,0,152,0,,,,,,,,,,,,,,,,,,,,,,,,,,,,,,,,,,576.7886432999949,577.813743199993,574.2828848999925,574.2828848999925,574.2828848999925,574.2828848999925,old_sceneOut_1.png,153,5.0,2.5069300000031944,,,082,10,2025-06-25_16h34.48.155,Surprise recog test,2023.1.3,59.95074446667667,
153,0,153,0,,,,,,,,,,,,,,,,,,,,,,,,,,,,,,,,,,580.5537734999962,,577.813743199993,577.813743199993,577.813743199993,577.813743199993,new_sceneOut_30.png,154,4.0,2.7413685000065016,,,082,10,2025-06-25_16h34.48.155,Surprise recog test,2023.1.3,59.95074446667667,
154,0,154,0,,,,,,,,,,,,,,,,,,,,,,,,,,,,,,,,,,583.4354254999926,584.4549587999936,581.5867829999916,581.5867829999916,581.5867829999916,581.5867829999916,old_sceneOut_27.png,155,5.0,1.8524878999887733,,,082,10,2025-06-25_16h34.48.155,Surprise recog test,2023.1.3,59.95074446667667,
155,0,155,0,,,,,,,,,,,,,,,,,,,,,,,,,,,,,,,,,,586.1004444999999,587.1172286999936,584.4549587999936,584.4549587999936,584.4549587999936,584.4549587999936,new_sceneIn_22.png,156,5.0,1.6450879000040004,,,082,10,2025-06-25_16h34.48.155,Surprise recog test,2023.1.3,59.95074446667667,
156,0,156,0,,,,,,,,,,,,,,,,,,,,,,,,,,,,,,,,,,589.6150532000029,590.6433834999916,587.1172286999936,587.1172286999936,587.1172286999936,587.1172286999936,old_sceneIn_44.png,157,5.0,2.494972600004985,,,082,10,2025-06-25_16h34.48.155,Surprise recog test,2023.1.3,59.95074446667667,
157,0,157,0,,,,,,,,,,,,,,,,,,,,,,,,,,,,,,,,,,592.2797910999943,,590.6433834999916,590.6433834999916,590.6433834999916,590.6433834999916,new_sceneOut_26.png,158,4.0,1.6356272999983048,,,082,10,2025-06-25_16h34.48.155,Surprise recog test,2023.1.3,59.95074446667667,
158,0,158,0,,,,,,,,,,,,,,,,,,,,,,,,,,,,,,,,,,594.9523568000004,595.9818050000031,593.3159132000001,593.3159132000001,593.3159132000001,593.3159132000001,old_stationery_34.png,159,1.0,1.6384284000087064,,,082,10,2025-06-25_16h34.48.155,Surprise recog test,2023.1.3,59.95074446667667,
159,0,159,0,,,,,,,,,,,,,,,,,,,,,,,,,,,,,,,,,,599.1169983,600.1340648000041,595.9818050000031,595.9818050000031,595.9818050000031,595.9818050000031,new_stationery_29.png,160,4.0,3.13475749999634,,,082,10,2025-06-25_16h34.48.155,Surprise recog test,2023.1.3,59.95074446667667,
160,0,160,0,,,,,,,,,,,,,,,,,,,,,,,,,,,,,,,,,,601.8487692000053,602.8582514000009,600.1340648000041,600.1340648000041,600.1340648000041,600.1340648000041,new_sceneOut_17.png,161,3.0,1.7171301000053063,,,082,10,2025-06-25_16h34.48.155,Surprise recog test,2023.1.3,59.95074446667667,
161,0,161,0,,,,,,,,,,,,,,,,,,,,,,,,,,,,,,,,,,604.8426118999923,605.8610001000052,602.8582514000009,602.8582514000009,602.8582514000009,602.8582514000009,old_sceneOut_45.png,162,4.0,1.9799127000005683,,,082,10,2025-06-25_16h34.48.155,Surprise recog test,2023.1.3,59.95074446667667,
162,0,162,0,,,,,,,,,,,,,,,,,,,,,,,,,,,,,,,,,,607.5816486999975,608.6086196999968,605.8610001000052,605.8610001000052,605.8610001000052,605.8610001000052,new_fruit_46.png,163,4.0,1.7149777000013273,,,082,10,2025-06-25_16h34.48.155,Surprise recog test,2023.1.3,59.95074446667667,
163,0,163,0,,,,,,,,,,,,,,,,,,,,,,,,,,,,,,,,,,610.3241882000002,611.3431640999916,608.6086196999968,608.6086196999968,608.6086196999968,608.6086196999968,old_stationery_36.png,164,2.0,1.7167386000073748,,,082,10,2025-06-25_16h34.48.155,Surprise recog test,2023.1.3,59.95074446667667,
164,0,164,0,,,,,,,,,,,,,,,,,,,,,,,,,,,,,,,,,,613.9424167999969,614.9657331999915,611.3431640999916,611.3431640999916,611.3431640999916,611.3431640999916,old_sceneOut_8.png,165,4.0,2.599288500001421,,,082,10,2025-06-25_16h34.48.155,Surprise recog test,2023.1.3,59.95074446667667,
165,0,165,0,,,,,,,,,,,,,,,,,,,,,,,,,,,,,,,,,,616.4973666000005,617.5141532999987,614.9657331999915,614.9657331999915,614.9657331999915,614.9657331999915,old_stationery_50.png,166,1.0,1.5322469999955501,,,082,10,2025-06-25_16h34.48.155,Surprise recog test,2023.1.3,59.95074446667667,
166,0,166,0,,,,,,,,,,,,,,,,,,,,,,,,,,,,,,,,,,619.0876620999916,,617.5141532999987,617.5141532999987,617.5141532999987,617.5141532999987,new_fruit_48.png,167,3.0,1.5745649000018602,,,082,10,2025-06-25_16h34.48.155,Surprise recog test,2023.1.3,59.95074446667667,
167,0,167,0,,,,,,,,,,,,,,,,,,,,,,,,,,,,,,,,,,621.8498974999966,622.8735296999948,620.1159726000042,620.1159726000042,620.1159726000042,620.1159726000042,new_fruit_24.png,168,4.0,1.7346148999931756,,,082,10,2025-06-25_16h34.48.155,Surprise recog test,2023.1.3,59.95074446667667,
168,0,168,0,,,,,,,,,,,,,,,,,,,,,,,,,,,,,,,,,,624.9581017000019,,622.8735296999948,622.8735296999948,622.8735296999948,622.8735296999948,new_stationery_25.png,169,4.0,2.0842744999972638,,,082,10,2025-06-25_16h34.48.155,Surprise recog test,2023.1.3,59.95074446667667,
169,0,169,0,,,,,,,,,,,,,,,,,,,,,,,,,,,,,,,,,,627.6886067000014,628.7055509000056,625.9751302999939,625.9751302999939,625.9751302999939,625.9751302999939,new_stationery_34.png,170,5.0,1.70860330000869,,,082,10,2025-06-25_16h34.48.155,Surprise recog test,2023.1.3,59.95074446667667,
170,0,170,0,,,,,,,,,,,,,,,,,,,,,,,,,,,,,,,,,,630.313221999997,,628.7055509000056,628.7055509000056,628.7055509000056,628.7055509000056,new_sceneIn_23.png,171,5.0,1.6069648999982746,,,082,10,2025-06-25_16h34.48.155,Surprise recog test,2023.1.3,59.95074446667667,
171,0,171,0,,,,,,,,,,,,,,,,,,,,,,,,,,,,,,,,,,632.9948126999952,634.0148813999986,631.341797999994,631.341797999994,631.341797999994,631.341797999994,old_stationery_9.png,172,1.0,1.6493489999993471,,,082,10,2025-06-25_16h34.48.155,Surprise recog test,2023.1.3,59.95074446667667,
172,0,172,0,,,,,,,,,,,,,,,,,,,,,,,,,,,,,,,,,,636.0154268000042,637.0337276999926,634.0148813999986,634.0148813999986,634.0148813999986,634.0148813999986,old_stationery_26.png,173,1.0,2.0041737999999896,,,082,10,2025-06-25_16h34.48.155,Surprise recog test,2023.1.3,59.95074446667667,
173,0,173,0,,,,,,,,,,,,,,,,,,,,,,,,,,,,,,,,,,638.4810945999925,639.4904899999965,637.0337276999926,637.0337276999926,637.0337276999926,637.0337276999926,old_sceneOut_44.png,174,5.0,1.4479858999984572,,,082,10,2025-06-25_16h34.48.155,Surprise recog test,2023.1.3,59.95074446667667,
174,0,174,0,,,,,,,,,,,,,,,,,,,,,,,,,,,,,,,,,,641.2017134000052,642.2092157000006,639.4904899999965,639.4904899999965,639.4904899999965,639.4904899999965,new_fruit_28.png,175,5.0,1.706867399989278,,,082,10,2025-06-25_16h34.48.155,Surprise recog test,2023.1.3,59.95074446667667,
175,0,175,0,,,,,,,,,,,,,,,,,,,,,,,,,,,,,,,,,,644.5114904999937,645.5394192999956,642.2092157000006,642.2092157000006,642.2092157000006,642.2092157000006,old_stationery_18.png,176,1.0,2.2952168000047095,,,082,10,2025-06-25_16h34.48.155,Surprise recog test,2023.1.3,59.95074446667667,
176,0,176,0,,,,,,,,,,,,,,,,,,,,,,,,,,,,,,,,,,647.6862033999932,648.6982127999945,645.5394192999956,645.5394192999956,645.5394192999956,645.5394192999956,new_sceneIn_32.png,177,5.0,2.148721299992758,,,082,10,2025-06-25_16h34.48.155,Surprise recog test,2023.1.3,59.95074446667667,
177,0,177,0,,,,,,,,,,,,,,,,,,,,,,,,,,,,,,,,,,650.8347973999917,651.8640420000011,648.6982127999945,648.6982127999945,648.6982127999945,648.6982127999945,new_sceneIn_21.png,178,4.0,2.131658199999947,,,082,10,2025-06-25_16h34.48.155,Surprise recog test,2023.1.3,59.95074446667667,
178,0,178,0,,,,,,,,,,,,,,,,,,,,,,,,,,,,,,,,,,653.5258698999969,654.5407255000027,651.8640420000011,651.8640420000011,651.8640420000011,651.8640420000011,old_sceneOut_35.png,179,4.0,1.6612845999916317,,,082,10,2025-06-25_16h34.48.155,Surprise recog test,2023.1.3,59.95074446667667,
179,0,179,0,,,,,,,,,,,,,,,,,,,,,,,,,,,,,,,,,,656.3486566999927,657.3630449000048,654.5407255000027,654.5407255000027,654.5407255000027,654.5407255000027,old_sceneOut_20.png,180,5.0,1.805307200003881,,,082,10,2025-06-25_16h34.48.155,Surprise recog test,2023.1.3,59.95074446667667,
180,0,180,0,,,,,,,,,,,,,,,,,,,,,,,,,,,,,,,,,,659.8839138000039,660.8915083000029,657.3630449000048,657.3630449000048,657.3630449000048,657.3630449000048,old_sceneIn_26.png,181,4.0,2.520045299999765,,,082,10,2025-06-25_16h34.48.155,Surprise recog test,2023.1.3,59.95074446667667,
181,0,181,0,,,,,,,,,,,,,,,,,,,,,,,,,,,,,,,,,,662.6588002999924,663.6773366999987,660.8915083000029,660.8915083000029,660.8915083000029,660.8915083000029,old_fruit_43.png,182,4.0,1.7605421999905957,,,082,10,2025-06-25_16h34.48.155,Surprise recog test,2023.1.3,59.95074446667667,
182,0,182,0,,,,,,,,,,,,,,,,,,,,,,,,,,,,,,,,,,666.2601649999997,667.2909321000043,663.6773366999987,663.6773366999987,663.6773366999987,663.6773366999987,new_stationery_41.png,183,4.0,2.5787017999973614,,,082,10,2025-06-25_16h34.48.155,Surprise recog test,2023.1.3,59.95074446667667,
183,0,183,0,,,,,,,,,,,,,,,,,,,,,,,,,,,,,,,,,,669.5497482999926,670.5746877999918,667.2909321000043,667.2909321000043,667.2909321000043,667.2909321000043,new_stationery_23.png,184,3.0,2.2607247999985702,,,082,10,2025-06-25_16h34.48.155,Surprise recog test,2023.1.3,59.95074446667667,
184,0,184,0,,,,,,,,,,,,,,,,,,,,,,,,,,,,,,,,,,672.3785849999986,673.4031224999926,670.5746877999918,670.5746877999918,670.5746877999918,670.5746877999918,old_fruit_23.png,185,4.0,1.8032310000126017,,,082,10,2025-06-25_16h34.48.155,Surprise recog test,2023.1.3,59.95074446667667,
185,0,185,0,,,,,,,,,,,,,,,,,,,,,,,,,,,,,,,,,,674.4200271000009,675.4409764000011,673.4031224999926,673.4031224999926,673.4031224999926,673.4031224999926,new_fruit_1.png,186,4.0,1.0202427000040188,,,082,10,2025-06-25_16h34.48.155,Surprise recog test,2023.1.3,59.95074446667667,
186,0,186,0,,,,,,,,,,,,,,,,,,,,,,,,,,,,,,,,,,677.4465420999913,678.4702837999939,675.4409764000011,675.4409764000011,675.4409764000011,675.4409764000011,new_sceneOut_34.png,187,4.0,2.0043997000029776,,,082,10,2025-06-25_16h34.48.155,Surprise recog test,2023.1.3,59.95074446667667,
187,0,187,0,,,,,,,,,,,,,,,,,,,,,,,,,,,,,,,,,,681.9608772999927,682.9883613999991,678.4702837999939,678.4702837999939,678.4702837999939,678.4702837999939,old_stationery_17.png,188,3.0,3.4929162000044016,,,082,10,2025-06-25_16h34.48.155,Surprise recog test,2023.1.3,59.95074446667667,
188,0,188,0,,,,,,,,,,,,,,,,,,,,,,,,,,,,,,,,,,685.1790556999913,686.1970766000013,682.9883613999991,682.9883613999991,682.9883613999991,682.9883613999991,old_stationery_23.png,189,1.0,2.1923395000048913,,,082,10,2025-06-25_16h34.48.155,Surprise recog test,2023.1.3,59.95074446667667,
189,0,189,0,,,,,,,,,,,,,,,,,,,,,,,,,,,,,,,,,,688.4420983000018,689.4557459999924,686.1970766000013,686.1970766000013,686.1970766000013,686.1970766000013,new_sceneOut_22.png,190,4.0,2.239820699993288,,,082,10,2025-06-25_16h34.48.155,Surprise recog test,2023.1.3,59.95074446667667,
190,0,190,0,,,,,,,,,,,,,,,,,,,,,,,,,,,,,,,,,,691.1534960999998,692.1776548000053,689.4557459999924,689.4557459999924,689.4557459999924,689.4557459999924,new_stationery_19.png,191,4.0,1.697629300004337,,,082,10,2025-06-25_16h34.48.155,Surprise recog test,2023.1.3,59.95074446667667,
191,0,191,0,,,,,,,,,,,,,,,,,,,,,,,,,,,,,,,,,,693.728260200005,694.7419459999946,692.1776548000053,692.1776548000053,692.1776548000053,692.1776548000053,old_stationery_3.png,192,1.0,1.551968100000522,,,082,10,2025-06-25_16h34.48.155,Surprise recog test,2023.1.3,59.95074446667667,
192,0,192,0,,,,,,,,,,,,,,,,,,,,,,,,,,,,,,,,,,697.2148252000043,698.2228357999993,694.7419459999946,694.7419459999946,694.7419459999946,694.7419459999946,new_fruit_18.png,193,3.0,2.4734068999969168,,,082,10,2025-06-25_16h34.48.155,Surprise recog test,2023.1.3,59.95074446667667,
193,0,193,0,,,,,,,,,,,,,,,,,,,,,,,,,,,,,,,,,,699.9504135000025,700.9708726999961,698.2228357999993,698.2228357999993,698.2228357999993,698.2228357999993,new_fruit_9.png,194,4.0,1.7226240000018151,,,082,10,2025-06-25_16h34.48.155,Surprise recog test,2023.1.3,59.95074446667667,
194,0,194,0,,,,,,,,,,,,,,,,,,,,,,,,,,,,,,,,,,702.7562484999944,,700.9708726999961,700.9708726999961,700.9708726999961,700.9708726999961,new_sceneIn_13.png,195,5.0,1.7856538999913028,,,082,10,2025-06-25_16h34.48.155,Surprise recog test,2023.1.3,59.95074446667667,
195,0,195,0,,,,,,,,,,,,,,,,,,,,,,,,,,,,,,,,,,704.8799942000041,705.9079875000025,703.7766000999982,703.7766000999982,703.7766000999982,703.7766000999982,new_sceneIn_45.png,196,5.0,1.099270799997612,,,082,10,2025-06-25_16h34.48.155,Surprise recog test,2023.1.3,59.95074446667667,
196,0,196,0,,,,,,,,,,,,,,,,,,,,,,,,,,,,,,,,,,708.7157613000018,709.7461277999973,705.9079875000025,705.9079875000025,705.9079875000025,705.9079875000025,old_sceneOut_21.png,197,5.0,2.8074253000086173,,,082,10,2025-06-25_16h34.48.155,Surprise recog test,2023.1.3,59.95074446667667,
197,0,197,0,,,,,,,,,,,,,,,,,,,,,,,,,,,,,,,,,,711.1732068999991,712.1993417000049,709.7461277999973,709.7461277999973,709.7461277999973,709.7461277999973,old_sceneIn_21.png,198,5.0,1.4294924999994691,,,082,10,2025-06-25_16h34.48.155,Surprise recog test,2023.1.3,59.95074446667667,
198,0,198,0,,,,,,,,,,,,,,,,,,,,,,,,,,,,,,,,,,714.0866792000015,715.1147359000024,712.1993417000049,712.1993417000049,712.1993417000049,712.1993417000049,new_sceneOut_31.png,199,5.0,1.8916431999969063,,,082,10,2025-06-25_16h34.48.155,Surprise recog test,2023.1.3,59.95074446667667,
199,0,199,0,,,,,,,,,,,,,,,,,,,,,,,,,,,,,,,,,,717.0861599999917,,715.1147359000024,715.1147359000024,715.1147359000024,715.1147359000024,old_sceneIn_41.png,200,4.0,1.9697879000013927,,,082,10,2025-06-25_16h34.48.155,Surprise recog test,2023.1.3,59.95074446667667,
200,0,200,0,,,,,,,,,,,,,,,,,,,,,,,,,,,,,,,,,,720.7058550999936,721.734987799995,718.1175300000032,718.1175300000032,718.1175300000032,718.1175300000032,new_stationery_33.png,201,4.0,2.589653000002727,,,082,10,2025-06-25_16h34.48.155,Surprise recog test,2023.1.3,59.95074446667667,
201,0,201,0,,,,,,,,,,,,,,,,,,,,,,,,,,,,,,,,,,724.0254318999941,725.0559205000027,721.734987799995,721.734987799995,721.734987799995,721.734987799995,new_sceneIn_49.png,202,4.0,2.290206699995906,,,082,10,2025-06-25_16h34.48.155,Surprise recog test,2023.1.3,59.95074446667667,
202,0,202,0,,,,,,,,,,,,,,,,,,,,,,,,,,,,,,,,,,727.4250542999944,728.4430974999996,725.0559205000027,725.0559205000027,725.0559205000027,725.0559205000027,new_sceneOut_45.png,203,4.0,2.368407299989485,,,082,10,2025-06-25_16h34.48.155,Surprise recog test,2023.1.3,59.95074446667667,
203,0,203,0,,,,,,,,,,,,,,,,,,,,,,,,,,,,,,,,,,730.1927466000052,731.2115638999967,728.4430974999996,728.4430974999996,728.4430974999996,728.4430974999996,old_sceneIn_3.png,204,5.0,1.7514369999989867,,,082,10,2025-06-25_16h34.48.155,Surprise recog test,2023.1.3,59.95074446667667,
204,0,204,0,,,,,,,,,,,,,,,,,,,,,,,,,,,,,,,,,,732.8630176000006,733.8767231999955,731.2115638999967,731.2115638999967,731.2115638999967,731.2115638999967,old_sceneOut_48.png,205,5.0,1.650600699998904,,,082,10,2025-06-25_16h34.48.155,Surprise recog test,2023.1.3,59.95074446667667,
205,0,205,0,,,,,,,,,,,,,,,,,,,,,,,,,,,,,,,,,,734.8898470999993,735.9112762000004,733.8767231999955,733.8767231999955,733.8767231999955,733.8767231999955,old_sceneOut_12.png,206,5.0,1.012907999989693,,,082,10,2025-06-25_16h34.48.155,Surprise recog test,2023.1.3,59.95074446667667,
206,0,206,0,,,,,,,,,,,,,,,,,,,,,,,,,,,,,,,,,,738.5451285000017,739.5567366000032,735.9112762000004,735.9112762000004,735.9112762000004,735.9112762000004,new_fruit_37.png,207,4.0,2.632913400011603,,,082,10,2025-06-25_16h34.48.155,Surprise recog test,2023.1.3,59.95074446667667,
207,0,207,0,,,,,,,,,,,,,,,,,,,,,,,,,,,,,,,,,,741.9535194999917,742.959568899998,739.5567366000032,739.5567366000032,739.5567366000032,739.5567366000032,new_stationery_20.png,208,4.0,2.3934047000075225,,,082,10,2025-06-25_16h34.48.155,Surprise recog test,2023.1.3,59.95074446667667,
208,0,208,0,,,,,,,,,,,,,,,,,,,,,,,,,,,,,,,,,,744.6501791000046,745.6645680999936,742.959568899998,742.959568899998,742.959568899998,742.959568899998,old_fruit_18.png,209,1.0,1.6844049000064842,,,082,10,2025-06-25_16h34.48.155,Surprise recog test,2023.1.3,59.95074446667667,
209,0,209,0,,,,,,,,,,,,,,,,,,,,,,,,,,,,,,,,,,747.4453407999972,748.4649583999999,745.6645680999936,745.6645680999936,745.6645680999936,745.6645680999936,new_fruit_49.png,210,4.0,1.7752138000068953,,,082,10,2025-06-25_16h34.48.155,Surprise recog test,2023.1.3,59.95074446667667,
210,0,210,0,,,,,,,,,,,,,,,,,,,,,,,,,,,,,,,,,,750.6101457000041,751.6252262999915,748.4649583999999,748.4649583999999,748.4649583999999,748.4649583999999,old_stationery_2.png,211,1.0,2.141235399991274,,,082,10,2025-06-25_16h34.48.155,Surprise recog test,2023.1.3,59.95074446667667,
211,0,211,0,,,,,,,,,,,,,,,,,,,,,,,,,,,,,,,,,,754.2432136999996,755.2702692000021,751.6252262999915,751.6252262999915,751.6252262999915,751.6252262999915,old_sceneOut_19.png,212,5.0,2.6155161000060616,,,082,10,2025-06-25_16h34.48.155,Surprise recog test,2023.1.3,59.95074446667667,
212,0,212,0,,,,,,,,,,,,,,,,,,,,,,,,,,,,,,,,,,758.2795547999995,759.287184300003,755.2702692000021,755.2702692000021,755.2702692000021,755.2702692000021,old_sceneIn_10.png,213,1.0,3.012472300004447,,,082,10,2025-06-25_16h34.48.155,Surprise recog test,2023.1.3,59.95074446667667,
213,0,213,0,,,,,,,,,,,,,,,,,,,,,,,,,,,,,,,,,,761.0560414999927,762.0762937999971,759.287184300003,759.287184300003,759.287184300003,759.287184300003,new_stationery_4.png,214,1.0,1.765391199995065,,,082,10,2025-06-25_16h34.48.155,Surprise recog test,2023.1.3,59.95074446667667,
214,0,214,0,,,,,,,,,,,,,,,,,,,,,,,,,,,,,,,,,,764.5647764000023,765.5939306999935,762.0762937999971,762.0762937999971,762.0762937999971,762.0762937999971,new_sceneOut_15.png,215,4.0,2.4842501999955857,,,082,10,2025-06-25_16h34.48.155,Surprise recog test,2023.1.3,59.95074446667667,
215,0,215,0,,,,,,,,,,,,,,,,,,,,,,,,,,,,,,,,,,767.7849993999989,768.8061656999926,765.5939306999935,765.5939306999935,765.5939306999935,765.5939306999935,old_sceneIn_5.png,216,5.0,2.1928172999905655,,,082,10,2025-06-25_16h34.48.155,Surprise recog test,2023.1.3,59.95074446667667,
216,0,216,0,,,,,,,,,,,,,,,,,,,,,,,,,,,,,,,,,,770.4543966999918,771.4806673999992,768.8061656999926,768.8061656999926,768.8061656999926,768.8061656999926,old_stationery_29.png,217,1.0,1.6398062000080245,,,082,10,2025-06-25_16h34.48.155,Surprise recog test,2023.1.3,59.95074446667667,
217,0,217,0,,,,,,,,,,,,,,,,,,,,,,,,,,,,,,,,,,773.6485507000034,,771.4806673999992,771.4806673999992,771.4806673999992,771.4806673999992,new_fruit_12.png,218,4.0,2.169550899998285,,,082,10,2025-06-25_16h34.48.155,Surprise recog test,2023.1.3,59.95074446667667,
218,0,218,0,,,,,,,,,,,,,,,,,,,,,,,,,,,,,,,,,,776.2930091000017,777.3054715000035,774.6688940000022,774.6688940000022,774.6688940000022,774.6688940000022,new_sceneOut_32.png,219,4.0,1.6193639999983134,,,082,10,2025-06-25_16h34.48.155,Surprise recog test,2023.1.3,59.95074446667667,
219,0,219,0,,,,,,,,,,,,,,,,,,,,,,,,,,,,,,,,,,779.936271300001,,777.3054715000035,777.3054715000035,777.3054715000035,777.3054715000035,new_stationery_16.png,220,4.0,2.626224399995408,,,082,10,2025-06-25_16h34.48.155,Surprise recog test,2023.1.3,59.95074446667667,
220,0,220,0,,,,,,,,,,,,,,,,,,,,,,,,,,,,,,,,,,782.6190098999941,783.6396727999963,780.9711210999958,780.9711210999958,780.9711210999958,780.9711210999958,new_stationery_8.png,221,5.0,1.6497322999930475,,,082,10,2025-06-25_16h34.48.155,Surprise recog test,2023.1.3,59.95074446667667,
221,0,221,0,,,,,,,,,,,,,,,,,,,,,,,,,,,,,,,,,,785.8605554999958,786.8862492000044,783.6396727999963,783.6396727999963,783.6396727999963,783.6396727999963,old_fruit_13.png,222,5.0,2.2225401000032434,,,082,10,2025-06-25_16h34.48.155,Surprise recog test,2023.1.3,59.95074446667667,
222,0,222,0,,,,,,,,,,,,,,,,,,,,,,,,,,,,,,,,,,789.1998218999943,790.2294088000053,786.8862492000044,786.8862492000044,786.8862492000044,786.8862492000044,new_sceneIn_17.png,223,5.0,2.3144593999895733,,,082,10,2025-06-25_16h34.48.155,Surprise recog test,2023.1.3,59.95074446667667,
223,0,223,0,,,,,,,,,,,,,,,,,,,,,,,,,,,,,,,,,,791.5373294000019,792.5634698999929,790.2294088000053,790.2294088000053,790.2294088000053,790.2294088000053,old_sceneOut_31.png,224,5.0,1.3098082999931648,,,082,10,2025-06-25_16h34.48.155,Surprise recog test,2023.1.3,59.95074446667667,
224,0,224,0,,,,,,,,,,,,,,,,,,,,,,,,,,,,,,,,,,794.2083427000034,795.2164468999981,792.5634698999929,792.5634698999929,792.5634698999929,792.5634698999929,new_stationery_39.png,225,5.0,1.6453394999989541,,,082,10,2025-06-25_16h34.48.155,Surprise recog test,2023.1.3,59.95074446667667,
225,0,225,0,,,,,,,,,,,,,,,,,,,,,,,,,,,,,,,,,,797.4053950999951,798.422825799993,795.2164468999981,795.2164468999981,795.2164468999981,795.2164468999981,new_sceneOut_9.png,226,4.0,2.185004899991327,,,082,10,2025-06-25_16h34.48.155,Surprise recog test,2023.1.3,59.95074446667667,
226,0,226,0,,,,,,,,,,,,,,,,,,,,,,,,,,,,,,,,,,800.9283549999964,801.9550836999988,798.422825799993,798.422825799993,798.422825799993,798.422825799993,new_fruit_40.png,227,4.0,2.501230800000485,,,082,10,2025-06-25_16h34.48.155,Surprise recog test,2023.1.3,59.95074446667667,
227,0,227,0,,,,,,,,,,,,,,,,,,,,,,,,,,,,,,,,,,803.7063314999978,,801.9550836999988,801.9550836999988,801.9550836999988,801.9550836999988,new_sceneOut_18.png,228,5.0,1.7531013999978313,,,082,10,2025-06-25_16h34.48.155,Surprise recog test,2023.1.3,59.95074446667667,
228,0,228,0,,,,,,,,,,,,,,,,,,,,,,,,,,,,,,,,,,806.0719925000012,807.0921511999913,804.7278551999916,804.7278551999916,804.7278551999916,804.7278551999916,old_sceneOut_3.png,229,5.0,1.3371594000054756,,,082,10,2025-06-25_16h34.48.155,Surprise recog test,2023.1.3,59.95074446667667,
229,0,229,0,,,,,,,,,,,,,,,,,,,,,,,,,,,,,,,,,,809.2420606999949,810.2453247999947,807.0921511999913,807.0921511999913,807.0921511999913,807.0921511999913,new_fruit_2.png,230,4.0,2.1521934999909718,,,082,10,2025-06-25_16h34.48.155,Surprise recog test,2023.1.3,59.95074446667667,
230,0,230,0,,,,,,,,,,,,,,,,,,,,,,,,,,,,,,,,,,811.7600060999976,812.7744749999983,810.2453247999947,810.2453247999947,810.2453247999947,810.2453247999947,new_fruit_47.png,231,4.0,1.5076624999928754,,,082,10,2025-06-25_16h34.48.155,Surprise recog test,2023.1.3,59.95074446667667,
231,0,231,0,,,,,,,,,,,,,,,,,,,,,,,,,,,,,,,,,,814.9211248999927,815.9473505999922,812.7744749999983,812.7744749999983,812.7744749999983,812.7744749999983,old_sceneOut_46.png,232,4.0,2.1456475000013597,,,082,10,2025-06-25_16h34.48.155,Surprise recog test,2023.1.3,59.95074446667667,
232,0,232,0,,,,,,,,,,,,,,,,,,,,,,,,,,,,,,,,,,817.7795156999928,818.789843999999,815.9473505999922,815.9473505999922,815.9473505999922,815.9473505999922,old_stationery_16.png,233,1.0,1.834184399995138,,,082,10,2025-06-25_16h34.48.155,Surprise recog test,2023.1.3,59.95074446667667,
233,0,233,0,,,,,,,,,,,,,,,,,,,,,,,,,,,,,,,,,,820.5743734999996,821.6035980000015,818.789843999999,818.789843999999,818.789843999999,818.789843999999,new_sceneIn_1.png,234,5.0,1.780352000001585,,,082,10,2025-06-25_16h34.48.155,Surprise recog test,2023.1.3,59.95074446667667,
234,0,234,0,,,,,,,,,,,,,,,,,,,,,,,,,,,,,,,,,,824.0506225999998,825.0769778999966,821.6035980000015,821.6035980000015,821.6035980000015,821.6035980000015,old_fruit_32.png,235,5.0,2.447365299987723,,,082,10,2025-06-25_16h34.48.155,Surprise recog test,2023.1.3,59.95074446667667,
235,0,235,0,,,,,,,,,,,,,,,,,,,,,,,,,,,,,,,,,,827.352444499993,828.3719124000054,825.0769778999966,825.0769778999966,825.0769778999966,825.0769778999966,old_sceneIn_47.png,236,4.0,2.276564400002826,,,082,10,2025-06-25_16h34.48.155,Surprise recog test,2023.1.3,59.95074446667667,
236,0,236,0,,,,,,,,,,,,,,,,,,,,,,,,,,,,,,,,,,830.8084282999916,831.8228202000028,828.3719124000054,828.3719124000054,828.3719124000054,828.3719124000054,new_stationery_7.png,237,5.0,2.43735610001022,,,082,10,2025-06-25_16h34.48.155,Surprise recog test,2023.1.3,59.95074446667667,
237,0,237,0,,,,,,,,,,,,,,,,,,,,,,,,,,,,,,,,,,834.7181153999991,835.7496713,831.8228202000028,831.8228202000028,831.8228202000028,831.8228202000028,old_sceneOut_4.png,238,4.0,2.893927800003439,,,082,10,2025-06-25_16h34.48.155,Surprise recog test,2023.1.3,59.95074446667667,
238,0,238,0,,,,,,,,,,,,,,,,,,,,,,,,,,,,,,,,,,837.3915546999924,838.4195447999955,835.7496713,835.7496713,835.7496713,835.7496713,new_fruit_26.png,239,3.0,1.6419200000091223,,,082,10,2025-06-25_16h34.48.155,Surprise recog test,2023.1.3,59.95074446667667,
239,0,239,0,,,,,,,,,,,,,,,,,,,,,,,,,,,,,,,,,,840.1686811999971,841.1902015999949,838.4195447999955,838.4195447999955,838.4195447999955,838.4195447999955,old_sceneIn_28.png,240,4.0,1.7498090000008233,,,082,10,2025-06-25_16h34.48.155,Surprise recog test,2023.1.3,59.95074446667667,
240,0,240,0,,,,,,,,,,,,,,,,,,,,,,,,,,,,,,,,,,843.8776741000038,844.9089370000002,841.1902015999949,841.1902015999949,841.1902015999949,841.1902015999949,old_fruit_10.png,241,2.0,2.689814399986062,,,082,10,2025-06-25_16h34.48.155,Surprise recog test,2023.1.3,59.95074446667667,
241,0,241,0,,,,,,,,,,,,,,,,,,,,,,,,,,,,,,,,,,847.5313356999977,848.5592877000017,844.9089370000002,844.9089370000002,844.9089370000002,844.9089370000002,new_stationery_10.png,242,4.0,2.62408239999786,,,082,10,2025-06-25_16h34.48.155,Surprise recog test,2023.1.3,59.95074446667667,
242,0,242,0,,,,,,,,,,,,,,,,,,,,,,,,,,,,,,,,,,850.6243074999948,851.6428025999921,848.5592877000017,848.5592877000017,848.5592877000017,848.5592877000017,old_sceneOut_38.png,243,4.0,2.066310700000031,,,082,10,2025-06-25_16h34.48.155,Surprise recog test,2023.1.3,59.95074446667667,
243,0,243,0,,,,,,,,,,,,,,,,,,,,,,,,,,,,,,,,,,853.9551636999968,854.9697245999996,851.6428025999921,851.6428025999921,851.6428025999921,851.6428025999921,new_stationery_31.png,244,5.0,2.3131534999993164,,,082,10,2025-06-25_16h34.48.155,Surprise recog test,2023.1.3,59.95074446667667,
244,0,244,0,,,,,,,,,,,,,,,,,,,,,,,,,,,,,,,,,,856.9451471999928,857.9678796999942,854.9697245999996,854.9697245999996,854.9697245999996,854.9697245999996,old_fruit_30.png,245,3.0,1.9687106000055792,,,082,10,2025-06-25_16h34.48.155,Surprise recog test,2023.1.3,59.95074446667667,
245,0,245,0,,,,,,,,,,,,,,,,,,,,,,,,,,,,,,,,,,859.2672923999926,860.2801041000057,857.9678796999942,857.9678796999942,857.9678796999942,857.9678796999942,new_fruit_44.png,246,3.0,1.3016386000090279,,,082,10,2025-06-25_16h34.48.155,Surprise recog test,2023.1.3,59.95074446667667,
246,0,246,0,,,,,,,,,,,,,,,,,,,,,,,,,,,,,,,,,,861.8991887000011,862.9195629000023,860.2801041000057,860.2801041000057,860.2801041000057,860.2801041000057,old_fruit_29.png,247,3.0,1.6203007000003709,,,082,10,2025-06-25_16h34.48.155,Surprise recog test,2023.1.3,59.95074446667667,
247,0,247,0,,,,,,,,,,,,,,,,,,,,,,,,,,,,,,,,,,864.7396693000046,,862.9195629000023,862.9195629000023,862.9195629000023,862.9195629000023,new_fruit_38.png,248,4.0,1.8196707999886712,,,082,10,2025-06-25_16h34.48.155,Surprise recog test,2023.1.3,59.95074446667667,
248,0,248,0,,,,,,,,,,,,,,,,,,,,,,,,,,,,,,,,,,867.2508889000019,868.2760962000029,865.7630823999934,865.7630823999934,865.7630823999934,865.7630823999934,old_fruit_27.png,249,4.0,1.4848762000037823,,,082,10,2025-06-25_16h34.48.155,Surprise recog test,2023.1.3,59.95074446667667,
249,0,249,0,,,,,,,,,,,,,,,,,,,,,,,,,,,,,,,,,,870.7575941999967,871.7801992000022,868.2760962000029,868.2760962000029,868.2760962000029,868.2760962000029,old_sceneOut_34.png,250,3.0,2.482836600000155,,,082,10,2025-06-25_16h34.48.155,Surprise recog test,2023.1.3,59.95074446667667,
250,0,250,0,,,,,,,,,,,,,,,,,,,,,,,,,,,,,,,,,,874.4665590999939,,871.7801992000022,871.7801992000022,871.7801992000022,871.7801992000022,new_sceneIn_47.png,251,4.0,2.6873972000030335,,,082,10,2025-06-25_16h34.48.155,Surprise recog test,2023.1.3,59.95074446667667,
251,0,251,0,,,,,,,,,,,,,,,,,,,,,,,,,,,,,,,,,,877.0221365000034,878.0507695999986,875.4865532999975,875.4865532999975,875.4865532999975,875.4865532999975,new_stationery_5.png,252,4.0,1.5269327000132762,,,082,10,2025-06-25_16h34.48.155,Surprise recog test,2023.1.3,59.95074446667667,
252,0,252,0,,,,,,,,,,,,,,,,,,,,,,,,,,,,,,,,,,880.5839042000007,881.5929863999918,878.0507695999986,878.0507695999986,878.0507695999986,878.0507695999986,new_sceneOut_3.png,253,4.0,2.5328971999988426,,,082,10,2025-06-25_16h34.48.155,Surprise recog test,2023.1.3,59.95074446667667,
253,0,253,0,,,,,,,,,,,,,,,,,,,,,,,,,,,,,,,,,,884.3428858999978,885.360554800005,881.5929863999918,881.5929863999918,881.5929863999918,881.5929863999918,new_sceneIn_12.png,254,5.0,2.743484599996009,,,082,10,2025-06-25_16h34.48.155,Surprise recog test,2023.1.3,59.95074446667667,
254,0,254,0,,,,,,,,,,,,,,,,,,,,,,,,,,,,,,,,,,886.4662309999985,887.494798700005,885.360554800005,885.360554800005,885.360554800005,885.360554800005,new_sceneIn_46.png,255,5.0,1.1014827000035439,,,082,10,2025-06-25_16h34.48.155,Surprise recog test,2023.1.3,59.95074446667667,
255,0,255,0,,,,,,,,,,,,,,,,,,,,,,,,,,,,,,,,,,889.1190534999914,890.1325991000049,887.494798700005,887.494798700005,887.494798700005,887.494798700005,new_sceneIn_24.png,256,5.0,1.624499099998502,,,082,10,2025-06-25_16h34.48.155,Surprise recog test,2023.1.3,59.95074446667667,
256,0,256,0,,,,,,,,,,,,,,,,,,,,,,,,,,,,,,,,,,892.4090570999979,893.4238733999955,890.1325991000049,890.1325991000049,890.1325991000049,890.1325991000049,old_sceneIn_23.png,257,4.0,2.2720630999974674,,,082,10,2025-06-25_16h34.48.155,Surprise recog test,2023.1.3,59.95074446667667,
257,0,257,0,,,,,,,,,,,,,,,,,,,,,,,,,,,,,,,,,,894.843998700002,895.8643827999913,893.4238733999955,893.4238733999955,893.4238733999955,893.4238733999955,new_sceneOut_44.png,258,5.0,1.4193394999892917,,,082,10,2025-06-25_16h34.48.155,Surprise recog test,2023.1.3,59.95074446667667,
258,0,258,0,,,,,,,,,,,,,,,,,,,,,,,,,,,,,,,,,,897.8813498999953,898.8993804999918,895.8643827999913,895.8643827999913,895.8643827999913,895.8643827999913,old_sceneOut_33.png,259,3.0,2.0177494999952614,,,082,10,2025-06-25_16h34.48.155,Surprise recog test,2023.1.3,59.95074446667667,
259,0,259,0,,,,,,,,,,,,,,,,,,,,,,,,,,,,,,,,,,900.492436799992,901.508872099992,898.8993804999918,898.8993804999918,898.8993804999918,898.8993804999918,new_sceneIn_15.png,260,4.0,1.5950138999905903,,,082,10,2025-06-25_16h34.48.155,Surprise recog test,2023.1.3,59.95074446667667,
260,0,260,0,,,,,,,,,,,,,,,,,,,,,,,,,,,,,,,,,,903.6440952999983,904.6701764000027,901.508872099992,901.508872099992,901.508872099992,901.508872099992,old_sceneIn_8.png,261,1.0,2.1301272999990033,,,082,10,2025-06-25_16h34.48.155,Surprise recog test,2023.1.3,59.95074446667667,
261,0,261,0,,,,,,,,,,,,,,,,,,,,,,,,,,,,,,,,,,905.7213517000055,906.7342356000008,904.6701764000027,904.6701764000027,904.6701764000027,904.6701764000027,old_stationery_48.png,262,1.0,1.0515082000056282,,,082,10,2025-06-25_16h34.48.155,Surprise recog test,2023.1.3,59.95074446667667,
262,0,262,0,,,,,,,,,,,,,,,,,,,,,,,,,,,,,,,,,,909.0675300000003,910.0919125999935,906.7342356000008,906.7342356000008,906.7342356000008,906.7342356000008,old_fruit_33.png,263,3.0,2.3320853000041097,,,082,10,2025-06-25_16h34.48.155,Surprise recog test,2023.1.3,59.95074446667667,
263,0,263,0,,,,,,,,,,,,,,,,,,,,,,,,,,,,,,,,,,913.0441525999922,914.0659835999977,910.0919125999935,910.0919125999935,910.0919125999935,910.0919125999935,old_sceneIn_11.png,264,3.0,2.953622800006997,,,082,10,2025-06-25_16h34.48.155,Surprise recog test,2023.1.3,59.95074446667667,
264,0,264,0,,,,,,,,,,,,,,,,,,,,,,,,,,,,,,,,,,915.5265767999954,916.5414584999962,914.0659835999977,914.0659835999977,914.0659835999977,914.0659835999977,old_stationery_45.png,265,1.0,1.4628770999988774,,,082,10,2025-06-25_16h34.48.155,Surprise recog test,2023.1.3,59.95074446667667,
265,0,265,0,,,,,,,,,,,,,,,,,,,,,,,,,,,,,,,,,,919.3008629999968,920.3197260000015,916.5414584999962,916.5414584999962,916.5414584999962,916.5414584999962,new_stationery_2.png,266,2.0,2.7595144999941112,,,082,10,2025-06-25_16h34.48.155,Surprise recog test,2023.1.3,59.95074446667667,
266,0,266,0,,,,,,,,,,,,,,,,,,,,,,,,,,,,,,,,,,922.204542499996,,920.3197260000015,920.3197260000015,920.3197260000015,920.3197260000015,old_fruit_15.png,267,3.0,1.886425099990447,,,082,10,2025-06-25_16h34.48.155,Surprise recog test,2023.1.3,59.95074446667667,
267,0,267,0,,,,,,,,,,,,,,,,,,,,,,,,,,,,,,,,,,925.6531923000002,926.6780410999927,923.2341332999931,923.2341332999931,923.2341332999931,923.2341332999931,old_sceneIn_49.png,268,4.0,2.4212559000006877,,,082,10,2025-06-25_16h34.48.155,Surprise recog test,2023.1.3,59.95074446667667,
268,0,268,0,,,,,,,,,,,,,,,,,,,,,,,,,,,,,,,,,,928.5236603999947,929.5375774999993,926.6780410999927,926.6780410999927,926.6780410999927,926.6780410999927,new_stationery_42.png,269,5.0,1.8422467000054894,,,082,10,2025-06-25_16h34.48.155,Surprise recog test,2023.1.3,59.95074446667667,
269,0,269,0,,,,,,,,,,,,,,,,,,,,,,,,,,,,,,,,,,930.7287300000025,,929.5375774999993,929.5375774999993,929.5375774999993,929.5375774999993,new_stationery_11.png,270,5.0,1.1914727999974275,,,082,10,2025-06-25_16h34.48.155,Surprise recog test,2023.1.3,59.95074446667667,
270,0,270,0,,,,,,,,,,,,,,,,,,,,,,,,,,,,,,,,,,933.3680558999913,934.3976027000026,931.7599982999964,931.7599982999964,931.7599982999964,931.7599982999964,new_stationery_15.png,271,1.0,1.609175099991262,,,082,10,2025-06-25_16h34.48.155,Surprise recog test,2023.1.3,59.95074446667667,
271,0,271,0,,,,,,,,,,,,,,,,,,,,,,,,,,,,,,,,,,936.3924779999943,937.4188256000052,934.3976027000026,934.3976027000026,934.3976027000026,934.3976027000026,old_sceneOut_40.png,272,4.0,1.9956576000113273,,,082,10,2025-06-25_16h34.48.155,Surprise recog test,2023.1.3,59.95074446667667,
272,0,272,0,,,,,,,,,,,,,,,,,,,,,,,,,,,,,,,,,,939.8840192999924,940.8985503000004,937.4188256000052,937.4188256000052,937.4188256000052,937.4188256000052,new_sceneOut_33.png,273,4.0,2.4656738999910885,,,082,10,2025-06-25_16h34.48.155,Surprise recog test,2023.1.3,59.95074446667667,
273,0,273,0,,,,,,,,,,,,,,,,,,,,,,,,,,,,,,,,,,942.9200519000005,943.9252032999939,940.8985503000004,940.8985503000004,940.8985503000004,940.8985503000004,old_sceneIn_39.png,274,2.0,2.0193939999880968,,,082,10,2025-06-25_16h34.48.155,Surprise recog test,2023.1.3,59.95074446667667,
274,0,274,0,,,,,,,,,,,,,,,,,,,,,,,,,,,,,,,,,,945.9216554000013,946.9417382999964,943.9252032999939,943.9252032999939,943.9252032999939,943.9252032999939,new_sceneOut_38.png,275,4.0,1.9915237999957753,,,082,10,2025-06-25_16h34.48.155,Surprise recog test,2023.1.3,59.95074446667667,
275,0,275,0,,,,,,,,,,,,,,,,,,,,,,,,,,,,,,,,,,948.2552346000011,949.2716857999912,946.9417382999964,946.9417382999964,946.9417382999964,946.9417382999964,old_sceneIn_25.png,276,4.0,1.3146918999991613,,,082,10,2025-06-25_16h34.48.155,Surprise recog test,2023.1.3,59.95074446667667,
276,0,276,0,,,,,,,,,,,,,,,,,,,,,,,,,,,,,,,,,,950.3880355000001,951.4027145,949.2716857999912,949.2716857999912,949.2716857999912,949.2716857999912,old_sceneOut_24.png,277,4.0,1.1179610999970464,,,082,10,2025-06-25_16h34.48.155,Surprise recog test,2023.1.3,59.95074446667667,
277,0,277,0,,,,,,,,,,,,,,,,,,,,,,,,,,,,,,,,,,952.9680497999943,953.9955870999984,951.4027145,951.4027145,951.4027145,951.4027145,new_sceneOut_14.png,278,4.0,1.5656633000035072,,,082,10,2025-06-25_16h34.48.155,Surprise recog test,2023.1.3,59.95074446667667,
278,0,278,0,,,,,,,,,,,,,,,,,,,,,,,,,,,,,,,,,,955.3821824000042,,953.9955870999984,953.9955870999984,953.9955870999984,953.9955870999984,old_sceneOut_42.png,279,4.0,1.388290999995661,,,082,10,2025-06-25_16h34.48.155,Surprise recog test,2023.1.3,59.95074446667667,
279,0,279,0,,,,,,,,,,,,,,,,,,,,,,,,,,,,,,,,,,958.0816747999925,959.1026157000015,956.4158994000027,956.4158994000027,956.4158994000027,956.4158994000027,new_fruit_25.png,280,3.0,1.6632725000090431,,,082,10,2025-06-25_16h34.48.155,Surprise recog test,2023.1.3,59.95074446667667,
280,0,280,0,,,,,,,,,,,,,,,,,,,,,,,,,,,,,,,,,,961.6373697999952,,959.1026157000015,959.1026157000015,959.1026157000015,959.1026157000015,old_stationery_20.png,281,3.0,2.536882100001094,,,082,10,2025-06-25_16h34.48.155,Surprise recog test,2023.1.3,59.95074446667667,
281,0,281,0,,,,,,,,,,,,,,,,,,,,,,,,,,,,,,,,,,964.7386893999937,965.7573139000015,962.6663911999931,962.6663911999931,962.6663911999931,962.6663911999931,new_fruit_22.png,282,4.0,2.0710985000041546,,,082,10,2025-06-25_16h34.48.155,Surprise recog test,2023.1.3,59.95074446667667,
282,0,282,0,,,,,,,,,,,,,,,,,,,,,,,,,,,,,,,,,,967.9154484000028,968.9354332999937,965.7573139000015,965.7573139000015,965.7573139000015,965.7573139000015,new_sceneIn_3.png,283,4.0,2.158317800000077,,,082,10,2025-06-25_16h34.48.155,Surprise recog test,2023.1.3,59.95074446667667,
283,0,283,0,,,,,,,,,,,,,,,,,,,,,,,,,,,,,,,,,,971.0135251000029,972.0372425999958,968.9354332999937,968.9354332999937,968.9354332999937,968.9354332999937,new_sceneOut_8.png,284,4.0,2.078535099994042,,,082,10,2025-06-25_16h34.48.155,Surprise recog test,2023.1.3,59.95074446667667,
284,0,284,0,,,,,,,,,,,,,,,,,,,,,,,,,,,,,,,,,,973.2224777999945,974.2364465999999,972.0372425999958,972.0372425999958,972.0372425999958,972.0372425999958,new_fruit_5.png,285,4.0,1.18091410001216,,,082,10,2025-06-25_16h34.48.155,Surprise recog test,2023.1.3,59.95074446667667,
285,0,285,0,,,,,,,,,,,,,,,,,,,,,,,,,,,,,,,,,,976.6942232000001,977.7013578000042,974.2364465999999,974.2364465999999,974.2364465999999,974.2364465999999,old_sceneIn_46.png,286,5.0,2.455108399997698,,,082,10,2025-06-25_16h34.48.155,Surprise recog test,2023.1.3,59.95074446667667,
286,0,286,0,,,,,,,,,,,,,,,,,,,,,,,,,,,,,,,,,,979.2516999999934,,977.7013578000042,977.7013578000042,977.7013578000042,977.7013578000042,new_fruit_21.png,287,4.0,1.5441960000025574,,,082,10,2025-06-25_16h34.48.155,Surprise recog test,2023.1.3,59.95074446667667,
287,0,287,0,,,,,,,,,,,,,,,,,,,,,,,,,,,,,,,,,,982.6522814000054,983.6776370000007,980.2862507999962,980.2862507999962,980.2862507999962,980.2862507999962,old_sceneIn_29.png,288,5.0,2.367277200013632,,,082,10,2025-06-25_16h34.48.155,Surprise recog test,2023.1.3,59.95074446667667,
288,0,288,0,,,,,,,,,,,,,,,,,,,,,,,,,,,,,,,,,,985.1687251999974,986.1849145000015,983.6776370000007,983.6776370000007,983.6776370000007,983.6776370000007,old_fruit_21.png,289,5.0,1.4938343999965582,,,082,10,2025-06-25_16h34.48.155,Surprise recog test,2023.1.3,59.95074446667667,
289,0,289,0,,,,,,,,,,,,,,,,,,,,,,,,,,,,,,,,,,988.3090850000008,,986.1849145000015,986.1849145000015,986.1849145000015,986.1849145000015,old_sceneOut_11.png,290,4.0,2.1196683999878587,,,082,10,2025-06-25_16h34.48.155,Surprise recog test,2023.1.3,59.95074446667667,
290,0,290,0,,,,,,,,,,,,,,,,,,,,,,,,,,,,,,,,,,992.4082671999931,993.4282169999933,989.3271169999935,989.3271169999935,989.3271169999935,989.3271169999935,old_fruit_16.png,291,4.0,3.076914499994018,,,082,10,2025-06-25_16h34.48.155,Surprise recog test,2023.1.3,59.95074446667667,
291,0,291,0,,,,,,,,,,,,,,,,,,,,,,,,,,,,,,,,,,995.7886109999963,996.8102551000047,993.4282169999933,993.4282169999933,993.4282169999933,993.4282169999933,old_fruit_34.png,292,4.0,2.360181799987913,,,082,10,2025-06-25_16h34.48.155,Surprise recog test,2023.1.3,59.95074446667667,
292,0,292,0,,,,,,,,,,,,,,,,,,,,,,,,,,,,,,,,,,997.9859949999955,,996.8102551000047,996.8102551000047,996.8102551000047,996.8102551000047,new_fruit_17.png,293,4.0,1.1741232000058517,,,082,10,2025-06-25_16h34.48.155,Surprise recog test,2023.1.3,59.95074446667667,
293,0,293,0,,,,,,,,,,,,,,,,,,,,,,,,,,,,,,,,,,1002.2835271999938,1003.2926066999935,999.0172725000011,999.0172725000011,999.0172725000011,999.0172725000011,old_sceneIn_14.png,294,3.0,3.267259100000956,,,082,10,2025-06-25_16h34.48.155,Surprise recog test,2023.1.3,59.95074446667667,
294,0,294,0,,,,,,,,,,,,,,,,,,,,,,,,,,,,,,,,,,1005.8379207999969,1006.8601838000031,1003.2926066999935,1003.2926066999935,1003.2926066999935,1003.2926066999935,old_stationery_15.png,295,3.0,2.535918599998695,,,082,10,2025-06-25_16h34.48.155,Surprise recog test,2023.1.3,59.95074446667667,
295,0,295,0,,,,,,,,,,,,,,,,,,,,,,,,,,,,,,,,,,1008.9680657999997,1009.9906335999985,1006.8601838000031,1006.8601838000031,1006.8601838000031,1006.8601838000031,new_sceneOut_47.png,296,4.0,2.110709600005066,,,082,10,2025-06-25_16h34.48.155,Surprise recog test,2023.1.3,59.95074446667667,
296,0,296,0,,,,,,,,,,,,,,,,,,,,,,,,,,,,,,,,,,1012.4018522999977,1013.4288642000029,1009.9906335999985,1009.9906335999985,1009.9906335999985,1009.9906335999985,new_stationery_17.png,297,2.0,2.4096950000093784,,,082,10,2025-06-25_16h34.48.155,Surprise recog test,2023.1.3,59.95074446667667,
297,0,297,0,,,,,,,,,,,,,,,,,,,,,,,,,,,,,,,,,,1015.9759400000039,1016.9877259999921,1013.4288642000029,1013.4288642000029,1013.4288642000029,1013.4288642000029,old_fruit_12.png,298,3.0,2.546418599988101,,,082,10,2025-06-25_16h34.48.155,Surprise recog test,2023.1.3,59.95074446667667,
298,0,298,0,,,,,,,,,,,,,,,,,,,,,,,,,,,,,,,,,,1019.0531397000013,,1016.9877259999921,1016.9877259999921,1016.9877259999921,1016.9877259999921,new_stationery_3.png,299,2.0,2.059623000008287,,,082,10,2025-06-25_16h34.48.155,Surprise recog test,2023.1.3,59.95074446667667,
299,0,299,0,,,,,,,,,,,,,,,,,,,,,,,,,,,,,,,,,,1022.0897534999967,1023.1187401999923,1020.0858589999989,1020.0858589999989,1020.0858589999989,1020.0858589999989,old_fruit_20.png,300,3.0,2.005261700003757,,,082,10,2025-06-25_16h34.48.155,Surprise recog test,2023.1.3,59.95074446667667,
300,0,300,0,,,,,,,,,,,,,,,,,,,,,,,,,,,,,,,,,,1025.376052599997,1026.4066195999912,1023.1187401999923,1023.1187401999923,1023.1187401999923,1023.1187401999923,new_fruit_34.png,301,4.0,2.2604879999998957,,,082,10,2025-06-25_16h34.48.155,Surprise recog test,2023.1.3,59.95074446667667,
301,0,301,0,,,,,,,,,,,,,,,,,,,,,,,,,,,,,,,,,,1027.4533916999935,1028.4682043999928,1026.4066195999912,1026.4066195999912,1026.4066195999912,1026.4066195999912,new_sceneOut_16.png,302,4.0,1.0482800000027055,,,082,10,2025-06-25_16h34.48.155,Surprise recog test,2023.1.3,59.95074446667667,
302,0,302,0,,,,,,,,,,,,,,,,,,,,,,,,,,,,,,,,,,1031.388856999998,1032.400619299995,1028.4682043999928,1028.4682043999928,1028.4682043999928,1028.4682043999928,old_sceneIn_6.png,303,5.0,2.9206766999996034,,,082,10,2025-06-25_16h34.48.155,Surprise recog test,2023.1.3,59.95074446667667,
303,0,303,0,,,,,,,,,,,,,,,,,,,,,,,,,,,,,,,,,,1035.1388394999958,1036.1707001000032,1032.400619299995,1032.400619299995,1032.400619299995,1032.400619299995,old_sceneIn_19.png,304,3.0,2.7326213999913307,,,082,10,2025-06-25_16h34.48.155,Surprise recog test,2023.1.3,59.95074446667667,
304,0,304,0,,,,,,,,,,,,,,,,,,,,,,,,,,,,,,,,,,1038.2686325999966,,1036.1707001000032,1036.1707001000032,1036.1707001000032,1036.1707001000032,old_sceneIn_2.png,305,5.0,2.100399399991147,,,082,10,2025-06-25_16h34.48.155,Surprise recog test,2023.1.3,59.95074446667667,
305,0,305,0,,,,,,,,,,,,,,,,,,,,,,,,,,,,,,,,,,1040.9151109999948,1041.9376462999935,1039.298991699994,1039.298991699994,1039.298991699994,1039.298991699994,new_sceneOut_20.png,306,4.0,1.6178377000032924,,,082,10,2025-06-25_16h34.48.155,Surprise recog test,2023.1.3,59.95074446667667,
306,0,306,0,,,,,,,,,,,,,,,,,,,,,,,,,,,,,,,,,,1043.4823228000023,1044.502237599998,1041.9376462999935,1041.9376462999935,1041.9376462999935,1041.9376462999935,old_sceneIn_42.png,307,4.0,1.5427468999987468,,,082,10,2025-06-25_16h34.48.155,Surprise recog test,2023.1.3,59.95074446667667,
307,0,307,0,,,,,,,,,,,,,,,,,,,,,,,,,,,,,,,,,,1046.5770330999949,1047.6112569999968,1044.502237599998,1044.502237599998,1044.502237599998,1044.502237599998,old_fruit_8.png,308,3.0,2.071778400000767,,,082,10,2025-06-25_16h34.48.155,Surprise recog test,2023.1.3,59.95074446667667,
308,0,308,0,,,,,,,,,,,,,,,,,,,,,,,,,,,,,,,,,,1049.0811876999942,1050.1050218000019,1047.6112569999968,1047.6112569999968,1047.6112569999968,1047.6112569999968,old_sceneOut_36.png,309,4.0,1.4728717999969376,,,082,10,2025-06-25_16h34.48.155,Surprise recog test,2023.1.3,59.95074446667667,
309,0,309,0,,,,,,,,,,,,,,,,,,,,,,,,,,,,,,,,,,1051.6154610999947,1052.6428382000013,1050.1050218000019,1050.1050218000019,1050.1050218000019,1050.1050218000019,new_fruit_39.png,310,4.0,1.5098686999990605,,,082,10,2025-06-25_16h34.48.155,Surprise recog test,2023.1.3,59.95074446667667,
310,0,310,0,,,,,,,,,,,,,,,,,,,,,,,,,,,,,,,,,,1054.5881085,1055.6126659000001,1052.6428382000013,1052.6428382000013,1052.6428382000013,1052.6428382000013,new_sceneIn_38.png,311,4.0,1.9472266999946442,,,082,10,2025-06-25_16h34.48.155,Surprise recog test,2023.1.3,59.95074446667667,
311,0,311,0,,,,,,,,,,,,,,,,,,,,,,,,,,,,,,,,,,1057.2429045000026,1058.2541146000003,1055.6126659000001,1055.6126659000001,1055.6126659000001,1055.6126659000001,new_fruit_20.png,312,4.0,1.6330771000066306,,,082,10,2025-06-25_16h34.48.155,Surprise recog test,2023.1.3,59.95074446667667,
312,0,312,0,,,,,,,,,,,,,,,,,,,,,,,,,,,,,,,,,,1060.2189612999937,,1058.2541146000003,1058.2541146000003,1058.2541146000003,1058.2541146000003,new_sceneOut_6.png,313,4.0,1.9605076000007102,,,082,10,2025-06-25_16h34.48.155,Surprise recog test,2023.1.3,59.95074446667667,
313,0,313,0,,,,,,,,,,,,,,,,,,,,,,,,,,,,,,,,,,1063.3042315000057,1064.3218650000053,1061.240885399995,1061.240885399995,1061.240885399995,1061.240885399995,old_sceneOut_26.png,314,4.0,2.0591353999916464,,,082,10,2025-06-25_16h34.48.155,Surprise recog test,2023.1.3,59.95074446667667,
314,0,314,0,,,,,,,,,,,,,,,,,,,,,,,,,,,,,,,,,,1067.0545256000041,1068.075582999998,1064.3218650000053,1064.3218650000053,1064.3218650000053,1064.3218650000053,new_sceneOut_13.png,315,4.0,2.735370700000203,,,082,10,2025-06-25_16h34.48.155,Surprise recog test,2023.1.3,59.95074446667667,
315,0,315,0,,,,,,,,,,,,,,,,,,,,,,,,,,,,,,,,,,1069.8517390999914,1070.8629112999915,1068.075582999998,1068.075582999998,1068.075582999998,1068.075582999998,old_sceneIn_22.png,316,5.0,1.7792921000072965,,,082,10,2025-06-25_16h34.48.155,Surprise recog test,2023.1.3,59.95074446667667,
316,0,316,0,,,,,,,,,,,,,,,,,,,,,,,,,,,,,,,,,,1072.2983406999992,1073.3367899000004,1070.8629112999915,1070.8629112999915,1070.8629112999915,1070.8629112999915,new_sceneOut_23.png,317,5.0,1.4298294999898644,,,082,10,2025-06-25_16h34.48.155,Surprise recog test,2023.1.3,59.95074446667667,
317,0,317,0,,,,,,,,,,,,,,,,,,,,,,,,,,,,,,,,,,1075.57647,1076.5948022999946,1073.3367899000004,1073.3367899000004,1073.3367899000004,1073.3367899000004,old_sceneIn_32.png,318,4.0,2.2409647000022233,,,082,10,2025-06-25_16h34.48.155,Surprise recog test,2023.1.3,59.95074446667667,
318,0,318,0,,,,,,,,,,,,,,,,,,,,,,,,,,,,,,,,,,1078.4850302999985,,1076.5948022999946,1076.5948022999946,1076.5948022999946,1076.5948022999946,old_fruit_31.png,319,4.0,1.891839500007336,,,082,10,2025-06-25_16h34.48.155,Surprise recog test,2023.1.3,59.95074446667667,
319,0,319,0,,,,,,,,,,,,,,,,,,,,,,,,,,,,,,,,,,1082.0140844999987,1083.035555800001,1079.5183351000014,1079.5183351000014,1079.5183351000014,1079.5183351000014,old_sceneIn_35.png,320,2.0,2.4970958000048995,,,082,10,2025-06-25_16h34.48.155,Surprise recog test,2023.1.3,59.95074446667667,
320,0,320,0,,,,,,,,,,,,,,,,,,,,,,,,,,,,,,,,,,1084.7266386999981,1085.744756,1083.035555800001,1083.035555800001,1083.035555800001,1083.035555800001,new_sceneIn_48.png,321,3.0,1.693791899990174,,,082,10,2025-06-25_16h34.48.155,Surprise recog test,2023.1.3,59.95074446667667,
321,0,321,0,,,,,,,,,,,,,,,,,,,,,,,,,,,,,,,,,,1087.4764743999986,,1085.744756,1085.744756,1085.744756,1085.744756,new_sceneOut_27.png,322,5.0,1.7271413999988,,,082,10,2025-06-25_16h34.48.155,Surprise recog test,2023.1.3,59.95074446667667,
322,0,322,0,,,,,,,,,,,,,,,,,,,,,,,,,,,,,,,,,,1090.5551966000057,1091.5764490000001,1088.4994618000055,1088.4994618000055,1088.4994618000055,1088.4994618000055,old_stationery_38.png,323,4.0,2.0550286999932723,,,082,10,2025-06-25_16h34.48.155,Surprise recog test,2023.1.3,59.95074446667667,
323,0,323,0,,,,,,,,,,,,,,,,,,,,,,,,,,,,,,,,,,1093.2809285999974,,1091.5764490000001,1091.5764490000001,1091.5764490000001,1091.5764490000001,old_sceneOut_25.png,324,4.0,1.7028234000026714,,,082,10,2025-06-25_16h34.48.155,Surprise recog test,2023.1.3,59.95074446667667,
324,0,324,0,,,,,,,,,,,,,,,,,,,,,,,,,,,,,,,,,,1097.6170716000051,,1094.3132696999965,1094.3132696999965,1094.3132696999965,1094.3132696999965,old_fruit_36.png,325,4.0,3.305037500002072,,,082,10,2025-06-25_16h34.48.155,Surprise recog test,2023.1.3,59.95074446667667,
325,0,325,0,,,,,,,,,,,,,,,,,,,,,,,,,,,,,,,,,,1100.5604211000027,1101.5836220999918,1098.6461089999939,1098.6461089999939,1098.6461089999939,1098.6461089999939,old_sceneOut_28.png,326,4.0,1.913180099989404,,,082,10,2025-06-25_16h34.48.155,Surprise recog test,2023.1.3,59.95074446667667,
326,0,326,0,,,,,,,,,,,,,,,,,,,,,,,,,,,,,,,,,,1103.6693592999945,1104.6903951999993,1101.5836220999918,1101.5836220999918,1101.5836220999918,1101.5836220999918,new_sceneOut_43.png,327,2.0,2.0854739000060363,,,082,10,2025-06-25_16h34.48.155,Surprise recog test,2023.1.3,59.95074446667667,
327,0,327,0,,,,,,,,,,,,,,,,,,,,,,,,,,,,,,,,,,1106.6804925000033,1107.7080349000025,1104.6903951999993,1104.6903951999993,1104.6903951999993,1104.6903951999993,old_sceneIn_31.png,328,1.0,1.9921183999977075,,,082,10,2025-06-25_16h34.48.155,Surprise recog test,2023.1.3,59.95074446667667,
328,0,328,0,,,,,,,,,,,,,,,,,,,,,,,,,,,,,,,,,,1109.3343211000029,1110.3552208000037,1107.7080349000025,1107.7080349000025,1107.7080349000025,1107.7080349000025,old_fruit_3.png,329,3.0,1.6258220999879995,,,082,10,2025-06-25_16h34.48.155,Surprise recog test,2023.1.3,59.95074446667667,
329,0,329,0,,,,,,,,,,,,,,,,,,,,,,,,,,,,,,,,,,1112.925925699994,1113.946008400002,1110.3552208000037,1110.3552208000037,1110.3552208000037,1110.3552208000037,old_sceneOut_50.png,330,4.0,2.572247200005222,,,082,10,2025-06-25_16h34.48.155,Surprise recog test,2023.1.3,59.95074446667667,
330,0,330,0,,,,,,,,,,,,,,,,,,,,,,,,,,,,,,,,,,1116.121140599993,1117.1464233000006,1113.946008400002,1113.946008400002,1113.946008400002,1113.946008400002,old_stationery_4.png,331,4.0,2.175734400007059,,,082,10,2025-06-25_16h34.48.155,Surprise recog test,2023.1.3,59.95074446667667,
331,0,331,0,,,,,,,,,,,,,,,,,,,,,,,,,,,,,,,,,,1119.9469527000037,1120.9685082999931,1117.1464233000006,1117.1464233000006,1117.1464233000006,1117.1464233000006,new_sceneIn_10.png,332,4.0,2.799406899997848,,,082,10,2025-06-25_16h34.48.155,Surprise recog test,2023.1.3,59.95074446667667,
332,0,332,0,,,,,,,,,,,,,,,,,,,,,,,,,,,,,,,,,,1123.3408387999953,1124.3743762999948,1120.9685082999931,1120.9685082999931,1120.9685082999931,1120.9685082999931,new_sceneOut_50.png,333,4.0,2.370495499999379,,,082,10,2025-06-25_16h34.48.155,Surprise recog test,2023.1.3,59.95074446667667,
333,0,333,0,,,,,,,,,,,,,,,,,,,,,,,,,,,,,,,,,,1125.604246899995,1126.6253469999938,1124.3743762999948,1124.3743762999948,1124.3743762999948,1124.3743762999948,new_sceneIn_44.png,334,4.0,1.2269633999967482,,,082,10,2025-06-25_16h34.48.155,Surprise recog test,2023.1.3,59.95074446667667,
334,0,334,0,,,,,,,,,,,,,,,,,,,,,,,,,,,,,,,,,,1129.2158562999975,1130.2445613000018,1126.6253469999938,1126.6253469999938,1126.6253469999938,1126.6253469999938,old_stationery_14.png,335,5.0,2.5915971000067657,,,082,10,2025-06-25_16h34.48.155,Surprise recog test,2023.1.3,59.95074446667667,
335,0,335,0,,,,,,,,,,,,,,,,,,,,,,,,,,,,,,,,,,1132.8480072999955,1133.8791898999916,1130.2445613000018,1130.2445613000018,1130.2445613000018,1130.2445613000018,old_sceneOut_29.png,336,5.0,2.60508779999509,,,082,10,2025-06-25_16h34.48.155,Surprise recog test,2023.1.3,59.95074446667667,
336,0,336,0,,,,,,,,,,,,,,,,,,,,,,,,,,,,,,,,,,1135.8279391999968,1136.8498781999951,1133.8791898999916,1133.8791898999916,1133.8791898999916,1133.8791898999916,new_sceneOut_29.png,337,4.0,1.9509775999904377,,,082,10,2025-06-25_16h34.48.155,Surprise recog test,2023.1.3,59.95074446667667,
337,0,337,0,,,,,,,,,,,,,,,,,,,,,,,,,,,,,,,,,,1138.768267099993,,1136.8498781999951,1136.8498781999951,1136.8498781999951,1136.8498781999951,old_stationery_25.png,338,1.0,1.9202894999907585,,,082,10,2025-06-25_16h34.48.155,Surprise recog test,2023.1.3,59.95074446667667,
338,0,338,0,,,,,,,,,,,,,,,,,,,,,,,,,,,,,,,,,,1142.5688554999942,1143.5811831000028,1139.8020324999961,1139.8020324999961,1139.8020324999961,1139.8020324999961,new_fruit_42.png,339,4.0,2.766608699996141,,,082,10,2025-06-25_16h34.48.155,Surprise recog test,2023.1.3,59.95074446667667,
339,0,339,0,,,,,,,,,,,,,,,,,,,,,,,,,,,,,,,,,,1145.891564199992,,1143.5811831000028,1143.5811831000028,1143.5811831000028,1143.5811831000028,old_sceneIn_40.png,340,2.0,2.3076830999925733,,,082,10,2025-06-25_16h34.48.155,Surprise recog test,2023.1.3,59.95074446667667,
340,0,340,0,,,,,,,,,,,,,,,,,,,,,,,,,,,,,,,,,,1148.5231235999963,1149.5417511999985,1146.9119262000022,1146.9119262000022,1146.9119262000022,1146.9119262000022,new_sceneIn_20.png,341,2.0,1.6056984000024386,,,082,10,2025-06-25_16h34.48.155,Surprise recog test,2023.1.3,59.95074446667667,
341,0,341,0,,,,,,,,,,,,,,,,,,,,,,,,,,,,,,,,,,1150.7602367999934,1151.766003800003,1149.5417511999985,1149.5417511999985,1149.5417511999985,1149.5417511999985,old_fruit_14.png,342,2.0,1.2216245000017807,,,082,10,2025-06-25_16h34.48.155,Surprise recog test,2023.1.3,59.95074446667667,
342,0,342,0,,,,,,,,,,,,,,,,,,,,,,,,,,,,,,,,,,1154.5523998999997,1155.5822478000046,1151.766003800003,1151.766003800003,1151.766003800003,1151.766003800003,new_stationery_1.png,343,3.0,2.779935900005512,,,082,10,2025-06-25_16h34.48.155,Surprise recog test,2023.1.3,59.95074446667667,
343,0,343,0,,,,,,,,,,,,,,,,,,,,,,,,,,,,,,,,,,1157.3523806000012,1158.379164900005,1155.5822478000046,1155.5822478000046,1155.5822478000046,1155.5822478000046,old_stationery_8.png,344,1.0,1.7717745999980252,,,082,10,2025-06-25_16h34.48.155,Surprise recog test,2023.1.3,59.95074446667667,
344,0,344,0,,,,,,,,,,,,,,,,,,,,,,,,,,,,,,,,,,1160.7093367999914,1161.7299728999933,1158.379164900005,1158.379164900005,1158.379164900005,1158.379164900005,old_sceneOut_22.png,345,4.0,2.33183260000078,,,082,10,2025-06-25_16h34.48.155,Surprise recog test,2023.1.3,59.95074446667667,
345,0,345,0,,,,,,,,,,,,,,,,,,,,,,,,,,,,,,,,,,1163.962056000004,1164.9859157000028,1161.7299728999933,1161.7299728999933,1161.7299728999933,1161.7299728999933,old_sceneIn_33.png,346,4.0,2.2276798999955645,,,082,10,2025-06-25_16h34.48.155,Surprise recog test,2023.1.3,59.95074446667667,
346,0,346,0,,,,,,,,,,,,,,,,,,,,,,,,,,,,,,,,,,1167.5029163,1168.5225419999915,1164.9859157000028,1164.9859157000028,1164.9859157000028,1164.9859157000028,old_sceneIn_7.png,347,5.0,2.5184737000090536,,,082,10,2025-06-25_16h34.48.155,Surprise recog test,2023.1.3,59.95074446667667,
347,0,347,0,,,,,,,,,,,,,,,,,,,,,,,,,,,,,,,,,,1170.7249383000017,1171.738952700005,1168.5225419999915,1168.5225419999915,1168.5225419999915,1168.5225419999915,new_fruit_27.png,348,4.0,2.19807289999153,,,082,10,2025-06-25_16h34.48.155,Surprise recog test,2023.1.3,59.95074446667667,
348,0,348,0,,,,,,,,,,,,,,,,,,,,,,,,,,,,,,,,,,1174.3312958000024,,1171.738952700005,1171.738952700005,1171.738952700005,1171.738952700005,new_sceneIn_14.png,349,4.0,2.5935936000023503,,,082,10,2025-06-25_16h34.48.155,Surprise recog test,2023.1.3,59.95074446667667,
349,0,349,0,,,,,,,,,,,,,,,,,,,,,,,,,,,,,,,,,,1177.1629455999937,1178.1793773999962,1175.3562795000034,1175.3562795000034,1175.3562795000034,1175.3562795000034,old_fruit_24.png,350,5.0,1.8068847000104142,,,082,10,2025-06-25_16h34.48.155,Surprise recog test,2023.1.3,59.95074446667667,
350,0,350,0,,,,,,,,,,,,,,,,,,,,,,,,,,,,,,,,,,1180.6043859000056,1181.6350166000047,1178.1793773999962,1178.1793773999962,1178.1793773999962,1178.1793773999962,old_stationery_31.png,351,1.0,2.4239032000041334,,,082,10,2025-06-25_16h34.48.155,Surprise recog test,2023.1.3,59.95074446667667,
351,0,351,0,,,,,,,,,,,,,,,,,,,,,,,,,,,,,,,,,,1183.5909937999968,1184.6187608000037,1181.6350166000047,1181.6350166000047,1181.6350166000047,1181.6350166000047,old_fruit_48.png,352,4.0,1.9554620999988401,,,082,10,2025-06-25_16h34.48.155,Surprise recog test,2023.1.3,59.95074446667667,
352,0,352,0,,,,,,,,,,,,,,,,,,,,,,,,,,,,,,,,,,1187.0184548999969,1188.0383750000037,1184.6187608000037,1184.6187608000037,1184.6187608000037,1184.6187608000037,old_fruit_45.png,353,3.0,2.398819900001399,,,082,10,2025-06-25_16h34.48.155,Surprise recog test,2023.1.3,59.95074446667667,
