trial_loop.thisRepN,trial_loop.thisTrialN,trial_loop.thisN,trial_loop.thisIndex,VAS_slider.started,VAS_text.started,VAS_notstressed_text.started,VAS_stressed_text.started,continue_input.started,continue_text.started,label0.started,label10.started,label20.started,label30.started,label40.started,label50.started,label60.started,label70.started,label80.started,label90.started,label100.started,VAS_slider.response,VAS_slider.rt,VAS_slider.history,Answer_VAS,continue_input.keys,instruction_text.started,continue_text_2.started,continue_input_2.started,continue_input_2.keys,continue_input_2.rt,continue_input_2.duration,example_text.started,example_slider_2.started,example_image.started,example_slider_2.response,example_slider_2.rt,fixcross.started,fixcross.stopped,front_square.started,stim_images.started,trial_inst_images.started,slider_images.started,thisImg,trial_count,slider_images.response,slider_images.rt,outro.started,participant,condition,date,expName,psychopyVersion,frameRate,
,,,,250.71117360000062,250.71117360000062,250.71117360000062,250.71117360000062,250.71117360000062,250.71117360000062,250.71117360000062,250.71117360000062,250.71117360000062,250.71117360000062,250.71117360000062,250.71117360000062,250.71117360000062,250.71117360000062,250.71117360000062,250.71117360000062,250.71117360000062,4.977777777777778,8.760903399997915,"[(4.977777777777778, 8.760903399997915)]",4.977777777777778,None,,,,,,,,,,,,,,,,,,,,,,,083,10,2025-07-18_12h04.11.696,Surprise recog test,2023.1.3,59.915650747182355,
,,,,,,,,,,,,,,,,,,,,,,,,,,259.5003577000025,259.5003577000025,259.5003577000025,space,24.678158999995503,None,,,,,,,,,,,,,,,,,083,10,2025-07-18_12h04.11.696,Surprise recog test,2023.1.3,59.915650747182355,
0,0,0,0,,,,,,,,,,,,,,,,,,,,,,,,,,,,,284.3043206000002,284.3043206000002,284.3043206000002,5.0,7.947620200000529,295.46203439999954,296.4839037999991,293.21224220000295,293.21224220000295,293.21224220000295,293.21224220000295,new_sceneIn_18.png,1,5.0,2.245669199997792,,083,10,2025-07-18_12h04.11.696,Surprise recog test,2023.1.3,59.915650747182355,
1,0,1,0,,,,,,,,,,,,,,,,,,,,,,,,,,,,,,,,,,298.6136375999995,299.63749250000546,296.4839037999991,296.4839037999991,296.4839037999991,296.4839037999991,old_stationery_47.png,2,3.0,2.131430300003558,,083,10,2025-07-18_12h04.11.696,Surprise recog test,2023.1.3,59.915650747182355,
2,0,2,0,,,,,,,,,,,,,,,,,,,,,,,,,,,,,,,,,,301.5146253000057,302.5236226000052,299.63749250000546,299.63749250000546,299.63749250000546,299.63749250000546,new_sceneOut_14.png,3,4.0,1.8798614999977872,,083,10,2025-07-18_12h04.11.696,Surprise recog test,2023.1.3,59.915650747182355,
3,0,3,0,,,,,,,,,,,,,,,,,,,,,,,,,,,,,,,,,,304.05399490000127,305.0769780000046,302.5236226000052,302.5236226000052,302.5236226000052,302.5236226000052,new_stationery_11.png,4,4.0,1.5202206000030856,,083,10,2025-07-18_12h04.11.696,Surprise recog test,2023.1.3,59.915650747182355,
4,0,4,0,,,,,,,,,,,,,,,,,,,,,,,,,,,,,,,,,,306.8054074000029,307.82740910000575,305.0769780000046,305.0769780000046,305.0769780000046,305.0769780000046,old_sceneIn_41.png,5,5.0,1.729513099999167,,083,10,2025-07-18_12h04.11.696,Surprise recog test,2023.1.3,59.915650747182355,
5,0,5,0,,,,,,,,,,,,,,,,,,,,,,,,,,,,,,,,,,309.70971570000256,310.72837950000394,307.82740910000575,307.82740910000575,307.82740910000575,307.82740910000575,new_sceneIn_7.png,6,4.0,1.8838395000057062,,083,10,2025-07-18_12h04.11.696,Surprise recog test,2023.1.3,59.915650747182355,
6,0,6,0,,,,,,,,,,,,,,,,,,,,,,,,,,,,,,,,,,312.3942576000045,313.4141863000041,310.72837950000394,310.72837950000394,310.72837950000394,310.72837950000394,old_sceneOut_49.png,7,4.0,1.667535400003544,,083,10,2025-07-18_12h04.11.696,Surprise recog test,2023.1.3,59.915650747182355,
7,0,7,0,,,,,,,,,,,,,,,,,,,,,,,,,,,,,,,,,,314.8460871000061,315.86333659999946,313.4141863000041,313.4141863000041,313.4141863000041,313.4141863000041,new_sceneOut_40.png,8,4.0,1.4298523999968893,,083,10,2025-07-18_12h04.11.696,Surprise recog test,2023.1.3,59.915650747182355,
8,0,8,0,,,,,,,,,,,,,,,,,,,,,,,,,,,,,,,,,,317.5118126000016,318.52610310000455,315.86333659999946,315.86333659999946,315.86333659999946,315.86333659999946,new_sceneIn_31.png,9,5.0,1.647651200000837,,083,10,2025-07-18_12h04.11.696,Surprise recog test,2023.1.3,59.915650747182355,
9,0,9,0,,,,,,,,,,,,,,,,,,,,,,,,,,,,,,,,,,320.30834660000255,321.33722670000134,318.52610310000455,318.52610310000455,318.52610310000455,318.52610310000455,new_sceneIn_10.png,10,3.0,1.7775163000042085,,083,10,2025-07-18_12h04.11.696,Surprise recog test,2023.1.3,59.915650747182355,
10,0,10,0,,,,,,,,,,,,,,,,,,,,,,,,,,,,,,,,,,323.35583680000127,,321.33722670000134,321.33722670000134,321.33722670000134,321.33722670000134,new_stationery_13.png,11,5.0,2.019645699998364,,083,10,2025-07-18_12h04.11.696,Surprise recog test,2023.1.3,59.915650747182355,
11,0,11,0,,,,,,,,,,,,,,,,,,,,,,,,,,,,,,,,,,326.2169146000015,327.2428221000009,324.3895463000008,324.3895463000008,324.3895463000008,324.3895463000008,old_sceneOut_36.png,12,4.0,1.8304648000048473,,083,10,2025-07-18_12h04.11.696,Surprise recog test,2023.1.3,59.915650747182355,
12,0,12,0,,,,,,,,,,,,,,,,,,,,,,,,,,,,,,,,,,328.88968430000386,329.91223990000435,327.2428221000009,327.2428221000009,327.2428221000009,327.2428221000009,old_sceneOut_14.png,13,5.0,1.6458292999959667,,083,10,2025-07-18_12h04.11.696,Surprise recog test,2023.1.3,59.915650747182355,
13,0,13,0,,,,,,,,,,,,,,,,,,,,,,,,,,,,,,,,,,331.2556571000023,332.26970120000624,329.91223990000435,329.91223990000435,329.91223990000435,329.91223990000435,old_sceneOut_40.png,14,5.0,1.3455471999986912,,083,10,2025-07-18_12h04.11.696,Surprise recog test,2023.1.3,59.915650747182355,
14,0,14,0,,,,,,,,,,,,,,,,,,,,,,,,,,,,,,,,,,333.3801863000044,334.3931575000024,332.26970120000624,332.26970120000624,332.26970120000624,332.26970120000624,new_stationery_9.png,15,5.0,1.1080711000031442,,083,10,2025-07-18_12h04.11.696,Surprise recog test,2023.1.3,59.915650747182355,
15,0,15,0,,,,,,,,,,,,,,,,,,,,,,,,,,,,,,,,,,335.53009980000206,336.55128360000526,334.3931575000024,334.3931575000024,334.3931575000024,334.3931575000024,new_sceneIn_45.png,16,5.0,1.1336056000000099,,083,10,2025-07-18_12h04.11.696,Surprise recog test,2023.1.3,59.915650747182355,
16,0,16,0,,,,,,,,,,,,,,,,,,,,,,,,,,,,,,,,,,338.6580959000057,339.6802941999995,336.55128360000526,336.55128360000526,336.55128360000526,336.55128360000526,old_stationery_46.png,17,4.0,2.1048979999977746,,083,10,2025-07-18_12h04.11.696,Surprise recog test,2023.1.3,59.915650747182355,
17,0,17,0,,,,,,,,,,,,,,,,,,,,,,,,,,,,,,,,,,342.002499000002,343.0215941999995,339.6802941999995,339.6802941999995,339.6802941999995,339.6802941999995,old_fruit_13.png,18,2.0,2.321312100000796,,083,10,2025-07-18_12h04.11.696,Surprise recog test,2023.1.3,59.915650747182355,
18,0,18,0,,,,,,,,,,,,,,,,,,,,,,,,,,,,,,,,,,344.8367208000054,345.847348700001,343.0215941999995,343.0215941999995,343.0215941999995,343.0215941999995,old_sceneIn_17.png,19,3.0,1.8138783000031253,,083,10,2025-07-18_12h04.11.696,Surprise recog test,2023.1.3,59.915650747182355,
19,0,19,0,,,,,,,,,,,,,,,,,,,,,,,,,,,,,,,,,,347.729983600002,348.7573249000052,345.847348700001,345.847348700001,345.847348700001,345.847348700001,old_fruit_23.png,20,1.0,1.8778299999976298,,083,10,2025-07-18_12h04.11.696,Surprise recog test,2023.1.3,59.915650747182355,
20,0,20,0,,,,,,,,,,,,,,,,,,,,,,,,,,,,,,,,,,350.01585070000147,351.03353150000476,348.7573249000052,348.7573249000052,348.7573249000052,348.7573249000052,old_fruit_46.png,21,1.0,1.2593410999979824,,083,10,2025-07-18_12h04.11.696,Surprise recog test,2023.1.3,59.915650747182355,
21,0,21,0,,,,,,,,,,,,,,,,,,,,,,,,,,,,,,,,,,352.90326850000565,353.92010600000503,351.03353150000476,351.03353150000476,351.03353150000476,351.03353150000476,new_sceneIn_29.png,22,5.0,1.866146700005629,,083,10,2025-07-18_12h04.11.696,Surprise recog test,2023.1.3,59.915650747182355,
22,0,22,0,,,,,,,,,,,,,,,,,,,,,,,,,,,,,,,,,,355.1791966000019,356.1899001000056,353.92010600000503,353.92010600000503,353.92010600000503,353.92010600000503,old_sceneIn_36.png,23,4.0,1.256478999996034,,083,10,2025-07-18_12h04.11.696,Surprise recog test,2023.1.3,59.915650747182355,
23,0,23,0,,,,,,,,,,,,,,,,,,,,,,,,,,,,,,,,,,357.116185400002,358.1376128000047,356.1899001000056,356.1899001000056,356.1899001000056,356.1899001000056,old_sceneIn_32.png,24,4.0,0.9237566000010702,,083,10,2025-07-18_12h04.11.696,Surprise recog test,2023.1.3,59.915650747182355,
24,0,24,0,,,,,,,,,,,,,,,,,,,,,,,,,,,,,,,,,,359.8013715000052,360.82006260000344,358.1376128000047,358.1376128000047,358.1376128000047,358.1376128000047,new_sceneIn_5.png,25,3.0,1.666701699999976,,083,10,2025-07-18_12h04.11.696,Surprise recog test,2023.1.3,59.915650747182355,
25,0,25,0,,,,,,,,,,,,,,,,,,,,,,,,,,,,,,,,,,362.97674550000374,364.0060130999991,360.82006260000344,360.82006260000344,360.82006260000344,360.82006260000344,old_fruit_12.png,26,1.0,2.1569252999979653,,083,10,2025-07-18_12h04.11.696,Surprise recog test,2023.1.3,59.915650747182355,
26,0,26,0,,,,,,,,,,,,,,,,,,,,,,,,,,,,,,,,,,365.9583555999998,,364.0060130999991,364.0060130999991,364.0060130999991,364.0060130999991,new_fruit_40.png,27,2.0,1.9541896999944584,,083,10,2025-07-18_12h04.11.696,Surprise recog test,2023.1.3,59.915650747182355,
27,0,27,0,,,,,,,,,,,,,,,,,,,,,,,,,,,,,,,,,,368.6059976000033,369.6245662000001,366.9913658000005,366.9913658000005,366.9913658000005,366.9913658000005,old_sceneIn_11.png,28,4.0,1.6160273999994388,,083,10,2025-07-18_12h04.11.696,Surprise recog test,2023.1.3,59.915650747182355,
28,0,28,0,,,,,,,,,,,,,,,,,,,,,,,,,,,,,,,,,,370.58768570000393,371.61469560000114,369.6245662000001,369.6245662000001,369.6245662000001,369.6245662000001,old_sceneIn_12.png,29,4.0,0.9640562999993563,,083,10,2025-07-18_12h04.11.696,Surprise recog test,2023.1.3,59.915650747182355,
29,0,29,0,,,,,,,,,,,,,,,,,,,,,,,,,,,,,,,,,,372.74039180000545,373.7580772000001,371.61469560000114,371.61469560000114,371.61469560000114,371.61469560000114,new_stationery_3.png,30,4.0,1.1285095000057481,,083,10,2025-07-18_12h04.11.696,Surprise recog test,2023.1.3,59.915650747182355,
30,0,30,0,,,,,,,,,,,,,,,,,,,,,,,,,,,,,,,,,,374.50197400000616,375.5353510000059,373.7580772000001,373.7580772000001,373.7580772000001,373.7580772000001,new_stationery_29.png,31,4.0,0.7438340000007884,,083,10,2025-07-18_12h04.11.696,Surprise recog test,2023.1.3,59.915650747182355,
31,0,31,0,,,,,,,,,,,,,,,,,,,,,,,,,,,,,,,,,,376.86582090000593,377.8718929000024,375.5353510000059,375.5353510000059,375.5353510000059,375.5353510000059,old_sceneOut_42.png,32,3.0,1.331733399994846,,083,10,2025-07-18_12h04.11.696,Surprise recog test,2023.1.3,59.915650747182355,
32,0,32,0,,,,,,,,,,,,,,,,,,,,,,,,,,,,,,,,,,379.2529988000024,,377.8718929000024,377.8718929000024,377.8718929000024,377.8718929000024,old_sceneIn_27.png,33,5.0,1.3749452999982168,,083,10,2025-07-18_12h04.11.696,Surprise recog test,2023.1.3,59.915650747182355,
33,0,33,0,,,,,,,,,,,,,,,,,,,,,,,,,,,,,,,,,,381.73805130000255,,380.28401440000016,380.28401440000016,380.28401440000016,380.28401440000016,old_sceneOut_35.png,34,3.0,1.453356400001212,,083,10,2025-07-18_12h04.11.696,Surprise recog test,2023.1.3,59.915650747182355,
34,0,34,0,,,,,,,,,,,,,,,,,,,,,,,,,,,,,,,,,,384.10350219999964,385.1167959000013,382.77222740000434,382.77222740000434,382.77222740000434,382.77222740000434,new_fruit_4.png,35,2.0,1.3318619999990915,,083,10,2025-07-18_12h04.11.696,Surprise recog test,2023.1.3,59.915650747182355,
35,0,35,0,,,,,,,,,,,,,,,,,,,,,,,,,,,,,,,,,,386.83248599999934,387.8570131000015,385.1167959000013,385.1167959000013,385.1167959000013,385.1167959000013,old_sceneIn_5.png,36,2.0,1.7153839000020525,,083,10,2025-07-18_12h04.11.696,Surprise recog test,2023.1.3,59.915650747182355,
36,0,36,0,,,,,,,,,,,,,,,,,,,,,,,,,,,,,,,,,,389.35235130000365,390.36428060000617,387.8570131000015,387.8570131000015,387.8570131000015,387.8570131000015,new_stationery_25.png,37,4.0,1.496695699999691,,083,10,2025-07-18_12h04.11.696,Surprise recog test,2023.1.3,59.915650747182355,
37,0,37,0,,,,,,,,,,,,,,,,,,,,,,,,,,,,,,,,,,391.3726370000004,392.3940017999994,390.36428060000617,390.36428060000617,390.36428060000617,390.36428060000617,new_sceneOut_25.png,38,4.0,1.0029432000010274,,083,10,2025-07-18_12h04.11.696,Surprise recog test,2023.1.3,59.915650747182355,
38,0,38,0,,,,,,,,,,,,,,,,,,,,,,,,,,,,,,,,,,394.18228480000107,,392.3940017999994,392.3940017999994,392.3940017999994,392.3940017999994,old_stationery_45.png,39,1.0,1.7909861000007368,,083,10,2025-07-18_12h04.11.696,Surprise recog test,2023.1.3,59.915650747182355,
39,0,39,0,,,,,,,,,,,,,,,,,,,,,,,,,,,,,,,,,,396.3684107000008,,395.21621450000384,395.21621450000384,395.21621450000384,395.21621450000384,new_sceneOut_22.png,40,5.0,1.1545954999965033,,083,10,2025-07-18_12h04.11.696,Surprise recog test,2023.1.3,59.915650747182355,
40,0,40,0,,,,,,,,,,,,,,,,,,,,,,,,,,,,,,,,,,398.88261280000006,399.88975230000506,397.399673800006,397.399673800006,397.399673800006,397.399673800006,new_stationery_17.png,41,2.0,1.4839766000004602,,083,10,2025-07-18_12h04.11.696,Surprise recog test,2023.1.3,59.915650747182355,
41,0,41,0,,,,,,,,,,,,,,,,,,,,,,,,,,,,,,,,,,401.16086290000385,402.18761480000103,399.88975230000506,399.88975230000506,399.88975230000506,399.88975230000506,old_fruit_47.png,42,1.0,1.266526999999769,,083,10,2025-07-18_12h04.11.696,Surprise recog test,2023.1.3,59.915650747182355,
42,0,42,0,,,,,,,,,,,,,,,,,,,,,,,,,,,,,,,,,,403.48522600000433,404.50839239999914,402.18761480000103,402.18761480000103,402.18761480000103,402.18761480000103,new_sceneOut_27.png,43,4.0,1.3008442999998806,,083,10,2025-07-18_12h04.11.696,Surprise recog test,2023.1.3,59.915650747182355,
43,0,43,0,,,,,,,,,,,,,,,,,,,,,,,,,,,,,,,,,,405.6677555999995,406.67932410000503,404.50839239999914,404.50839239999914,404.50839239999914,404.50839239999914,new_stationery_33.png,44,3.0,1.1604131999993115,,083,10,2025-07-18_12h04.11.696,Surprise recog test,2023.1.3,59.915650747182355,
44,0,44,0,,,,,,,,,,,,,,,,,,,,,,,,,,,,,,,,,,407.92279530000087,408.9286773999993,406.67932410000503,406.67932410000503,406.67932410000503,406.67932410000503,old_fruit_48.png,45,1.0,1.2368301000024076,,083,10,2025-07-18_12h04.11.696,Surprise recog test,2023.1.3,59.915650747182355,
45,0,45,0,,,,,,,,,,,,,,,,,,,,,,,,,,,,,,,,,,410.7480471000017,411.77519949999987,408.9286773999993,408.9286773999993,408.9286773999993,408.9286773999993,old_sceneIn_14.png,46,1.0,1.814216500002658,,083,10,2025-07-18_12h04.11.696,Surprise recog test,2023.1.3,59.915650747182355,
46,0,46,0,,,,,,,,,,,,,,,,,,,,,,,,,,,,,,,,,,413.6192560000054,414.6488249000031,411.77519949999987,411.77519949999987,411.77519949999987,411.77519949999987,new_stationery_22.png,47,2.0,1.8430551000055857,,083,10,2025-07-18_12h04.11.696,Surprise recog test,2023.1.3,59.915650747182355,
47,0,47,0,,,,,,,,,,,,,,,,,,,,,,,,,,,,,,,,,,415.81816470000194,416.84736940000585,414.6488249000031,414.6488249000031,414.6488249000031,414.6488249000031,new_fruit_35.png,48,2.0,1.1712767999997595,,083,10,2025-07-18_12h04.11.696,Surprise recog test,2023.1.3,59.915650747182355,
48,0,48,0,,,,,,,,,,,,,,,,,,,,,,,,,,,,,,,,,,418.48154620000423,419.5018463000015,416.84736940000585,416.84736940000585,416.84736940000585,416.84736940000585,old_sceneOut_9.png,49,4.0,1.6328304999988177,,083,10,2025-07-18_12h04.11.696,Surprise recog test,2023.1.3,59.915650747182355,
49,0,49,0,,,,,,,,,,,,,,,,,,,,,,,,,,,,,,,,,,420.9425382000045,421.9733197000023,419.5018463000015,419.5018463000015,419.5018463000015,419.5018463000015,old_stationery_2.png,50,2.0,1.4429554999951506,,083,10,2025-07-18_12h04.11.696,Surprise recog test,2023.1.3,59.915650747182355,
50,0,50,0,,,,,,,,,,,,,,,,,,,,,,,,,,,,,,,,,,423.6668800000043,424.6900922999994,421.9733197000023,421.9733197000023,421.9733197000023,421.9733197000023,old_sceneIn_33.png,51,4.0,1.6967798000041512,,083,10,2025-07-18_12h04.11.696,Surprise recog test,2023.1.3,59.915650747182355,
51,0,51,0,,,,,,,,,,,,,,,,,,,,,,,,,,,,,,,,,,426.17634530000214,,424.6900922999994,424.6900922999994,424.6900922999994,424.6900922999994,old_fruit_40.png,52,1.0,1.4855649000019184,,083,10,2025-07-18_12h04.11.696,Surprise recog test,2023.1.3,59.915650747182355,
52,0,52,0,,,,,,,,,,,,,,,,,,,,,,,,,,,,,,,,,,428.1796689000039,429.2149691000013,427.20986140000605,427.20986140000605,427.20986140000605,427.20986140000605,old_sceneIn_20.png,53,3.0,0.9737060999977984,,083,10,2025-07-18_12h04.11.696,Surprise recog test,2023.1.3,59.915650747182355,
53,0,53,0,,,,,,,,,,,,,,,,,,,,,,,,,,,,,,,,,,430.74265749999904,431.7634945000027,429.2149691000013,429.2149691000013,429.2149691000013,429.2149691000013,old_sceneOut_34.png,54,3.0,1.5294269999940298,,083,10,2025-07-18_12h04.11.696,Surprise recog test,2023.1.3,59.915650747182355,
54,0,54,0,,,,,,,,,,,,,,,,,,,,,,,,,,,,,,,,,,432.994583700005,434.0148795999994,431.7634945000027,431.7634945000027,431.7634945000027,431.7634945000027,old_fruit_22.png,55,1.0,1.2320678000032785,,083,10,2025-07-18_12h04.11.696,Surprise recog test,2023.1.3,59.915650747182355,
55,0,55,0,,,,,,,,,,,,,,,,,,,,,,,,,,,,,,,,,,435.64289600000484,436.6570869000061,434.0148795999994,434.0148795999994,434.0148795999994,434.0148795999994,new_stationery_10.png,56,2.0,1.6301337000040803,,083,10,2025-07-18_12h04.11.696,Surprise recog test,2023.1.3,59.915650747182355,
56,0,56,0,,,,,,,,,,,,,,,,,,,,,,,,,,,,,,,,,,438.4953361000007,439.5189154000036,436.6570869000061,436.6570869000061,436.6570869000061,436.6570869000061,new_sceneOut_1.png,57,4.0,1.835104899997532,,083,10,2025-07-18_12h04.11.696,Surprise recog test,2023.1.3,59.915650747182355,
57,0,57,0,,,,,,,,,,,,,,,,,,,,,,,,,,,,,,,,,,441.0859595000002,442.09169120000297,439.5189154000036,439.5189154000036,439.5189154000036,439.5189154000036,old_fruit_14.png,58,1.0,1.570274599995173,,083,10,2025-07-18_12h04.11.696,Surprise recog test,2023.1.3,59.915650747182355,
58,0,58,0,,,,,,,,,,,,,,,,,,,,,,,,,,,,,,,,,,443.3776854000025,444.40626180000254,442.09169120000297,442.09169120000297,442.09169120000297,442.09169120000297,new_stationery_31.png,59,3.0,1.280223500005377,,083,10,2025-07-18_12h04.11.696,Surprise recog test,2023.1.3,59.915650747182355,
59,0,59,0,,,,,,,,,,,,,,,,,,,,,,,,,,,,,,,,,,446.18211359999987,447.2085234000042,444.40626180000254,444.40626180000254,444.40626180000254,444.40626180000254,new_sceneIn_6.png,60,5.0,1.7753787000037846,,083,10,2025-07-18_12h04.11.696,Surprise recog test,2023.1.3,59.915650747182355,
60,0,60,0,,,,,,,,,,,,,,,,,,,,,,,,,,,,,,,,,,448.3952003000013,449.4244803000038,447.2085234000042,447.2085234000042,447.2085234000042,447.2085234000042,new_sceneIn_43.png,61,4.0,1.1878836999967461,,083,10,2025-07-18_12h04.11.696,Surprise recog test,2023.1.3,59.915650747182355,
61,0,61,0,,,,,,,,,,,,,,,,,,,,,,,,,,,,,,,,,,450.4073802000057,451.4294375000027,449.4244803000038,449.4244803000038,449.4244803000038,449.4244803000038,old_sceneOut_4.png,62,4.0,0.9837111000015284,,083,10,2025-07-18_12h04.11.696,Surprise recog test,2023.1.3,59.915650747182355,
62,0,62,0,,,,,,,,,,,,,,,,,,,,,,,,,,,,,,,,,,452.8805005000031,,451.4294375000027,451.4294375000027,451.4294375000027,451.4294375000027,old_stationery_34.png,63,1.0,1.450451200005773,,083,10,2025-07-18_12h04.11.696,Surprise recog test,2023.1.3,59.915650747182355,
63,0,63,0,,,,,,,,,,,,,,,,,,,,,,,,,,,,,,,,,,454.9874159000028,456.00157670000044,453.9096501000022,453.9096501000022,453.9096501000022,453.9096501000022,old_sceneOut_20.png,64,4.0,1.0779623999987962,,083,10,2025-07-18_12h04.11.696,Surprise recog test,2023.1.3,59.915650747182355,
64,0,64,0,,,,,,,,,,,,,,,,,,,,,,,,,,,,,,,,,,457.0301005000001,458.05221080000047,456.00157670000044,456.00157670000044,456.00157670000044,456.00157670000044,old_sceneIn_31.png,65,4.0,1.0253628000064055,,083,10,2025-07-18_12h04.11.696,Surprise recog test,2023.1.3,59.915650747182355,
65,0,65,0,,,,,,,,,,,,,,,,,,,,,,,,,,,,,,,,,,459.94905980000476,460.95681519999926,458.05221080000047,458.05221080000047,458.05221080000047,458.05221080000047,new_fruit_11.png,66,4.0,1.9006280000030529,,083,10,2025-07-18_12h04.11.696,Surprise recog test,2023.1.3,59.915650747182355,
66,0,66,0,,,,,,,,,,,,,,,,,,,,,,,,,,,,,,,,,,462.98700950000057,463.9950325000027,460.95681519999926,460.95681519999926,460.95681519999926,460.95681519999926,new_fruit_28.png,67,3.0,2.0283991000032984,,083,10,2025-07-18_12h04.11.696,Surprise recog test,2023.1.3,59.915650747182355,
67,0,67,0,,,,,,,,,,,,,,,,,,,,,,,,,,,,,,,,,,465.61990589999914,466.62783270000364,463.9950325000027,463.9950325000027,463.9950325000027,463.9950325000027,old_sceneIn_25.png,68,3.0,1.618151000002399,,083,10,2025-07-18_12h04.11.696,Surprise recog test,2023.1.3,59.915650747182355,
68,0,68,0,,,,,,,,,,,,,,,,,,,,,,,,,,,,,,,,,,468.3347677000056,469.3634807000053,466.62783270000364,466.62783270000364,466.62783270000364,466.62783270000364,old_fruit_9.png,69,2.0,1.7021162000019103,,083,10,2025-07-18_12h04.11.696,Surprise recog test,2023.1.3,59.915650747182355,
69,0,69,0,,,,,,,,,,,,,,,,,,,,,,,,,,,,,,,,,,470.5886396999995,471.60053130000597,469.3634807000053,469.3634807000053,469.3634807000053,469.3634807000053,old_sceneIn_50.png,70,4.0,1.2285112000026857,,083,10,2025-07-18_12h04.11.696,Surprise recog test,2023.1.3,59.915650747182355,
70,0,70,0,,,,,,,,,,,,,,,,,,,,,,,,,,,,,,,,,,472.53775220000534,473.55797259999963,471.60053130000597,471.60053130000597,471.60053130000597,471.60053130000597,new_stationery_1.png,71,3.0,0.930696600000374,,083,10,2025-07-18_12h04.11.696,Surprise recog test,2023.1.3,59.915650747182355,
71,0,71,0,,,,,,,,,,,,,,,,,,,,,,,,,,,,,,,,,,474.8125144000005,475.8211217000062,473.55797259999963,473.55797259999963,473.55797259999963,473.55797259999963,old_stationery_25.png,72,2.0,1.2525208000006387,,083,10,2025-07-18_12h04.11.696,Surprise recog test,2023.1.3,59.915650747182355,
72,0,72,0,,,,,,,,,,,,,,,,,,,,,,,,,,,,,,,,,,477.14278500000364,478.1568508000055,475.8211217000062,475.8211217000062,475.8211217000062,475.8211217000062,new_sceneOut_7.png,73,4.0,1.3189514000041527,,083,10,2025-07-18_12h04.11.696,Surprise recog test,2023.1.3,59.915650747182355,
73,0,73,0,,,,,,,,,,,,,,,,,,,,,,,,,,,,,,,,,,481.1017298000006,482.1205956000049,478.1568508000055,478.1568508000055,478.1568508000055,478.1568508000055,old_fruit_3.png,74,4.0,2.941885200001707,,083,10,2025-07-18_12h04.11.696,Surprise recog test,2023.1.3,59.915650747182355,
74,0,74,0,,,,,,,,,,,,,,,,,,,,,,,,,,,,,,,,,,483.0453703000021,484.073876500006,482.1205956000049,482.1205956000049,482.1205956000049,482.1205956000049,new_sceneIn_48.png,75,4.0,0.9272930000006454,,083,10,2025-07-18_12h04.11.696,Surprise recog test,2023.1.3,59.915650747182355,
75,0,75,0,,,,,,,,,,,,,,,,,,,,,,,,,,,,,,,,,,486.1628242000006,487.18960589999915,484.073876500006,484.073876500006,484.073876500006,484.073876500006,new_stationery_27.png,76,1.0,2.091617199999746,,083,10,2025-07-18_12h04.11.696,Surprise recog test,2023.1.3,59.915650747182355,
76,0,76,0,,,,,,,,,,,,,,,,,,,,,,,,,,,,,,,,,,489.79165040000225,490.79895730000135,487.18960589999915,487.18960589999915,487.18960589999915,487.18960589999915,new_sceneOut_26.png,77,4.0,2.601598600005673,,083,10,2025-07-18_12h04.11.696,Surprise recog test,2023.1.3,59.915650747182355,
77,0,77,0,,,,,,,,,,,,,,,,,,,,,,,,,,,,,,,,,,492.05912950000493,493.0816383000056,490.79895730000135,490.79895730000135,490.79895730000135,490.79895730000135,new_fruit_48.png,78,3.0,1.256048600000213,,083,10,2025-07-18_12h04.11.696,Surprise recog test,2023.1.3,59.915650747182355,
78,0,78,0,,,,,,,,,,,,,,,,,,,,,,,,,,,,,,,,,,494.1323838000026,,493.0816383000056,493.0816383000056,493.0816383000056,493.0816383000056,new_sceneOut_29.png,79,3.0,1.05186120000144,,083,10,2025-07-18_12h04.11.696,Surprise recog test,2023.1.3,59.915650747182355,
79,0,79,0,,,,,,,,,,,,,,,,,,,,,,,,,,,,,,,,,,496.5487745999999,497.5554371000035,495.1613662000018,495.1613662000018,495.1613662000018,495.1613662000018,new_fruit_39.png,80,4.0,1.388805599999614,,083,10,2025-07-18_12h04.11.696,Surprise recog test,2023.1.3,59.915650747182355,
80,0,80,0,,,,,,,,,,,,,,,,,,,,,,,,,,,,,,,,,,499.4856285999995,,497.5554371000035,497.5554371000035,497.5554371000035,497.5554371000035,new_stationery_21.png,81,4.0,1.9259002000035252,,083,10,2025-07-18_12h04.11.696,Surprise recog test,2023.1.3,59.915650747182355,
81,0,81,0,,,,,,,,,,,,,,,,,,,,,,,,,,,,,,,,,,502.4211304000055,,500.52019020000444,500.52019020000444,500.52019020000444,500.52019020000444,old_stationery_41.png,82,2.0,1.9038762999989558,,083,10,2025-07-18_12h04.11.696,Surprise recog test,2023.1.3,59.915650747182355,
82,0,82,0,,,,,,,,,,,,,,,,,,,,,,,,,,,,,,,,,,504.9588866000049,505.979605600005,503.4567026000004,503.4567026000004,503.4567026000004,503.4567026000004,new_sceneOut_35.png,83,4.0,1.5048796999981278,,083,10,2025-07-18_12h04.11.696,Surprise recog test,2023.1.3,59.915650747182355,
83,0,83,0,,,,,,,,,,,,,,,,,,,,,,,,,,,,,,,,,,507.4097566000055,,505.979605600005,505.979605600005,505.979605600005,505.979605600005,old_fruit_11.png,84,1.0,1.4256268000026466,,083,10,2025-07-18_12h04.11.696,Surprise recog test,2023.1.3,59.915650747182355,
84,0,84,0,,,,,,,,,,,,,,,,,,,,,,,,,,,,,,,,,,509.65124460000516,510.67984530000103,508.4441525000002,508.4441525000002,508.4441525000002,508.4441525000002,new_sceneOut_15.png,85,5.0,1.2083160999973188,,083,10,2025-07-18_12h04.11.696,Surprise recog test,2023.1.3,59.915650747182355,
85,0,85,0,,,,,,,,,,,,,,,,,,,,,,,,,,,,,,,,,,512.1102301999999,513.1243814000045,510.67984530000103,510.67984530000103,510.67984530000103,510.67984530000103,old_fruit_42.png,86,1.0,1.4254207000049064,,083,10,2025-07-18_12h04.11.696,Surprise recog test,2023.1.3,59.915650747182355,
86,0,86,0,,,,,,,,,,,,,,,,,,,,,,,,,,,,,,,,,,514.9975517000057,516.0166372000022,513.1243814000045,513.1243814000045,513.1243814000045,513.1243814000045,new_sceneOut_23.png,87,4.0,1.873609199996281,,083,10,2025-07-18_12h04.11.696,Surprise recog test,2023.1.3,59.915650747182355,
87,0,87,0,,,,,,,,,,,,,,,,,,,,,,,,,,,,,,,,,,518.0853810000044,,516.0166372000022,516.0166372000022,516.0166372000022,516.0166372000022,old_sceneIn_6.png,88,4.0,2.0621652999980142,,083,10,2025-07-18_12h04.11.696,Surprise recog test,2023.1.3,59.915650747182355,
88,0,88,0,,,,,,,,,,,,,,,,,,,,,,,,,,,,,,,,,,521.231915700002,522.2422980000047,519.1186372000011,519.1186372000011,519.1186372000011,519.1186372000011,new_sceneIn_34.png,89,4.0,2.1134897000010824,,083,10,2025-07-18_12h04.11.696,Surprise recog test,2023.1.3,59.915650747182355,
89,0,89,0,,,,,,,,,,,,,,,,,,,,,,,,,,,,,,,,,,523.3466164999991,524.3737364000044,522.2422980000047,522.2422980000047,522.2422980000047,522.2422980000047,new_fruit_29.png,90,2.0,1.0994084999983897,,083,10,2025-07-18_12h04.11.696,Surprise recog test,2023.1.3,59.915650747182355,
90,0,90,0,,,,,,,,,,,,,,,,,,,,,,,,,,,,,,,,,,525.5431262000056,526.5738522000029,524.3737364000044,524.3737364000044,524.3737364000044,524.3737364000044,new_sceneOut_31.png,91,4.0,1.171483399994031,,083,10,2025-07-18_12h04.11.696,Surprise recog test,2023.1.3,59.915650747182355,
91,0,91,0,,,,,,,,,,,,,,,,,,,,,,,,,,,,,,,,,,527.7734322000033,528.7801744000026,526.5738522000029,526.5738522000029,526.5738522000029,526.5738522000029,new_stationery_30.png,92,3.0,1.1989270999984,,083,10,2025-07-18_12h04.11.696,Surprise recog test,2023.1.3,59.915650747182355,
92,0,92,0,,,,,,,,,,,,,,,,,,,,,,,,,,,,,,,,,,529.9415181000004,530.9619517000028,528.7801744000026,528.7801744000026,528.7801744000026,528.7801744000026,old_fruit_4.png,93,3.0,1.150648499999079,,083,10,2025-07-18_12h04.11.696,Surprise recog test,2023.1.3,59.915650747182355,
93,0,93,0,,,,,,,,,,,,,,,,,,,,,,,,,,,,,,,,,,533.325654100001,534.3473346000028,530.9619517000028,530.9619517000028,530.9619517000028,530.9619517000028,old_fruit_41.png,94,1.0,2.3612640999999712,,083,10,2025-07-18_12h04.11.696,Surprise recog test,2023.1.3,59.915650747182355,
94,0,94,0,,,,,,,,,,,,,,,,,,,,,,,,,,,,,,,,,,535.7976758000004,536.8132862999992,534.3473346000028,534.3473346000028,534.3473346000028,534.3473346000028,old_sceneOut_26.png,95,5.0,1.4512828000006266,,083,10,2025-07-18_12h04.11.696,Surprise recog test,2023.1.3,59.915650747182355,
95,0,95,0,,,,,,,,,,,,,,,,,,,,,,,,,,,,,,,,,,538.3819648999997,539.4038657000056,536.8132862999992,536.8132862999992,536.8132862999992,536.8132862999992,old_sceneIn_39.png,96,3.0,1.5659507000018493,,083,10,2025-07-18_12h04.11.696,Surprise recog test,2023.1.3,59.915650747182355,
96,0,96,0,,,,,,,,,,,,,,,,,,,,,,,,,,,,,,,,,,540.7056567000036,541.7322000000058,539.4038657000056,539.4038657000056,539.4038657000056,539.4038657000056,old_sceneIn_15.png,97,4.0,1.3044413999959943,,083,10,2025-07-18_12h04.11.696,Surprise recog test,2023.1.3,59.915650747182355,
97,0,97,0,,,,,,,,,,,,,,,,,,,,,,,,,,,,,,,,,,542.807026500006,543.8322193000058,541.7322000000058,541.7322000000058,541.7322000000058,541.7322000000058,new_fruit_14.png,98,2.0,1.0759299999990617,,083,10,2025-07-18_12h04.11.696,Surprise recog test,2023.1.3,59.915650747182355,
98,0,98,0,,,,,,,,,,,,,,,,,,,,,,,,,,,,,,,,,,544.9039810000031,545.924648500004,543.8322193000058,543.8322193000058,543.8322193000058,543.8322193000058,new_fruit_27.png,99,2.0,1.0722712999995565,,083,10,2025-07-18_12h04.11.696,Surprise recog test,2023.1.3,59.915650747182355,
99,0,99,0,,,,,,,,,,,,,,,,,,,,,,,,,,,,,,,,,,547.2463277999996,548.2769922000007,545.924648500004,545.924648500004,545.924648500004,545.924648500004,new_sceneIn_19.png,100,4.0,1.3218534999978147,,083,10,2025-07-18_12h04.11.696,Surprise recog test,2023.1.3,59.915650747182355,
100,0,100,0,,,,,,,,,,,,,,,,,,,,,,,,,,,,,,,,,,548.9903798000014,550.0116549000013,548.2769922000007,548.2769922000007,548.2769922000007,548.2769922000007,new_sceneOut_2.png,101,4.0,0.7155503000030876,,083,10,2025-07-18_12h04.11.696,Surprise recog test,2023.1.3,59.915650747182355,
101,0,101,0,,,,,,,,,,,,,,,,,,,,,,,,,,,,,,,,,,551.0113916000046,,550.0116549000013,550.0116549000013,550.0116549000013,550.0116549000013,new_fruit_1.png,102,5.0,0.9987207000012859,,083,10,2025-07-18_12h04.11.696,Surprise recog test,2023.1.3,59.915650747182355,
102,0,102,0,,,,,,,,,,,,,,,,,,,,,,,,,,,,,,,,,,553.4603515000053,554.475895399999,552.046310800004,552.046310800004,552.046310800004,552.046310800004,old_stationery_26.png,103,1.0,1.4164566000035848,,083,10,2025-07-18_12h04.11.696,Surprise recog test,2023.1.3,59.915650747182355,
103,0,103,0,,,,,,,,,,,,,,,,,,,,,,,,,,,,,,,,,,555.4677501000042,556.4990808000002,554.475895399999,554.475895399999,554.475895399999,554.475895399999,new_sceneIn_17.png,104,4.0,0.9933228000008967,,083,10,2025-07-18_12h04.11.696,Surprise recog test,2023.1.3,59.915650747182355,
104,0,104,0,,,,,,,,,,,,,,,,,,,,,,,,,,,,,,,,,,557.9134778000007,558.9308762000001,556.4990808000002,556.4990808000002,556.4990808000002,556.4990808000002,new_stationery_34.png,105,5.0,1.4161659000019426,,083,10,2025-07-18_12h04.11.696,Surprise recog test,2023.1.3,59.915650747182355,
105,0,105,0,,,,,,,,,,,,,,,,,,,,,,,,,,,,,,,,,,560.568772999999,561.5799362000034,558.9308762000001,558.9308762000001,558.9308762000001,558.9308762000001,new_sceneIn_26.png,106,5.0,1.6395945999975083,,083,10,2025-07-18_12h04.11.696,Surprise recog test,2023.1.3,59.915650747182355,
106,0,106,0,,,,,,,,,,,,,,,,,,,,,,,,,,,,,,,,,,563.0231806000011,,561.5799362000034,561.5799362000034,561.5799362000034,561.5799362000034,new_sceneOut_36.png,107,5.0,1.4438181000004988,,083,10,2025-07-18_12h04.11.696,Surprise recog test,2023.1.3,59.915650747182355,
107,0,107,0,,,,,,,,,,,,,,,,,,,,,,,,,,,,,,,,,,565.1672541000007,566.179455700003,564.0496856000027,564.0496856000027,564.0496856000027,564.0496856000027,new_fruit_26.png,108,5.0,1.1188235000008717,,083,10,2025-07-18_12h04.11.696,Surprise recog test,2023.1.3,59.915650747182355,
108,0,108,0,,,,,,,,,,,,,,,,,,,,,,,,,,,,,,,,,,567.4521664000058,568.4772123000002,566.179455700003,566.179455700003,566.179455700003,566.179455700003,old_stationery_33.png,109,1.0,1.2682205999954022,,083,10,2025-07-18_12h04.11.696,Surprise recog test,2023.1.3,59.915650747182355,
109,0,109,0,,,,,,,,,,,,,,,,,,,,,,,,,,,,,,,,,,570.2766794000054,571.2939054000017,568.4772123000002,568.4772123000002,568.4772123000002,568.4772123000002,old_fruit_35.png,110,3.0,1.8024641000010888,,083,10,2025-07-18_12h04.11.696,Surprise recog test,2023.1.3,59.915650747182355,
110,0,110,0,,,,,,,,,,,,,,,,,,,,,,,,,,,,,,,,,,572.8099287000005,573.8153154000029,571.2939054000017,571.2939054000017,571.2939054000017,571.2939054000017,new_fruit_21.png,111,3.0,1.5175326000025962,,083,10,2025-07-18_12h04.11.696,Surprise recog test,2023.1.3,59.915650747182355,
111,0,111,0,,,,,,,,,,,,,,,,,,,,,,,,,,,,,,,,,,575.4915026000017,576.5053833999991,573.8153154000029,573.8153154000029,573.8153154000029,573.8153154000029,old_sceneIn_49.png,112,5.0,1.6716573000012431,,083,10,2025-07-18_12h04.11.696,Surprise recog test,2023.1.3,59.915650747182355,
112,0,112,0,,,,,,,,,,,,,,,,,,,,,,,,,,,,,,,,,,577.6978223000042,578.7022273000039,576.5053833999991,576.5053833999991,576.5053833999991,576.5053833999991,new_sceneOut_46.png,113,4.0,1.1830488999985391,,083,10,2025-07-18_12h04.11.696,Surprise recog test,2023.1.3,59.915650747182355,
113,0,113,0,,,,,,,,,,,,,,,,,,,,,,,,,,,,,,,,,,579.5837452000051,580.6042770999993,578.7022273000039,578.7022273000039,578.7022273000039,578.7022273000039,new_sceneIn_2.png,114,4.0,0.8777147000000696,,083,10,2025-07-18_12h04.11.696,Surprise recog test,2023.1.3,59.915650747182355,
114,0,114,0,,,,,,,,,,,,,,,,,,,,,,,,,,,,,,,,,,581.5273986000029,582.5572395000054,580.6042770999993,580.6042770999993,580.6042770999993,580.6042770999993,old_sceneOut_8.png,115,4.0,0.92488840000442,,083,10,2025-07-18_12h04.11.696,Surprise recog test,2023.1.3,59.915650747182355,
115,0,115,0,,,,,,,,,,,,,,,,,,,,,,,,,,,,,,,,,,584.2530512000012,585.2773256,582.5572395000054,582.5572395000054,582.5572395000054,582.5572395000054,new_sceneIn_25.png,116,4.0,1.6982613000000129,,083,10,2025-07-18_12h04.11.696,Surprise recog test,2023.1.3,59.915650747182355,
116,0,116,0,,,,,,,,,,,,,,,,,,,,,,,,,,,,,,,,,,586.5634171999991,587.591250700003,585.2773256,585.2773256,585.2773256,585.2773256,new_stationery_47.png,117,2.0,1.2890541000015219,,083,10,2025-07-18_12h04.11.696,Surprise recog test,2023.1.3,59.915650747182355,
117,0,117,0,,,,,,,,,,,,,,,,,,,,,,,,,,,,,,,,,,589.2891990999997,590.311080200001,587.591250700003,587.591250700003,587.591250700003,587.591250700003,new_sceneIn_32.png,118,5.0,1.6997248999978183,,083,10,2025-07-18_12h04.11.696,Surprise recog test,2023.1.3,59.915650747182355,
118,0,118,0,,,,,,,,,,,,,,,,,,,,,,,,,,,,,,,,,,591.4905280000021,592.5133016000036,590.311080200001,590.311080200001,590.311080200001,590.311080200001,old_sceneOut_1.png,119,5.0,1.1809285999988788,,083,10,2025-07-18_12h04.11.696,Surprise recog test,2023.1.3,59.915650747182355,
119,0,119,0,,,,,,,,,,,,,,,,,,,,,,,,,,,,,,,,,,593.4859073000043,594.5153022000013,592.5133016000036,592.5133016000036,592.5133016000036,592.5133016000036,new_sceneIn_39.png,120,5.0,0.9751524000021163,,083,10,2025-07-18_12h04.11.696,Surprise recog test,2023.1.3,59.915650747182355,
120,0,120,0,,,,,,,,,,,,,,,,,,,,,,,,,,,,,,,,,,595.7484404000061,,594.5153022000013,594.5153022000013,594.5153022000013,594.5153022000013,old_stationery_36.png,121,2.0,1.2322264000031282,,083,10,2025-07-18_12h04.11.696,Surprise recog test,2023.1.3,59.915650747182355,
121,0,121,0,,,,,,,,,,,,,,,,,,,,,,,,,,,,,,,,,,598.7894878000006,599.8071017000038,596.7697917000041,596.7697917000041,596.7697917000041,596.7697917000041,new_fruit_22.png,122,4.0,2.013472400001774,,083,10,2025-07-18_12h04.11.696,Surprise recog test,2023.1.3,59.915650747182355,
122,0,122,0,,,,,,,,,,,,,,,,,,,,,,,,,,,,,,,,,,601.0001793000047,602.0094482000059,599.8071017000038,599.8071017000038,599.8071017000038,599.8071017000038,new_sceneOut_49.png,123,5.0,1.1891331000006176,,083,10,2025-07-18_12h04.11.696,Surprise recog test,2023.1.3,59.915650747182355,
123,0,123,0,,,,,,,,,,,,,,,,,,,,,,,,,,,,,,,,,,603.2507244000008,604.2692043000061,602.0094482000059,602.0094482000059,602.0094482000059,602.0094482000059,new_stationery_8.png,124,4.0,1.2393735000005108,,083,10,2025-07-18_12h04.11.696,Surprise recog test,2023.1.3,59.915650747182355,
124,0,124,0,,,,,,,,,,,,,,,,,,,,,,,,,,,,,,,,,,605.7239181000041,,604.2692043000061,604.2692043000061,604.2692043000061,604.2692043000061,old_stationery_5.png,125,2.0,1.45600949999789,,083,10,2025-07-18_12h04.11.696,Surprise recog test,2023.1.3,59.915650747182355,
125,0,125,0,,,,,,,,,,,,,,,,,,,,,,,,,,,,,,,,,,607.8707066999996,608.892059400001,606.7453234999994,606.7453234999994,606.7453234999994,606.7453234999994,new_sceneIn_24.png,126,5.0,1.1211131000018213,,083,10,2025-07-18_12h04.11.696,Surprise recog test,2023.1.3,59.915650747182355,
126,0,126,0,,,,,,,,,,,,,,,,,,,,,,,,,,,,,,,,,,610.3273289999997,,608.892059400001,608.892059400001,608.892059400001,608.892059400001,old_stationery_32.png,127,1.0,1.4370487999985926,,083,10,2025-07-18_12h04.11.696,Surprise recog test,2023.1.3,59.915650747182355,
127,0,127,0,,,,,,,,,,,,,,,,,,,,,,,,,,,,,,,,,,612.6188846000005,613.6446396000028,611.364213300003,611.364213300003,611.364213300003,611.364213300003,new_sceneOut_12.png,128,5.0,1.2551751999999397,,083,10,2025-07-18_12h04.11.696,Surprise recog test,2023.1.3,59.915650747182355,
128,0,128,0,,,,,,,,,,,,,,,,,,,,,,,,,,,,,,,,,,614.5656000000017,,613.6446396000028,613.6446396000028,613.6446396000028,613.6446396000028,old_sceneOut_23.png,129,4.0,0.9220687999986694,,083,10,2025-07-18_12h04.11.696,Surprise recog test,2023.1.3,59.915650747182355,
129,0,129,0,,,,,,,,,,,,,,,,,,,,,,,,,,,,,,,,,,616.6824498999995,,615.601167700006,615.601167700006,615.601167700006,615.601167700006,old_fruit_34.png,130,3.0,1.0845071000003372,,083,10,2025-07-18_12h04.11.696,Surprise recog test,2023.1.3,59.915650747182355,
130,0,130,0,,,,,,,,,,,,,,,,,,,,,,,,,,,,,,,,,,619.2295266000001,620.2622393000056,617.7141295000038,617.7141295000038,617.7141295000038,617.7141295000038,new_fruit_10.png,131,4.0,1.5174544999972568,,083,10,2025-07-18_12h04.11.696,Surprise recog test,2023.1.3,59.915650747182355,
131,0,131,0,,,,,,,,,,,,,,,,,,,,,,,,,,,,,,,,,,621.373585500005,622.4042525000041,620.2622393000056,620.2622393000056,620.2622393000056,620.2622393000056,new_sceneOut_42.png,132,4.0,1.1167900000000373,,083,10,2025-07-18_12h04.11.696,Surprise recog test,2023.1.3,59.915650747182355,
132,0,132,0,,,,,,,,,,,,,,,,,,,,,,,,,,,,,,,,,,623.4761383000005,624.4929775000055,622.4042525000041,622.4042525000041,622.4042525000041,622.4042525000041,old_sceneIn_47.png,133,4.0,1.0732822999998461,,083,10,2025-07-18_12h04.11.696,Surprise recog test,2023.1.3,59.915650747182355,
133,0,133,0,,,,,,,,,,,,,,,,,,,,,,,,,,,,,,,,,,625.7326364000037,626.7571515000018,624.4929775000055,624.4929775000055,624.4929775000055,624.4929775000055,new_stationery_4.png,134,2.0,1.2379383000006783,,083,10,2025-07-18_12h04.11.696,Surprise recog test,2023.1.3,59.915650747182355,
134,0,134,0,,,,,,,,,,,,,,,,,,,,,,,,,,,,,,,,,,628.4137611000042,629.4410009999992,626.7571515000018,626.7571515000018,626.7571515000018,626.7571515000018,old_sceneIn_10.png,135,2.0,1.6584125000008498,,083,10,2025-07-18_12h04.11.696,Surprise recog test,2023.1.3,59.915650747182355,
135,0,135,0,,,,,,,,,,,,,,,,,,,,,,,,,,,,,,,,,,630.5018907000049,631.5158092000056,629.4410009999992,629.4410009999992,629.4410009999992,629.4410009999992,old_sceneIn_1.png,136,4.0,1.0618653999990784,,083,10,2025-07-18_12h04.11.696,Surprise recog test,2023.1.3,59.915650747182355,
136,0,136,0,,,,,,,,,,,,,,,,,,,,,,,,,,,,,,,,,,632.6998232000042,633.7301211000013,631.5158092000056,631.5158092000056,631.5158092000056,631.5158092000056,new_stationery_28.png,137,2.0,1.179023299999244,,083,10,2025-07-18_12h04.11.696,Surprise recog test,2023.1.3,59.915650747182355,
137,0,137,0,,,,,,,,,,,,,,,,,,,,,,,,,,,,,,,,,,634.9329653000023,,633.7301211000013,633.7301211000013,633.7301211000013,633.7301211000013,old_stationery_49.png,138,1.0,1.2034885000030044,,083,10,2025-07-18_12h04.11.696,Surprise recog test,2023.1.3,59.915650747182355,
138,0,138,0,,,,,,,,,,,,,,,,,,,,,,,,,,,,,,,,,,637.2997329999998,,635.9640618000049,635.9640618000049,635.9640618000049,635.9640618000049,old_fruit_1.png,139,2.0,1.3377207999947132,,083,10,2025-07-18_12h04.11.696,Surprise recog test,2023.1.3,59.915650747182355,
139,0,139,0,,,,,,,,,,,,,,,,,,,,,,,,,,,,,,,,,,639.6520600000003,,638.3325836000004,638.3325836000004,638.3325836000004,638.3325836000004,new_sceneOut_48.png,140,5.0,1.3213212999980897,,083,10,2025-07-18_12h04.11.696,Surprise recog test,2023.1.3,59.915650747182355,
140,0,140,0,,,,,,,,,,,,,,,,,,,,,,,,,,,,,,,,,,641.7746033000003,642.7939842000051,640.6739367000046,640.6739367000046,640.6739367000046,640.6739367000046,new_stationery_38.png,141,2.0,1.096918099996401,,083,10,2025-07-18_12h04.11.696,Surprise recog test,2023.1.3,59.915650747182355,
141,0,141,0,,,,,,,,,,,,,,,,,,,,,,,,,,,,,,,,,,643.5678508000055,644.5874412000048,642.7939842000051,642.7939842000051,642.7939842000051,642.7939842000051,new_stationery_19.png,142,3.0,0.7705385000008391,,083,10,2025-07-18_12h04.11.696,Surprise recog test,2023.1.3,59.915650747182355,
142,0,142,0,,,,,,,,,,,,,,,,,,,,,,,,,,,,,,,,,,645.7702892000016,646.783877300004,644.5874412000048,644.5874412000048,644.5874412000048,644.5874412000048,old_fruit_6.png,143,4.0,1.184343999993871,,083,10,2025-07-18_12h04.11.696,Surprise recog test,2023.1.3,59.915650747182355,
143,0,143,0,,,,,,,,,,,,,,,,,,,,,,,,,,,,,,,,,,648.0481375000018,649.0776144000047,646.783877300004,646.783877300004,646.783877300004,646.783877300004,old_stationery_14.png,144,1.0,1.2652816999980132,,083,10,2025-07-18_12h04.11.696,Surprise recog test,2023.1.3,59.915650747182355,
144,0,144,0,,,,,,,,,,,,,,,,,,,,,,,,,,,,,,,,,,650.1339469000013,651.1589879000021,649.0776144000047,649.0776144000047,649.0776144000047,649.0776144000047,new_sceneOut_38.png,145,5.0,1.0566277999969316,,083,10,2025-07-18_12h04.11.696,Surprise recog test,2023.1.3,59.915650747182355,
145,0,145,0,,,,,,,,,,,,,,,,,,,,,,,,,,,,,,,,,,652.425811000001,653.4409612000018,651.1589879000021,651.1589879000021,651.1589879000021,651.1589879000021,old_stationery_16.png,146,1.0,1.2691363999983878,,083,10,2025-07-18_12h04.11.696,Surprise recog test,2023.1.3,59.915650747182355,
146,0,146,0,,,,,,,,,,,,,,,,,,,,,,,,,,,,,,,,,,654.5193444000033,655.5492457,653.4409612000018,653.4409612000018,653.4409612000018,653.4409612000018,old_sceneOut_27.png,147,3.0,1.0778236000041943,,083,10,2025-07-18_12h04.11.696,Surprise recog test,2023.1.3,59.915650747182355,
147,0,147,0,,,,,,,,,,,,,,,,,,,,,,,,,,,,,,,,,,656.8850128000049,657.919940300002,655.5492457,655.5492457,655.5492457,655.5492457,new_stationery_43.png,148,2.0,1.3384985000011511,,083,10,2025-07-18_12h04.11.696,Surprise recog test,2023.1.3,59.915650747182355,
148,0,148,0,,,,,,,,,,,,,,,,,,,,,,,,,,,,,,,,,,658.9601566000056,659.9863767999996,657.919940300002,657.919940300002,657.919940300002,657.919940300002,old_sceneIn_24.png,149,4.0,1.043574899995292,,083,10,2025-07-18_12h04.11.696,Surprise recog test,2023.1.3,59.915650747182355,
149,0,149,0,,,,,,,,,,,,,,,,,,,,,,,,,,,,,,,,,,660.801650100002,661.8202440000023,659.9863767999996,659.9863767999996,659.9863767999996,659.9863767999996,old_sceneOut_24.png,150,4.0,0.8180354999931296,,083,10,2025-07-18_12h04.11.696,Surprise recog test,2023.1.3,59.915650747182355,
150,0,150,0,,,,,,,,,,,,,,,,,,,,,,,,,,,,,,,,,,663.1234850000037,664.1436799000003,661.8202440000023,661.8202440000023,661.8202440000023,661.8202440000023,new_sceneIn_23.png,151,4.0,1.3040459000039846,,083,10,2025-07-18_12h04.11.696,Surprise recog test,2023.1.3,59.915650747182355,
151,0,151,0,,,,,,,,,,,,,,,,,,,,,,,,,,,,,,,,,,665.9698441,666.9911753000051,664.1436799000003,664.1436799000003,664.1436799000003,664.1436799000003,new_sceneOut_47.png,152,5.0,1.8223410999999032,,083,10,2025-07-18_12h04.11.696,Surprise recog test,2023.1.3,59.915650747182355,
152,0,152,0,,,,,,,,,,,,,,,,,,,,,,,,,,,,,,,,,,668.4414551000009,669.447917000005,666.9911753000051,666.9911753000051,666.9911753000051,666.9911753000051,new_fruit_15.png,153,4.0,1.4525157999960356,,083,10,2025-07-18_12h04.11.696,Surprise recog test,2023.1.3,59.915650747182355,
153,0,153,0,,,,,,,,,,,,,,,,,,,,,,,,,,,,,,,,,,670.4298431000061,671.462623200001,669.447917000005,669.447917000005,669.447917000005,669.447917000005,old_sceneOut_19.png,154,4.0,0.9764193000009982,,083,10,2025-07-18_12h04.11.696,Surprise recog test,2023.1.3,59.915650747182355,
154,0,154,0,,,,,,,,,,,,,,,,,,,,,,,,,,,,,,,,,,673.1715499999991,674.1978617000059,671.462623200001,671.462623200001,671.462623200001,671.462623200001,old_stationery_6.png,155,5.0,1.7106354999996256,,083,10,2025-07-18_12h04.11.696,Surprise recog test,2023.1.3,59.915650747182355,
155,0,155,0,,,,,,,,,,,,,,,,,,,,,,,,,,,,,,,,,,675.3396422000005,676.360926500005,674.1978617000059,674.1978617000059,674.1978617000059,674.1978617000059,old_fruit_37.png,156,4.0,1.1442865999997593,,083,10,2025-07-18_12h04.11.696,Surprise recog test,2023.1.3,59.915650747182355,
156,0,156,0,,,,,,,,,,,,,,,,,,,,,,,,,,,,,,,,,,677.5974914000035,678.6173015000022,676.360926500005,676.360926500005,676.360926500005,676.360926500005,old_sceneOut_30.png,157,4.0,1.227255999998306,,083,10,2025-07-18_12h04.11.696,Surprise recog test,2023.1.3,59.915650747182355,
157,0,157,0,,,,,,,,,,,,,,,,,,,,,,,,,,,,,,,,,,679.7017689999993,,678.6173015000022,678.6173015000022,678.6173015000022,678.6173015000022,old_sceneIn_46.png,158,4.0,1.0857673999998951,,083,10,2025-07-18_12h04.11.696,Surprise recog test,2023.1.3,59.915650747182355,
158,0,158,0,,,,,,,,,,,,,,,,,,,,,,,,,,,,,,,,,,682.0511209000033,683.0714596000034,680.7329205999995,680.7329205999995,680.7329205999995,680.7329205999995,old_stationery_3.png,159,1.0,1.3201191999978619,,083,10,2025-07-18_12h04.11.696,Surprise recog test,2023.1.3,59.915650747182355,
159,0,159,0,,,,,,,,,,,,,,,,,,,,,,,,,,,,,,,,,,684.2698034000059,685.2921533000044,683.0714596000034,683.0714596000034,683.0714596000034,683.0714596000034,old_fruit_25.png,160,3.0,1.1985964000050444,,083,10,2025-07-18_12h04.11.696,Surprise recog test,2023.1.3,59.915650747182355,
160,0,160,0,,,,,,,,,,,,,,,,,,,,,,,,,,,,,,,,,,686.6435875000025,687.6755382000047,685.2921533000044,685.2921533000044,685.2921533000044,685.2921533000044,old_stationery_13.png,161,2.0,1.3514194000017596,,083,10,2025-07-18_12h04.11.696,Surprise recog test,2023.1.3,59.915650747182355,
161,0,161,0,,,,,,,,,,,,,,,,,,,,,,,,,,,,,,,,,,690.2690497000003,691.2811466000057,687.6755382000047,687.6755382000047,687.6755382000047,687.6755382000047,old_sceneIn_7.png,162,5.0,2.596139699999185,,083,10,2025-07-18_12h04.11.696,Surprise recog test,2023.1.3,59.915650747182355,
162,0,162,0,,,,,,,,,,,,,,,,,,,,,,,,,,,,,,,,,,692.9951508000013,694.0086445000052,691.2811466000057,691.2811466000057,691.2811466000057,691.2811466000057,new_sceneIn_9.png,163,4.0,1.7083153999992646,,083,10,2025-07-18_12h04.11.696,Surprise recog test,2023.1.3,59.915650747182355,
163,0,163,0,,,,,,,,,,,,,,,,,,,,,,,,,,,,,,,,,,695.210702000004,696.220330600001,694.0086445000052,694.0086445000052,694.0086445000052,694.0086445000052,new_sceneIn_40.png,164,4.0,1.2029906000025221,,083,10,2025-07-18_12h04.11.696,Surprise recog test,2023.1.3,59.915650747182355,
164,0,164,0,,,,,,,,,,,,,,,,,,,,,,,,,,,,,,,,,,697.7844361000025,,696.220330600001,696.220330600001,696.220330600001,696.220330600001,new_sceneOut_50.png,165,4.0,1.5596785000016098,,083,10,2025-07-18_12h04.11.696,Surprise recog test,2023.1.3,59.915650747182355,
165,0,165,0,,,,,,,,,,,,,,,,,,,,,,,,,,,,,,,,,,700.2067284000004,701.2361517000027,698.8027189999993,698.8027189999993,698.8027189999993,698.8027189999993,new_stationery_18.png,166,4.0,1.4001385000010487,,083,10,2025-07-18_12h04.11.696,Surprise recog test,2023.1.3,59.915650747182355,
166,0,166,0,,,,,,,,,,,,,,,,,,,,,,,,,,,,,,,,,,702.430260400004,703.454193000005,701.2361517000027,701.2361517000027,701.2361517000027,701.2361517000027,new_fruit_41.png,167,4.0,1.1930468999998993,,083,10,2025-07-18_12h04.11.696,Surprise recog test,2023.1.3,59.915650747182355,
167,0,167,0,,,,,,,,,,,,,,,,,,,,,,,,,,,,,,,,,,704.9373215000014,705.9584453999996,703.454193000005,703.454193000005,703.454193000005,703.454193000005,old_stationery_38.png,168,1.0,1.4818392000015592,,083,10,2025-07-18_12h04.11.696,Surprise recog test,2023.1.3,59.915650747182355,
168,0,168,0,,,,,,,,,,,,,,,,,,,,,,,,,,,,,,,,,,707.5014273000052,708.5252981000012,705.9584453999996,705.9584453999996,705.9584453999996,705.9584453999996,new_sceneOut_19.png,169,3.0,1.5453554000050644,,083,10,2025-07-18_12h04.11.696,Surprise recog test,2023.1.3,59.915650747182355,
169,0,169,0,,,,,,,,,,,,,,,,,,,,,,,,,,,,,,,,,,709.7119765000025,710.7437993000058,708.5252981000012,708.5252981000012,708.5252981000012,708.5252981000012,new_fruit_25.png,170,2.0,1.1889372000005096,,083,10,2025-07-18_12h04.11.696,Surprise recog test,2023.1.3,59.915650747182355,
170,0,170,0,,,,,,,,,,,,,,,,,,,,,,,,,,,,,,,,,,711.7224217000039,712.7399500000029,710.7437993000058,710.7437993000058,710.7437993000058,710.7437993000058,old_sceneOut_3.png,171,3.0,0.9806634999986272,,083,10,2025-07-18_12h04.11.696,Surprise recog test,2023.1.3,59.915650747182355,
171,0,171,0,,,,,,,,,,,,,,,,,,,,,,,,,,,,,,,,,,714.0212297000035,715.0473108000006,712.7399500000029,712.7399500000029,712.7399500000029,712.7399500000029,new_stationery_35.png,172,1.0,1.2824724999954924,,083,10,2025-07-18_12h04.11.696,Surprise recog test,2023.1.3,59.915650747182355,
172,0,172,0,,,,,,,,,,,,,,,,,,,,,,,,,,,,,,,,,,716.1088235000061,717.1183158000058,715.0473108000006,715.0473108000006,715.0473108000006,715.0473108000006,old_stationery_15.png,173,4.0,1.0625040999948396,,083,10,2025-07-18_12h04.11.696,Surprise recog test,2023.1.3,59.915650747182355,
173,0,173,0,,,,,,,,,,,,,,,,,,,,,,,,,,,,,,,,,,718.179143100002,719.2003999000008,717.1183158000058,717.1183158000058,717.1183158000058,717.1183158000058,new_fruit_50.png,174,2.0,1.056891700005508,,083,10,2025-07-18_12h04.11.696,Surprise recog test,2023.1.3,59.915650747182355,
174,0,174,0,,,,,,,,,,,,,,,,,,,,,,,,,,,,,,,,,,720.0526437000008,,719.2003999000008,719.2003999000008,719.2003999000008,719.2003999000008,new_sceneIn_20.png,175,4.0,0.8531769000037457,,083,10,2025-07-18_12h04.11.696,Surprise recog test,2023.1.3,59.915650747182355,
175,0,175,0,,,,,,,,,,,,,,,,,,,,,,,,,,,,,,,,,,721.758084000001,722.7757811000047,721.0887175000025,721.0887175000025,721.0887175000025,721.0887175000025,old_sceneOut_11.png,176,4.0,0.6710963000004995,,083,10,2025-07-18_12h04.11.696,Surprise recog test,2023.1.3,59.915650747182355,
176,0,176,0,,,,,,,,,,,,,,,,,,,,,,,,,,,,,,,,,,723.7944499000005,724.8124628000005,722.7757811000047,722.7757811000047,722.7757811000047,722.7757811000047,old_fruit_27.png,177,3.0,1.0145166000002064,,083,10,2025-07-18_12h04.11.696,Surprise recog test,2023.1.3,59.915650747182355,
177,0,177,0,,,,,,,,,,,,,,,,,,,,,,,,,,,,,,,,,,727.236267500004,728.2497405000031,724.8124628000005,724.8124628000005,724.8124628000005,724.8124628000005,old_sceneOut_47.png,178,2.0,2.4196802000005846,,083,10,2025-07-18_12h04.11.696,Surprise recog test,2023.1.3,59.915650747182355,
178,0,178,0,,,,,,,,,,,,,,,,,,,,,,,,,,,,,,,,,,729.4784820000059,730.5110158000025,728.2497405000031,728.2497405000031,728.2497405000031,728.2497405000031,new_sceneIn_44.png,179,3.0,1.2289321000062046,,083,10,2025-07-18_12h04.11.696,Surprise recog test,2023.1.3,59.915650747182355,
179,0,179,0,,,,,,,,,,,,,,,,,,,,,,,,,,,,,,,,,,732.1132081000032,,730.5110158000025,730.5110158000025,730.5110158000025,730.5110158000025,new_sceneIn_46.png,180,4.0,1.6032597000012174,,083,10,2025-07-18_12h04.11.696,Surprise recog test,2023.1.3,59.915650747182355,
180,0,180,0,,,,,,,,,,,,,,,,,,,,,,,,,,,,,,,,,,733.9336353000035,734.9642448000013,733.1348260000013,733.1348260000013,733.1348260000013,733.1348260000013,new_sceneOut_16.png,181,4.0,0.7961663000023691,,083,10,2025-07-18_12h04.11.696,Surprise recog test,2023.1.3,59.915650747182355,
181,0,181,0,,,,,,,,,,,,,,,,,,,,,,,,,,,,,,,,,,736.6620400000029,737.6821755000055,734.9642448000013,734.9642448000013,734.9642448000013,734.9642448000013,old_fruit_45.png,182,1.0,1.6990506000001915,,083,10,2025-07-18_12h04.11.696,Surprise recog test,2023.1.3,59.915650747182355,
182,0,182,0,,,,,,,,,,,,,,,,,,,,,,,,,,,,,,,,,,739.1067086000039,740.1387552000015,737.6821755000055,737.6821755000055,737.6821755000055,737.6821755000055,old_stationery_18.png,183,2.0,1.4265205999981845,,083,10,2025-07-18_12h04.11.696,Surprise recog test,2023.1.3,59.915650747182355,
183,0,183,0,,,,,,,,,,,,,,,,,,,,,,,,,,,,,,,,,,741.0834565000041,742.1035284000027,740.1387552000015,740.1387552000015,740.1387552000015,740.1387552000015,new_stationery_39.png,184,3.0,0.9473130000042147,,083,10,2025-07-18_12h04.11.696,Surprise recog test,2023.1.3,59.915650747182355,
184,0,184,0,,,,,,,,,,,,,,,,,,,,,,,,,,,,,,,,,,743.3972477000061,744.4241850000035,742.1035284000027,742.1035284000027,742.1035284000027,742.1035284000027,old_fruit_39.png,185,3.0,1.2952194000026793,,083,10,2025-07-18_12h04.11.696,Surprise recog test,2023.1.3,59.915650747182355,
185,0,185,0,,,,,,,,,,,,,,,,,,,,,,,,,,,,,,,,,,745.5212374000039,746.5388439000017,744.4241850000035,744.4241850000035,744.4241850000035,744.4241850000035,new_sceneIn_11.png,186,4.0,1.1005862000019988,,083,10,2025-07-18_12h04.11.696,Surprise recog test,2023.1.3,59.915650747182355,
186,0,186,0,,,,,,,,,,,,,,,,,,,,,,,,,,,,,,,,,,747.8680483000062,748.8937131000057,746.5388439000017,746.5388439000017,746.5388439000017,746.5388439000017,old_stationery_20.png,187,2.0,1.331207600000198,,083,10,2025-07-18_12h04.11.696,Surprise recog test,2023.1.3,59.915650747182355,
187,0,187,0,,,,,,,,,,,,,,,,,,,,,,,,,,,,,,,,,,750.0827560000034,751.1027271999992,748.8937131000057,748.8937131000057,748.8937131000057,748.8937131000057,new_fruit_38.png,188,2.0,1.1912005999984103,,083,10,2025-07-18_12h04.11.696,Surprise recog test,2023.1.3,59.915650747182355,
188,0,188,0,,,,,,,,,,,,,,,,,,,,,,,,,,,,,,,,,,752.4299358999997,,751.1027271999992,751.1027271999992,751.1027271999992,751.1027271999992,new_sceneIn_41.png,189,3.0,1.326630399998976,,083,10,2025-07-18_12h04.11.696,Surprise recog test,2023.1.3,59.915650747182355,
189,0,189,0,,,,,,,,,,,,,,,,,,,,,,,,,,,,,,,,,,754.635804000005,755.6663327999995,753.4579709000027,753.4579709000027,753.4579709000027,753.4579709000027,new_stationery_50.png,190,3.0,1.1796967999980552,,083,10,2025-07-18_12h04.11.696,Surprise recog test,2023.1.3,59.915650747182355,
190,0,190,0,,,,,,,,,,,,,,,,,,,,,,,,,,,,,,,,,,757.1035275000031,758.128461100001,755.6663327999995,755.6663327999995,755.6663327999995,755.6663327999995,new_stationery_32.png,191,2.0,1.440033200000471,,083,10,2025-07-18_12h04.11.696,Surprise recog test,2023.1.3,59.915650747182355,
191,0,191,0,,,,,,,,,,,,,,,,,,,,,,,,,,,,,,,,,,759.7065116000012,760.7354409000036,758.128461100001,758.128461100001,758.128461100001,758.128461100001,old_fruit_15.png,192,2.0,1.5773678999976255,,083,10,2025-07-18_12h04.11.696,Surprise recog test,2023.1.3,59.915650747182355,
192,0,192,0,,,,,,,,,,,,,,,,,,,,,,,,,,,,,,,,,,762.3869311000017,,760.7354409000036,760.7354409000036,760.7354409000036,760.7354409000036,old_stationery_1.png,193,2.0,1.652531200001249,,083,10,2025-07-18_12h04.11.696,Surprise recog test,2023.1.3,59.915650747182355,
193,0,193,0,,,,,,,,,,,,,,,,,,,,,,,,,,,,,,,,,,764.5576208999992,765.5926303000015,763.4199615000034,763.4199615000034,763.4199615000034,763.4199615000034,old_sceneIn_30.png,194,4.0,1.1393801999947755,,083,10,2025-07-18_12h04.11.696,Surprise recog test,2023.1.3,59.915650747182355,
194,0,194,0,,,,,,,,,,,,,,,,,,,,,,,,,,,,,,,,,,766.5495962999994,767.5712449000057,765.5926303000015,765.5926303000015,765.5926303000015,765.5926303000015,new_fruit_32.png,195,3.0,0.9611779000042588,,083,10,2025-07-18_12h04.11.696,Surprise recog test,2023.1.3,59.915650747182355,
195,0,195,0,,,,,,,,,,,,,,,,,,,,,,,,,,,,,,,,,,768.6715105000039,769.686792200002,767.5712449000057,767.5712449000057,767.5712449000057,767.5712449000057,new_fruit_30.png,196,2.0,1.1016896000000997,,083,10,2025-07-18_12h04.11.696,Surprise recog test,2023.1.3,59.915650747182355,
196,0,196,0,,,,,,,,,,,,,,,,,,,,,,,,,,,,,,,,,,770.4676280999993,771.4825803000058,769.686792200002,769.686792200002,769.686792200002,769.686792200002,new_sceneIn_38.png,197,4.0,0.7787154999969061,,083,10,2025-07-18_12h04.11.696,Surprise recog test,2023.1.3,59.915650747182355,
197,0,197,0,,,,,,,,,,,,,,,,,,,,,,,,,,,,,,,,,,773.1282653000017,774.1498455000037,771.4825803000058,771.4825803000058,771.4825803000058,771.4825803000058,new_fruit_24.png,198,5.0,1.6415771000029054,,083,10,2025-07-18_12h04.11.696,Surprise recog test,2023.1.3,59.915650747182355,
198,0,198,0,,,,,,,,,,,,,,,,,,,,,,,,,,,,,,,,,,775.5372542000041,776.5679988000047,774.1498455000037,774.1498455000037,774.1498455000037,774.1498455000037,old_stationery_12.png,199,2.0,1.390544099995168,,083,10,2025-07-18_12h04.11.696,Surprise recog test,2023.1.3,59.915650747182355,
199,0,199,0,,,,,,,,,,,,,,,,,,,,,,,,,,,,,,,,,,777.3665165000057,,776.5679988000047,776.5679988000047,776.5679988000047,776.5679988000047,new_sceneOut_3.png,200,3.0,0.8007145000010496,,083,10,2025-07-18_12h04.11.696,Surprise recog test,2023.1.3,59.915650747182355,
200,0,200,0,,,,,,,,,,,,,,,,,,,,,,,,,,,,,,,,,,779.0671344000002,780.0843550999998,778.3997321000061,778.3997321000061,778.3997321000061,778.3997321000061,new_fruit_44.png,201,3.0,0.6665594999940367,,083,10,2025-07-18_12h04.11.696,Surprise recog test,2023.1.3,59.915650747182355,
201,0,201,0,,,,,,,,,,,,,,,,,,,,,,,,,,,,,,,,,,781.310376100002,782.3384401000003,780.0843550999998,780.0843550999998,780.0843550999998,780.0843550999998,new_sceneOut_30.png,202,3.0,1.2273399000041536,,083,10,2025-07-18_12h04.11.696,Surprise recog test,2023.1.3,59.915650747182355,
202,0,202,0,,,,,,,,,,,,,,,,,,,,,,,,,,,,,,,,,,783.4289283000035,784.4559741000048,782.3384401000003,782.3384401000003,782.3384401000003,782.3384401000003,old_stationery_11.png,203,3.0,1.0923544999968726,,083,10,2025-07-18_12h04.11.696,Surprise recog test,2023.1.3,59.915650747182355,
203,0,203,0,,,,,,,,,,,,,,,,,,,,,,,,,,,,,,,,,,785.5584805000035,786.5878789000053,784.4559741000048,784.4559741000048,784.4559741000048,784.4559741000048,old_sceneOut_21.png,204,4.0,1.104595299999346,,083,10,2025-07-18_12h04.11.696,Surprise recog test,2023.1.3,59.915650747182355,
204,0,204,0,,,,,,,,,,,,,,,,,,,,,,,,,,,,,,,,,,787.6940223000056,788.7256474000023,786.5878789000053,786.5878789000053,786.5878789000053,786.5878789000053,new_fruit_45.png,205,4.0,1.1077889000007417,,083,10,2025-07-18_12h04.11.696,Surprise recog test,2023.1.3,59.915650747182355,
205,0,205,0,,,,,,,,,,,,,,,,,,,,,,,,,,,,,,,,,,790.2304175000027,791.2602815999999,788.7256474000023,788.7256474000023,788.7256474000023,788.7256474000023,old_fruit_36.png,206,4.0,1.505700000001525,,083,10,2025-07-18_12h04.11.696,Surprise recog test,2023.1.3,59.915650747182355,
206,0,206,0,,,,,,,,,,,,,,,,,,,,,,,,,,,,,,,,,,792.4732352999999,793.4947109999994,791.2602815999999,791.2602815999999,791.2602815999999,791.2602815999999,old_stationery_4.png,207,4.0,1.2140396000031615,,083,10,2025-07-18_12h04.11.696,Surprise recog test,2023.1.3,59.915650747182355,
207,0,207,0,,,,,,,,,,,,,,,,,,,,,,,,,,,,,,,,,,794.4611736000006,795.4699352000025,793.4947109999994,793.4947109999994,793.4947109999994,793.4947109999994,old_stationery_21.png,208,4.0,0.9637982999993255,,083,10,2025-07-18_12h04.11.696,Surprise recog test,2023.1.3,59.915650747182355,
208,0,208,0,,,,,,,,,,,,,,,,,,,,,,,,,,,,,,,,,,797.5046205000035,798.5220269000056,795.4699352000025,795.4699352000025,795.4699352000025,795.4699352000025,old_fruit_18.png,209,2.0,2.0300572000051034,,083,10,2025-07-18_12h04.11.696,Surprise recog test,2023.1.3,59.915650747182355,
209,0,209,0,,,,,,,,,,,,,,,,,,,,,,,,,,,,,,,,,,800.0572898000028,801.0860682000057,798.5220269000056,798.5220269000056,798.5220269000056,798.5220269000056,new_fruit_7.png,210,3.0,1.531287900004827,,083,10,2025-07-18_12h04.11.696,Surprise recog test,2023.1.3,59.915650747182355,
210,0,210,0,,,,,,,,,,,,,,,,,,,,,,,,,,,,,,,,,,802.6585078000062,803.687635000002,801.0860682000057,801.0860682000057,801.0860682000057,801.0860682000057,new_stationery_40.png,211,4.0,1.5739893999998458,,083,10,2025-07-18_12h04.11.696,Surprise recog test,2023.1.3,59.915650747182355,
211,0,211,0,,,,,,,,,,,,,,,,,,,,,,,,,,,,,,,,,,804.5540678000034,805.5718291000012,803.687635000002,803.687635000002,803.687635000002,803.687635000002,old_sceneIn_2.png,212,4.0,0.8660081999987597,,083,10,2025-07-18_12h04.11.696,Surprise recog test,2023.1.3,59.915650747182355,
212,0,212,0,,,,,,,,,,,,,,,,,,,,,,,,,,,,,,,,,,806.3445280000014,807.3745165,805.5718291000012,805.5718291000012,805.5718291000012,805.5718291000012,new_sceneOut_34.png,213,4.0,0.7720116999989841,,083,10,2025-07-18_12h04.11.696,Surprise recog test,2023.1.3,59.915650747182355,
213,0,213,0,,,,,,,,,,,,,,,,,,,,,,,,,,,,,,,,,,808.1045901000034,809.1213797000019,807.3745165,807.3745165,807.3745165,807.3745165,new_stationery_48.png,214,4.0,0.7303443999990122,,083,10,2025-07-18_12h04.11.696,Surprise recog test,2023.1.3,59.915650747182355,
214,0,214,0,,,,,,,,,,,,,,,,,,,,,,,,,,,,,,,,,,810.0419862000053,811.0542610000048,809.1213797000019,809.1213797000019,809.1213797000019,809.1213797000019,new_stationery_46.png,215,4.0,0.9199349000045913,,083,10,2025-07-18_12h04.11.696,Surprise recog test,2023.1.3,59.915650747182355,
215,0,215,0,,,,,,,,,,,,,,,,,,,,,,,,,,,,,,,,,,812.7541946000056,813.7680737000046,811.0542610000048,811.0542610000048,811.0542610000048,811.0542610000048,new_stationery_15.png,216,2.0,1.7003699999986566,,083,10,2025-07-18_12h04.11.696,Surprise recog test,2023.1.3,59.915650747182355,
216,0,216,0,,,,,,,,,,,,,,,,,,,,,,,,,,,,,,,,,,815.1004704000006,816.1340122000038,813.7680737000046,813.7680737000046,813.7680737000046,813.7680737000046,new_sceneIn_15.png,217,3.0,1.328141499994672,,083,10,2025-07-18_12h04.11.696,Surprise recog test,2023.1.3,59.915650747182355,
217,0,217,0,,,,,,,,,,,,,,,,,,,,,,,,,,,,,,,,,,817.0707021000053,818.102277900005,816.1340122000038,816.1340122000038,816.1340122000038,816.1340122000038,old_sceneIn_28.png,218,4.0,0.9397103000010247,,083,10,2025-07-18_12h04.11.696,Surprise recog test,2023.1.3,59.915650747182355,
218,0,218,0,,,,,,,,,,,,,,,,,,,,,,,,,,,,,,,,,,818.9688482999991,,818.102277900005,818.102277900005,818.102277900005,818.102277900005,new_sceneIn_21.png,219,4.0,0.8702498999991803,,083,10,2025-07-18_12h04.11.696,Surprise recog test,2023.1.3,59.915650747182355,
219,0,219,0,,,,,,,,,,,,,,,,,,,,,,,,,,,,,,,,,,820.6730195000055,821.7042948000017,819.9994469000012,819.9994469000012,819.9994469000012,819.9994469000012,old_stationery_39.png,220,4.0,0.6747618000008515,,083,10,2025-07-18_12h04.11.696,Surprise recog test,2023.1.3,59.915650747182355,
220,0,220,0,,,,,,,,,,,,,,,,,,,,,,,,,,,,,,,,,,822.8102031000017,823.8411615000005,821.7042948000017,821.7042948000017,821.7042948000017,821.7042948000017,old_fruit_43.png,221,4.0,1.107330599996203,,083,10,2025-07-18_12h04.11.696,Surprise recog test,2023.1.3,59.915650747182355,
221,0,221,0,,,,,,,,,,,,,,,,,,,,,,,,,,,,,,,,,,825.4293812000033,826.4583457000044,823.8411615000005,823.8411615000005,823.8411615000005,823.8411615000005,new_sceneIn_8.png,222,3.0,1.5917442999998457,,083,10,2025-07-18_12h04.11.696,Surprise recog test,2023.1.3,59.915650747182355,
222,0,222,0,,,,,,,,,,,,,,,,,,,,,,,,,,,,,,,,,,827.9810685000048,829.0090282000019,826.4583457000044,826.4583457000044,826.4583457000044,826.4583457000044,new_fruit_42.png,223,4.0,1.5220190000036382,,083,10,2025-07-18_12h04.11.696,Surprise recog test,2023.1.3,59.915650747182355,
223,0,223,0,,,,,,,,,,,,,,,,,,,,,,,,,,,,,,,,,,830.204307,831.2265296000041,829.0090282000019,829.0090282000019,829.0090282000019,829.0090282000019,new_sceneIn_13.png,224,5.0,1.1972842999966815,,083,10,2025-07-18_12h04.11.696,Surprise recog test,2023.1.3,59.915650747182355,
224,0,224,0,,,,,,,,,,,,,,,,,,,,,,,,,,,,,,,,,,832.9677063000054,833.996463800002,831.2265296000041,831.2265296000041,831.2265296000041,831.2265296000041,old_fruit_7.png,225,1.0,1.741546200006269,,083,10,2025-07-18_12h04.11.696,Surprise recog test,2023.1.3,59.915650747182355,
225,0,225,0,,,,,,,,,,,,,,,,,,,,,,,,,,,,,,,,,,835.0515058000019,836.0809215000045,833.996463800002,833.996463800002,833.996463800002,833.996463800002,old_sceneOut_25.png,226,4.0,1.0533525999999256,,083,10,2025-07-18_12h04.11.696,Surprise recog test,2023.1.3,59.915650747182355,
226,0,226,0,,,,,,,,,,,,,,,,,,,,,,,,,,,,,,,,,,837.2412608000013,838.252178200004,836.0809215000045,836.0809215000045,836.0809215000045,836.0809215000045,old_sceneIn_26.png,227,4.0,1.1621884999985923,,083,10,2025-07-18_12h04.11.696,Surprise recog test,2023.1.3,59.915650747182355,
227,0,227,0,,,,,,,,,,,,,,,,,,,,,,,,,,,,,,,,,,839.7162718000036,840.7359015000038,838.252178200004,838.252178200004,838.252178200004,838.252178200004,old_fruit_26.png,228,2.0,1.45881019999797,,083,10,2025-07-18_12h04.11.696,Surprise recog test,2023.1.3,59.915650747182355,
228,0,228,0,,,,,,,,,,,,,,,,,,,,,,,,,,,,,,,,,,841.7636798000021,842.7821275000024,840.7359015000038,840.7359015000038,840.7359015000038,840.7359015000038,old_fruit_33.png,229,3.0,1.0296290000042063,,083,10,2025-07-18_12h04.11.696,Surprise recog test,2023.1.3,59.915650747182355,
229,0,229,0,,,,,,,,,,,,,,,,,,,,,,,,,,,,,,,,,,843.471738799999,,842.7821275000024,842.7821275000024,842.7821275000024,842.7821275000024,old_sceneOut_7.png,230,3.0,0.6908196000003954,,083,10,2025-07-18_12h04.11.696,Surprise recog test,2023.1.3,59.915650747182355,
230,0,230,0,,,,,,,,,,,,,,,,,,,,,,,,,,,,,,,,,,845.7138438000038,846.7289920000039,844.5018672000006,844.5018672000006,844.5018672000006,844.5018672000006,old_stationery_8.png,231,1.0,1.2142765000025975,,083,10,2025-07-18_12h04.11.696,Surprise recog test,2023.1.3,59.915650747182355,
231,0,231,0,,,,,,,,,,,,,,,,,,,,,,,,,,,,,,,,,,847.8840309000007,848.8968871000034,846.7289920000039,846.7289920000039,846.7289920000039,846.7289920000039,new_sceneOut_21.png,232,3.0,1.1508931999997003,,083,10,2025-07-18_12h04.11.696,Surprise recog test,2023.1.3,59.915650747182355,
232,0,232,0,,,,,,,,,,,,,,,,,,,,,,,,,,,,,,,,,,850.6815468000059,851.711550400003,848.8968871000034,848.8968871000034,848.8968871000034,848.8968871000034,old_sceneOut_43.png,233,3.0,1.779235100002552,,083,10,2025-07-18_12h04.11.696,Surprise recog test,2023.1.3,59.915650747182355,
233,0,233,0,,,,,,,,,,,,,,,,,,,,,,,,,,,,,,,,,,852.7122009000013,,851.711550400003,851.711550400003,851.711550400003,851.711550400003,old_sceneIn_45.png,234,4.0,1.0028567999979714,,083,10,2025-07-18_12h04.11.696,Surprise recog test,2023.1.3,59.915650747182355,
234,0,234,0,,,,,,,,,,,,,,,,,,,,,,,,,,,,,,,,,,854.4279865000062,855.436432500006,853.7456110000057,853.7456110000057,853.7456110000057,853.7456110000057,new_sceneIn_35.png,235,4.0,0.680949800000235,,083,10,2025-07-18_12h04.11.696,Surprise recog test,2023.1.3,59.915650747182355,
235,0,235,0,,,,,,,,,,,,,,,,,,,,,,,,,,,,,,,,,,856.2502281000052,857.2826247000048,855.436432500006,855.436432500006,855.436432500006,855.436432500006,old_sceneOut_16.png,236,4.0,0.8097663000007742,,083,10,2025-07-18_12h04.11.696,Surprise recog test,2023.1.3,59.915650747182355,
236,0,236,0,,,,,,,,,,,,,,,,,,,,,,,,,,,,,,,,,,858.191851800002,859.2234011000037,857.2826247000048,857.2826247000048,857.2826247000048,857.2826247000048,new_sceneOut_18.png,237,4.0,0.9126906999954372,,083,10,2025-07-18_12h04.11.696,Surprise recog test,2023.1.3,59.915650747182355,
237,0,237,0,,,,,,,,,,,,,,,,,,,,,,,,,,,,,,,,,,860.3048517999996,861.3240915999995,859.2234011000037,859.2234011000037,859.2234011000037,859.2234011000037,new_sceneOut_4.png,238,4.0,1.0841479000009713,,083,10,2025-07-18_12h04.11.696,Surprise recog test,2023.1.3,59.915650747182355,
238,0,238,0,,,,,,,,,,,,,,,,,,,,,,,,,,,,,,,,,,862.530184400006,863.5427916000044,861.3240915999995,861.3240915999995,861.3240915999995,861.3240915999995,new_stationery_24.png,239,2.0,1.202205599998706,,083,10,2025-07-18_12h04.11.696,Surprise recog test,2023.1.3,59.915650747182355,
239,0,239,0,,,,,,,,,,,,,,,,,,,,,,,,,,,,,,,,,,864.8785849000051,865.9030340000027,863.5427916000044,863.5427916000044,863.5427916000044,863.5427916000044,new_sceneOut_17.png,240,5.0,1.3288692999994964,,083,10,2025-07-18_12h04.11.696,Surprise recog test,2023.1.3,59.915650747182355,
240,0,240,0,,,,,,,,,,,,,,,,,,,,,,,,,,,,,,,,,,866.7575188000046,,865.9030340000027,865.9030340000027,865.9030340000027,865.9030340000027,new_sceneOut_24.png,241,3.0,0.8564851000046474,,083,10,2025-07-18_12h04.11.696,Surprise recog test,2023.1.3,59.915650747182355,
241,0,241,0,,,,,,,,,,,,,,,,,,,,,,,,,,,,,,,,,,869.111813800002,870.1315481999991,867.7896796999994,867.7896796999994,867.7896796999994,867.7896796999994,new_stationery_37.png,242,3.0,1.3239045000009355,,083,10,2025-07-18_12h04.11.696,Surprise recog test,2023.1.3,59.915650747182355,
242,0,242,0,,,,,,,,,,,,,,,,,,,,,,,,,,,,,,,,,,871.2395589000007,872.2644433000023,870.1315481999991,870.1315481999991,870.1315481999991,870.1315481999991,old_fruit_20.png,243,2.0,1.1035556999995606,,083,10,2025-07-18_12h04.11.696,Surprise recog test,2023.1.3,59.915650747182355,
243,0,243,0,,,,,,,,,,,,,,,,,,,,,,,,,,,,,,,,,,873.7449641999992,874.7651427000019,872.2644433000023,872.2644433000023,872.2644433000023,872.2644433000023,new_fruit_31.png,244,4.0,1.4830335000006016,,083,10,2025-07-18_12h04.11.696,Surprise recog test,2023.1.3,59.915650747182355,
244,0,244,0,,,,,,,,,,,,,,,,,,,,,,,,,,,,,,,,,,876.1621954000002,877.1812448000055,874.7651427000019,874.7651427000019,874.7651427000019,874.7651427000019,old_stationery_35.png,245,1.0,1.3986676999993506,,083,10,2025-07-18_12h04.11.696,Surprise recog test,2023.1.3,59.915650747182355,
245,0,245,0,,,,,,,,,,,,,,,,,,,,,,,,,,,,,,,,,,878.5839022,,877.1812448000055,877.1812448000055,877.1812448000055,877.1812448000055,new_sceneOut_13.png,246,5.0,1.406031600003189,,083,10,2025-07-18_12h04.11.696,Surprise recog test,2023.1.3,59.915650747182355,
246,0,246,0,,,,,,,,,,,,,,,,,,,,,,,,,,,,,,,,,,880.7659021,881.7860516000001,879.6050342000017,879.6050342000017,879.6050342000017,879.6050342000017,old_sceneIn_38.png,247,5.0,1.1559045000030892,,083,10,2025-07-18_12h04.11.696,Surprise recog test,2023.1.3,59.915650747182355,
247,0,247,0,,,,,,,,,,,,,,,,,,,,,,,,,,,,,,,,,,883.4600677000053,884.4885590000049,881.7860516000001,881.7860516000001,881.7860516000001,881.7860516000001,old_sceneOut_32.png,248,4.0,1.6722578999979305,,083,10,2025-07-18_12h04.11.696,Surprise recog test,2023.1.3,59.915650747182355,
248,0,248,0,,,,,,,,,,,,,,,,,,,,,,,,,,,,,,,,,,885.7912501000028,,884.4885590000049,884.4885590000049,884.4885590000049,884.4885590000049,new_fruit_43.png,249,5.0,1.3049478000029922,,083,10,2025-07-18_12h04.11.696,Surprise recog test,2023.1.3,59.915650747182355,
249,0,249,0,,,,,,,,,,,,,,,,,,,,,,,,,,,,,,,,,,887.9617311000038,888.9935697000037,886.8181030000051,886.8181030000051,886.8181030000051,886.8181030000051,old_fruit_28.png,250,4.0,1.1448786999972071,,083,10,2025-07-18_12h04.11.696,Surprise recog test,2023.1.3,59.915650747182355,
250,0,250,0,,,,,,,,,,,,,,,,,,,,,,,,,,,,,,,,,,890.4444683000038,,888.9935697000037,888.9935697000037,888.9935697000037,888.9935697000037,new_fruit_3.png,251,4.0,1.4533902999974089,,083,10,2025-07-18_12h04.11.696,Surprise recog test,2023.1.3,59.915650747182355,
251,0,251,0,,,,,,,,,,,,,,,,,,,,,,,,,,,,,,,,,,892.2687114,893.2842384000032,891.4727008000045,891.4727008000045,891.4727008000045,891.4727008000045,old_sceneIn_9.png,252,4.0,0.7984629999991739,,083,10,2025-07-18_12h04.11.696,Surprise recog test,2023.1.3,59.915650747182355,
252,0,252,0,,,,,,,,,,,,,,,,,,,,,,,,,,,,,,,,,,894.4382014000003,895.4641065000033,893.2842384000032,893.2842384000032,893.2842384000032,893.2842384000032,new_sceneOut_43.png,253,4.0,1.1479689000043436,,083,10,2025-07-18_12h04.11.696,Surprise recog test,2023.1.3,59.915650747182355,
253,0,253,0,,,,,,,,,,,,,,,,,,,,,,,,,,,,,,,,,,896.9172801000022,897.9488923000026,895.4641065000033,895.4641065000033,895.4641065000033,895.4641065000033,new_stationery_20.png,254,5.0,1.4542300000030082,,083,10,2025-07-18_12h04.11.696,Surprise recog test,2023.1.3,59.915650747182355,
254,0,254,0,,,,,,,,,,,,,,,,,,,,,,,,,,,,,,,,,,899.0145580000026,900.0335978000003,897.9488923000026,897.9488923000026,897.9488923000026,897.9488923000026,new_fruit_9.png,255,3.0,1.0665341000058106,,083,10,2025-07-18_12h04.11.696,Surprise recog test,2023.1.3,59.915650747182355,
255,0,255,0,,,,,,,,,,,,,,,,,,,,,,,,,,,,,,,,,,901.4332396000027,902.4387952000034,900.0335978000003,900.0335978000003,900.0335978000003,900.0335978000003,old_sceneOut_38.png,256,4.0,1.3985212999978103,,083,10,2025-07-18_12h04.11.696,Surprise recog test,2023.1.3,59.915650747182355,
256,0,256,0,,,,,,,,,,,,,,,,,,,,,,,,,,,,,,,,,,904.0156731000025,905.0408915000007,902.4387952000034,902.4387952000034,902.4387952000034,902.4387952000034,old_fruit_16.png,257,1.0,1.5729553000055603,,083,10,2025-07-18_12h04.11.696,Surprise recog test,2023.1.3,59.915650747182355,
257,0,257,0,,,,,,,,,,,,,,,,,,,,,,,,,,,,,,,,,,906.5530777000022,907.5759034000002,905.0408915000007,905.0408915000007,905.0408915000007,905.0408915000007,old_sceneOut_48.png,258,3.0,1.5102794999984326,,083,10,2025-07-18_12h04.11.696,Surprise recog test,2023.1.3,59.915650747182355,
258,0,258,0,,,,,,,,,,,,,,,,,,,,,,,,,,,,,,,,,,908.8239409000016,909.8388500000001,907.5759034000002,907.5759034000002,907.5759034000002,907.5759034000002,old_fruit_24.png,259,2.0,1.2485422000027029,,083,10,2025-07-18_12h04.11.696,Surprise recog test,2023.1.3,59.915650747182355,
259,0,259,0,,,,,,,,,,,,,,,,,,,,,,,,,,,,,,,,,,910.8957448000001,,909.8388500000001,909.8388500000001,909.8388500000001,909.8388500000001,old_sceneIn_3.png,260,4.0,1.0557755999980145,,083,10,2025-07-18_12h04.11.696,Surprise recog test,2023.1.3,59.915650747182355,
260,0,260,0,,,,,,,,,,,,,,,,,,,,,,,,,,,,,,,,,,913.312694100001,,911.9289002000005,911.9289002000005,911.9289002000005,911.9289002000005,new_fruit_18.png,261,2.0,1.3864269000041531,,083,10,2025-07-18_12h04.11.696,Surprise recog test,2023.1.3,59.915650747182355,
261,0,261,0,,,,,,,,,,,,,,,,,,,,,,,,,,,,,,,,,,915.6636144000004,916.679779500002,914.3354323000021,914.3354323000021,914.3354323000021,914.3354323000021,old_stationery_42.png,262,1.0,1.325000099997851,,083,10,2025-07-18_12h04.11.696,Surprise recog test,2023.1.3,59.915650747182355,
262,0,262,0,,,,,,,,,,,,,,,,,,,,,,,,,,,,,,,,,,917.9078786000027,918.9219496000005,916.679779500002,916.679779500002,916.679779500002,916.679779500002,new_fruit_17.png,263,1.0,1.22969710000325,,083,10,2025-07-18_12h04.11.696,Surprise recog test,2023.1.3,59.915650747182355,
263,0,263,0,,,,,,,,,,,,,,,,,,,,,,,,,,,,,,,,,,920.0489944000001,921.0692387000017,918.9219496000005,918.9219496000005,918.9219496000005,918.9219496000005,new_stationery_44.png,264,4.0,1.1207441000005929,,083,10,2025-07-18_12h04.11.696,Surprise recog test,2023.1.3,59.915650747182355,
264,0,264,0,,,,,,,,,,,,,,,,,,,,,,,,,,,,,,,,,,922.0773902000001,923.1039163000023,921.0692387000017,921.0692387000017,921.0692387000017,921.0692387000017,old_fruit_21.png,265,3.0,1.0108698000040022,,083,10,2025-07-18_12h04.11.696,Surprise recog test,2023.1.3,59.915650747182355,
265,0,265,0,,,,,,,,,,,,,,,,,,,,,,,,,,,,,,,,,,923.8404564000011,924.8684391999996,923.1039163000023,923.1039163000023,923.1039163000023,923.1039163000023,new_sceneIn_16.png,266,3.0,0.7398131999943871,,083,10,2025-07-18_12h04.11.696,Surprise recog test,2023.1.3,59.915650747182355,
266,0,266,0,,,,,,,,,,,,,,,,,,,,,,,,,,,,,,,,,,925.9514893000014,926.9747885000033,924.8684391999996,924.8684391999996,924.8684391999996,924.8684391999996,old_sceneIn_44.png,267,3.0,1.082241600000998,,083,10,2025-07-18_12h04.11.696,Surprise recog test,2023.1.3,59.915650747182355,
267,0,267,0,,,,,,,,,,,,,,,,,,,,,,,,,,,,,,,,,,927.8276896000025,928.8585370000001,926.9747885000033,926.9747885000033,926.9747885000033,926.9747885000033,old_sceneOut_12.png,268,4.0,0.8546954999983427,,083,10,2025-07-18_12h04.11.696,Surprise recog test,2023.1.3,59.915650747182355,
268,0,268,0,,,,,,,,,,,,,,,,,,,,,,,,,,,,,,,,,,930.4175389000011,931.4449432000038,928.8585370000001,928.8585370000001,928.8585370000001,928.8585370000001,old_stationery_19.png,269,2.0,1.5606723000018974,,083,10,2025-07-18_12h04.11.696,Surprise recog test,2023.1.3,59.915650747182355,
269,0,269,0,,,,,,,,,,,,,,,,,,,,,,,,,,,,,,,,,,932.340552600006,933.3623424000034,931.4449432000038,931.4449432000038,931.4449432000038,931.4449432000038,new_sceneIn_33.png,270,4.0,0.8976941000000807,,083,10,2025-07-18_12h04.11.696,Surprise recog test,2023.1.3,59.915650747182355,
270,0,270,0,,,,,,,,,,,,,,,,,,,,,,,,,,,,,,,,,,934.2744999999995,935.2991884000003,933.3623424000034,933.3623424000034,933.3623424000034,933.3623424000034,old_fruit_17.png,271,3.0,0.9143311000007088,,083,10,2025-07-18_12h04.11.696,Surprise recog test,2023.1.3,59.915650747182355,
271,0,271,0,,,,,,,,,,,,,,,,,,,,,,,,,,,,,,,,,,936.5247158999991,937.5516009999992,935.2991884000003,935.2991884000003,935.2991884000003,935.2991884000003,old_sceneOut_41.png,272,5.0,1.2282940999939456,,083,10,2025-07-18_12h04.11.696,Surprise recog test,2023.1.3,59.915650747182355,
272,0,272,0,,,,,,,,,,,,,,,,,,,,,,,,,,,,,,,,,,938.7686242000054,,937.5516009999992,937.5516009999992,937.5516009999992,937.5516009999992,old_fruit_44.png,273,3.0,1.2209969000032288,,083,10,2025-07-18_12h04.11.696,Surprise recog test,2023.1.3,59.915650747182355,
273,0,273,0,,,,,,,,,,,,,,,,,,,,,,,,,,,,,,,,,,941.371495899999,942.400291900005,939.7904773000046,939.7904773000046,939.7904773000046,939.7904773000046,new_sceneOut_20.png,274,5.0,1.576677600001858,,083,10,2025-07-18_12h04.11.696,Surprise recog test,2023.1.3,59.915650747182355,
274,0,274,0,,,,,,,,,,,,,,,,,,,,,,,,,,,,,,,,,,943.5715130000026,,942.400291900005,942.400291900005,942.400291900005,942.400291900005,new_sceneOut_32.png,275,4.0,1.1717879999996512,,083,10,2025-07-18_12h04.11.696,Surprise recog test,2023.1.3,59.915650747182355,
275,0,275,0,,,,,,,,,,,,,,,,,,,,,,,,,,,,,,,,,,945.7848526000016,946.8043143000032,944.6014806000021,944.6014806000021,944.6014806000021,944.6014806000021,new_sceneOut_39.png,276,5.0,1.1841423000005307,,083,10,2025-07-18_12h04.11.696,Surprise recog test,2023.1.3,59.915650747182355,
276,0,276,0,,,,,,,,,,,,,,,,,,,,,,,,,,,,,,,,,,947.9720464000056,948.9842721000023,946.8043143000032,946.8043143000032,946.8043143000032,946.8043143000032,old_sceneIn_40.png,277,4.0,1.1657462000002852,,083,10,2025-07-18_12h04.11.696,Surprise recog test,2023.1.3,59.915650747182355,
277,0,277,0,,,,,,,,,,,,,,,,,,,,,,,,,,,,,,,,,,951.1850800000029,952.2105404000031,948.9842721000023,948.9842721000023,948.9842721000023,948.9842721000023,old_sceneOut_5.png,278,2.0,2.1998996999973315,,083,10,2025-07-18_12h04.11.696,Surprise recog test,2023.1.3,59.915650747182355,
278,0,278,0,,,,,,,,,,,,,,,,,,,,,,,,,,,,,,,,,,953.1518710000018,954.1831778000051,952.2105404000031,952.2105404000031,952.2105404000031,952.2105404000031,new_fruit_23.png,279,3.0,0.9419535999986692,,083,10,2025-07-18_12h04.11.696,Surprise recog test,2023.1.3,59.915650747182355,
279,0,279,0,,,,,,,,,,,,,,,,,,,,,,,,,,,,,,,,,,955.5961437000005,956.6031642000016,954.1831778000051,954.1831778000051,954.1831778000051,954.1831778000051,new_sceneIn_30.png,280,5.0,1.4156820999996853,,083,10,2025-07-18_12h04.11.696,Surprise recog test,2023.1.3,59.915650747182355,
280,0,280,0,,,,,,,,,,,,,,,,,,,,,,,,,,,,,,,,,,957.4723453000042,958.487925100002,956.6031642000016,956.6031642000016,956.6031642000016,956.6031642000016,old_sceneIn_18.png,281,4.0,0.8644235999963712,,083,10,2025-07-18_12h04.11.696,Surprise recog test,2023.1.3,59.915650747182355,
281,0,281,0,,,,,,,,,,,,,,,,,,,,,,,,,,,,,,,,,,959.9842768000017,,958.487925100002,958.487925100002,958.487925100002,958.487925100002,old_stationery_27.png,282,2.0,1.4898434999995516,,083,10,2025-07-18_12h04.11.696,Surprise recog test,2023.1.3,59.915650747182355,
282,0,282,0,,,,,,,,,,,,,,,,,,,,,,,,,,,,,,,,,,962.5742785000039,963.6021202000047,961.0172426999998,961.0172426999998,961.0172426999998,961.0172426999998,old_sceneOut_15.png,283,4.0,1.5566682999997283,,083,10,2025-07-18_12h04.11.696,Surprise recog test,2023.1.3,59.915650747182355,
283,0,283,0,,,,,,,,,,,,,,,,,,,,,,,,,,,,,,,,,,964.8978459999998,965.9230701000051,963.6021202000047,963.6021202000047,963.6021202000047,963.6021202000047,new_sceneIn_27.png,284,2.0,1.296761300000071,,083,10,2025-07-18_12h04.11.696,Surprise recog test,2023.1.3,59.915650747182355,
284,0,284,0,,,,,,,,,,,,,,,,,,,,,,,,,,,,,,,,,,967.5258082,,965.9230701000051,965.9230701000051,965.9230701000051,965.9230701000051,old_stationery_50.png,285,1.0,1.6055503000025055,,083,10,2025-07-18_12h04.11.696,Surprise recog test,2023.1.3,59.915650747182355,
285,0,285,0,,,,,,,,,,,,,,,,,,,,,,,,,,,,,,,,,,969.5578745000021,970.5755630000058,968.5554457000035,968.5554457000035,968.5554457000035,968.5554457000035,old_sceneOut_37.png,286,4.0,1.0037490999966394,,083,10,2025-07-18_12h04.11.696,Surprise recog test,2023.1.3,59.915650747182355,
286,0,286,0,,,,,,,,,,,,,,,,,,,,,,,,,,,,,,,,,,972.0450592000052,,970.5755630000058,970.5755630000058,970.5755630000058,970.5755630000058,new_sceneOut_5.png,287,3.0,1.4677955000006477,,083,10,2025-07-18_12h04.11.696,Surprise recog test,2023.1.3,59.915650747182355,
287,0,287,0,,,,,,,,,,,,,,,,,,,,,,,,,,,,,,,,,,974.3023978000056,975.3284451,973.0807967000001,973.0807967000001,973.0807967000001,973.0807967000001,old_stationery_28.png,288,1.0,1.224758100004692,,083,10,2025-07-18_12h04.11.696,Surprise recog test,2023.1.3,59.915650747182355,
288,0,288,0,,,,,,,,,,,,,,,,,,,,,,,,,,,,,,,,,,976.1790579000008,977.2039887999999,975.3284451,975.3284451,975.3284451,975.3284451,new_sceneOut_37.png,289,4.0,0.8517510000019684,,083,10,2025-07-18_12h04.11.696,Surprise recog test,2023.1.3,59.915650747182355,
289,0,289,0,,,,,,,,,,,,,,,,,,,,,,,,,,,,,,,,,,978.5953592000005,979.6058118000001,977.2039887999999,977.2039887999999,977.2039887999999,977.2039887999999,old_fruit_38.png,290,3.0,1.3946177000034368,,083,10,2025-07-18_12h04.11.696,Surprise recog test,2023.1.3,59.915650747182355,
290,0,290,0,,,,,,,,,,,,,,,,,,,,,,,,,,,,,,,,,,980.7658244000049,981.7845323000001,979.6058118000001,979.6058118000001,979.6058118000001,979.6058118000001,old_sceneIn_22.png,291,5.0,1.1546146999971825,,083,10,2025-07-18_12h04.11.696,Surprise recog test,2023.1.3,59.915650747182355,
291,0,291,0,,,,,,,,,,,,,,,,,,,,,,,,,,,,,,,,,,982.8720194000052,,981.7845323000001,981.7845323000001,981.7845323000001,981.7845323000001,new_stationery_41.png,292,4.0,1.0868308000062825,,083,10,2025-07-18_12h04.11.696,Surprise recog test,2023.1.3,59.915650747182355,
292,0,292,0,,,,,,,,,,,,,,,,,,,,,,,,,,,,,,,,,,985.1173144000059,986.1416933,983.9040956000026,983.9040956000026,983.9040956000026,983.9040956000026,old_stationery_43.png,293,2.0,1.2154682999971556,,083,10,2025-07-18_12h04.11.696,Surprise recog test,2023.1.3,59.915650747182355,
293,0,293,0,,,,,,,,,,,,,,,,,,,,,,,,,,,,,,,,,,987.6364042000059,988.6468855999992,986.1416933,986.1416933,986.1416933,986.1416933,new_stationery_26.png,294,3.0,1.4985734000001685,,083,10,2025-07-18_12h04.11.696,Surprise recog test,2023.1.3,59.915650747182355,
294,0,294,0,,,,,,,,,,,,,,,,,,,,,,,,,,,,,,,,,,989.5613429000005,990.5902648000047,988.6468855999992,988.6468855999992,988.6468855999992,988.6468855999992,old_sceneOut_22.png,295,4.0,0.9099615000013728,,083,10,2025-07-18_12h04.11.696,Surprise recog test,2023.1.3,59.915650747182355,
295,0,295,0,,,,,,,,,,,,,,,,,,,,,,,,,,,,,,,,,,992.1252596000049,993.146996800002,990.5902648000047,990.5902648000047,990.5902648000047,990.5902648000047,new_sceneIn_12.png,296,3.0,1.5342128999982378,,083,10,2025-07-18_12h04.11.696,Surprise recog test,2023.1.3,59.915650747182355,
296,0,296,0,,,,,,,,,,,,,,,,,,,,,,,,,,,,,,,,,,994.3856837000058,995.4020735000013,993.146996800002,993.146996800002,993.146996800002,993.146996800002,new_fruit_12.png,297,4.0,1.2417901000007987,,083,10,2025-07-18_12h04.11.696,Surprise recog test,2023.1.3,59.915650747182355,
297,0,297,0,,,,,,,,,,,,,,,,,,,,,,,,,,,,,,,,,,996.8474500000011,997.8640124000012,995.4020735000013,995.4020735000013,995.4020735000013,995.4020735000013,old_sceneIn_4.png,298,2.0,1.4422211999990395,,083,10,2025-07-18_12h04.11.696,Surprise recog test,2023.1.3,59.915650747182355,
298,0,298,0,,,,,,,,,,,,,,,,,,,,,,,,,,,,,,,,,,999.0252060000057,1000.0522352000044,997.8640124000012,997.8640124000012,997.8640124000012,997.8640124000012,new_sceneIn_42.png,299,4.0,1.1618161000005784,,083,10,2025-07-18_12h04.11.696,Surprise recog test,2023.1.3,59.915650747182355,
299,0,299,0,,,,,,,,,,,,,,,,,,,,,,,,,,,,,,,,,,1001.3086633000057,1002.3384652000022,1000.0522352000044,1000.0522352000044,1000.0522352000044,1000.0522352000044,new_fruit_2.png,300,1.0,1.2589465999990352,,083,10,2025-07-18_12h04.11.696,Surprise recog test,2023.1.3,59.915650747182355,
300,0,300,0,,,,,,,,,,,,,,,,,,,,,,,,,,,,,,,,,,1003.7638778000037,1004.7892610000054,1002.3384652000022,1002.3384652000022,1002.3384652000022,1002.3384652000022,old_sceneOut_17.png,301,4.0,1.4289617000031285,,083,10,2025-07-18_12h04.11.696,Surprise recog test,2023.1.3,59.915650747182355,
301,0,301,0,,,,,,,,,,,,,,,,,,,,,,,,,,,,,,,,,,1006.8539827000059,1007.8595805000004,1004.7892610000054,1004.7892610000054,1004.7892610000054,1004.7892610000054,new_sceneOut_28.png,302,2.0,2.060993099999905,,083,10,2025-07-18_12h04.11.696,Surprise recog test,2023.1.3,59.915650747182355,
302,0,302,0,,,,,,,,,,,,,,,,,,,,,,,,,,,,,,,,,,1008.8557044000045,1009.8601564000055,1007.8595805000004,1007.8595805000004,1007.8595805000004,1007.8595805000004,new_sceneIn_37.png,303,4.0,0.9867041000034078,,083,10,2025-07-18_12h04.11.696,Surprise recog test,2023.1.3,59.915650747182355,
303,0,303,0,,,,,,,,,,,,,,,,,,,,,,,,,,,,,,,,,,1010.8072491999992,1011.8117404000004,1009.8601564000055,1009.8601564000055,1009.8601564000055,1009.8601564000055,old_stationery_7.png,304,3.0,0.9370076999985031,,083,10,2025-07-18_12h04.11.696,Surprise recog test,2023.1.3,59.915650747182355,
304,0,304,0,,,,,,,,,,,,,,,,,,,,,,,,,,,,,,,,,,1012.5254284000039,1013.5347817000002,1011.8117404000004,1011.8117404000004,1011.8117404000004,1011.8117404000004,old_sceneOut_10.png,305,3.0,0.7050108999974327,,083,10,2025-07-18_12h04.11.696,Surprise recog test,2023.1.3,59.915650747182355,
305,0,305,0,,,,,,,,,,,,,,,,,,,,,,,,,,,,,,,,,,1014.4493664000038,1015.4702300999998,1013.5347817000002,1013.5347817000002,1013.5347817000002,1013.5347817000002,old_sceneOut_2.png,306,4.0,0.9086580000002868,,083,10,2025-07-18_12h04.11.696,Surprise recog test,2023.1.3,59.915650747182355,
306,0,306,0,,,,,,,,,,,,,,,,,,,,,,,,,,,,,,,,,,1016.4257185000024,1017.4485663000014,1015.4702300999998,1015.4702300999998,1015.4702300999998,1015.4702300999998,old_stationery_17.png,307,4.0,0.9504521999988356,,083,10,2025-07-18_12h04.11.696,Surprise recog test,2023.1.3,59.915650747182355,
307,0,307,0,,,,,,,,,,,,,,,,,,,,,,,,,,,,,,,,,,1018.4816800000044,1019.5024336999995,1017.4485663000014,1017.4485663000014,1017.4485663000014,1017.4485663000014,old_sceneOut_44.png,308,3.0,1.0345672000039485,,083,10,2025-07-18_12h04.11.696,Surprise recog test,2023.1.3,59.915650747182355,
308,0,308,0,,,,,,,,,,,,,,,,,,,,,,,,,,,,,,,,,,1020.7643647000004,1021.773666400004,1019.5024336999995,1019.5024336999995,1019.5024336999995,1019.5024336999995,new_sceneOut_45.png,309,3.0,1.2645245999956387,,083,10,2025-07-18_12h04.11.696,Surprise recog test,2023.1.3,59.915650747182355,
309,0,309,0,,,,,,,,,,,,,,,,,,,,,,,,,,,,,,,,,,1022.9238132000028,1023.9557862000001,1021.773666400004,1021.773666400004,1021.773666400004,1021.773666400004,new_stationery_12.png,310,2.0,1.146012299999711,,083,10,2025-07-18_12h04.11.696,Surprise recog test,2023.1.3,59.915650747182355,
310,0,310,0,,,,,,,,,,,,,,,,,,,,,,,,,,,,,,,,,,1025.2840744999994,1026.2935486999995,1023.9557862000001,1023.9557862000001,1023.9557862000001,1023.9557862000001,new_fruit_36.png,311,1.0,1.331255400000373,,083,10,2025-07-18_12h04.11.696,Surprise recog test,2023.1.3,59.915650747182355,
311,0,311,0,,,,,,,,,,,,,,,,,,,,,,,,,,,,,,,,,,1027.401669400002,1028.4254024000038,1026.2935486999995,1026.2935486999995,1026.2935486999995,1026.2935486999995,new_fruit_6.png,312,3.0,1.1059143000020413,,083,10,2025-07-18_12h04.11.696,Surprise recog test,2023.1.3,59.915650747182355,
312,0,312,0,,,,,,,,,,,,,,,,,,,,,,,,,,,,,,,,,,1029.3400914000013,1030.3635005000033,1028.4254024000038,1028.4254024000038,1028.4254024000038,1028.4254024000038,old_sceneIn_23.png,313,4.0,0.9144654000047012,,083,10,2025-07-18_12h04.11.696,Surprise recog test,2023.1.3,59.915650747182355,
313,0,313,0,,,,,,,,,,,,,,,,,,,,,,,,,,,,,,,,,,1031.3910071999999,1032.3984924000033,1030.3635005000033,1030.3635005000033,1030.3635005000033,1030.3635005000033,old_stationery_10.png,314,4.0,1.0256509000028018,,083,10,2025-07-18_12h04.11.696,Surprise recog test,2023.1.3,59.915650747182355,
314,0,314,0,,,,,,,,,,,,,,,,,,,,,,,,,,,,,,,,,,1033.9775714999996,1034.9836219999997,1032.3984924000033,1032.3984924000033,1032.3984924000033,1032.3984924000033,new_fruit_19.png,315,5.0,1.5713727999973344,,083,10,2025-07-18_12h04.11.696,Surprise recog test,2023.1.3,59.915650747182355,
315,0,315,0,,,,,,,,,,,,,,,,,,,,,,,,,,,,,,,,,,1036.3451888000054,1037.3508063000045,1034.9836219999997,1034.9836219999997,1034.9836219999997,1034.9836219999997,old_stationery_31.png,316,2.0,1.3533499999975902,,083,10,2025-07-18_12h04.11.696,Surprise recog test,2023.1.3,59.915650747182355,
316,0,316,0,,,,,,,,,,,,,,,,,,,,,,,,,,,,,,,,,,1038.563596400003,1039.568989200001,1037.3508063000045,1037.3508063000045,1037.3508063000045,1037.3508063000045,old_stationery_29.png,317,1.0,1.2035455000004731,,083,10,2025-07-18_12h04.11.696,Surprise recog test,2023.1.3,59.915650747182355,
317,0,317,0,,,,,,,,,,,,,,,,,,,,,,,,,,,,,,,,,,1041.7496475000007,1042.7545625000057,1039.568989200001,1039.568989200001,1039.568989200001,1039.568989200001,old_sceneOut_50.png,318,5.0,2.171002099996258,,083,10,2025-07-18_12h04.11.696,Surprise recog test,2023.1.3,59.915650747182355,
318,0,318,0,,,,,,,,,,,,,,,,,,,,,,,,,,,,,,,,,,1044.3518391000034,1045.3570588000002,1042.7545625000057,1042.7545625000057,1042.7545625000057,1042.7545625000057,new_stationery_23.png,319,3.0,1.5872078999964288,,083,10,2025-07-18_12h04.11.696,Surprise recog test,2023.1.3,59.915650747182355,
319,0,319,0,,,,,,,,,,,,,,,,,,,,,,,,,,,,,,,,,,1046.2700583000042,1047.275192000001,1045.3570588000002,1045.3570588000002,1045.3570588000002,1045.3570588000002,old_sceneIn_34.png,320,4.0,0.9041612000000896,,083,10,2025-07-18_12h04.11.696,Surprise recog test,2023.1.3,59.915650747182355,
320,0,320,0,,,,,,,,,,,,,,,,,,,,,,,,,,,,,,,,,,1048.1382436999993,1049.1433921000062,1047.275192000001,1047.275192000001,1047.275192000001,1047.275192000001,new_sceneOut_11.png,321,3.0,0.8543777000013506,,083,10,2025-07-18_12h04.11.696,Surprise recog test,2023.1.3,59.915650747182355,
321,0,321,0,,,,,,,,,,,,,,,,,,,,,,,,,,,,,,,,,,1050.2566681000026,1051.2619253000012,1049.1433921000062,1049.1433921000062,1049.1433921000062,1049.1433921000062,old_fruit_49.png,322,4.0,1.1035346999997273,,083,10,2025-07-18_12h04.11.696,Surprise recog test,2023.1.3,59.915650747182355,
322,0,322,0,,,,,,,,,,,,,,,,,,,,,,,,,,,,,,,,,,1052.1082590000005,1053.1135228000057,1051.2619253000012,1051.2619253000012,1051.2619253000012,1051.2619253000012,new_stationery_49.png,323,4.0,0.8366537000038079,,083,10,2025-07-18_12h04.11.696,Surprise recog test,2023.1.3,59.915650747182355,
323,0,323,0,,,,,,,,,,,,,,,,,,,,,,,,,,,,,,,,,,1054.1265989000021,1055.1318189000012,1053.1135228000057,1053.1135228000057,1053.1135228000057,1053.1135228000057,new_sceneOut_44.png,324,5.0,1.003321899996081,,083,10,2025-07-18_12h04.11.696,Surprise recog test,2023.1.3,59.915650747182355,
324,0,324,0,,,,,,,,,,,,,,,,,,,,,,,,,,,,,,,,,,1056.495224600003,1057.5001047000042,1055.1318189000012,1055.1318189000012,1055.1318189000012,1055.1318189000012,old_sceneOut_6.png,325,3.0,1.353679399995599,,083,10,2025-07-18_12h04.11.696,Surprise recog test,2023.1.3,59.915650747182355,
325,0,325,0,,,,,,,,,,,,,,,,,,,,,,,,,,,,,,,,,,1058.3133878000008,1059.3186342000045,1057.5001047000042,1057.5001047000042,1057.5001047000042,1057.5001047000042,old_sceneIn_48.png,326,4.0,0.8035197999997763,,083,10,2025-07-18_12h04.11.696,Surprise recog test,2023.1.3,59.915650747182355,
326,0,326,0,,,,,,,,,,,,,,,,,,,,,,,,,,,,,,,,,,1060.0818465000048,1061.0857235000003,1059.3186342000045,1059.3186342000045,1059.3186342000045,1059.3186342000045,old_sceneOut_45.png,327,4.0,0.7535764999993262,,083,10,2025-07-18_12h04.11.696,Surprise recog test,2023.1.3,59.915650747182355,
327,0,327,0,,,,,,,,,,,,,,,,,,,,,,,,,,,,,,,,,,1062.1499083000017,1063.1552633000028,1061.0857235000003,1061.0857235000003,1061.0857235000003,1061.0857235000003,old_fruit_5.png,328,2.0,1.0540304999958607,,083,10,2025-07-18_12h04.11.696,Surprise recog test,2023.1.3,59.915650747182355,
328,0,328,0,,,,,,,,,,,,,,,,,,,,,,,,,,,,,,,,,,1064.084861400006,1065.0902554999993,1063.1552633000028,1063.1552633000028,1063.1552633000028,1063.1552633000028,old_sceneIn_35.png,329,3.0,0.920027600004687,,083,10,2025-07-18_12h04.11.696,Surprise recog test,2023.1.3,59.915650747182355,
329,0,329,0,,,,,,,,,,,,,,,,,,,,,,,,,,,,,,,,,,1066.6202946000049,1067.626919000002,1065.0902554999993,1065.0902554999993,1065.0902554999993,1065.0902554999993,old_fruit_10.png,330,1.0,1.5201826000047731,,083,10,2025-07-18_12h04.11.696,Surprise recog test,2023.1.3,59.915650747182355,
330,0,330,0,,,,,,,,,,,,,,,,,,,,,,,,,,,,,,,,,,1068.8055204000048,1069.8107488000023,1067.626919000002,1067.626919000002,1067.626919000002,1067.626919000002,new_fruit_5.png,331,2.0,1.1704608000000007,,083,10,2025-07-18_12h04.11.696,Surprise recog test,2023.1.3,59.915650747182355,
331,0,331,0,,,,,,,,,,,,,,,,,,,,,,,,,,,,,,,,,,1070.7737041,1071.7787685000003,1069.8107488000023,1069.8107488000023,1069.8107488000023,1069.8107488000023,old_sceneIn_21.png,332,4.0,0.9529409999959171,,083,10,2025-07-18_12h04.11.696,Surprise recog test,2023.1.3,59.915650747182355,
332,0,332,0,,,,,,,,,,,,,,,,,,,,,,,,,,,,,,,,,,1072.9089378000062,1073.9149349,1071.7787685000003,1071.7787685000003,1071.7787685000003,1071.7787685000003,old_sceneIn_8.png,333,4.0,1.120636799998465,,083,10,2025-07-18_12h04.11.696,Surprise recog test,2023.1.3,59.915650747182355,
333,0,333,0,,,,,,,,,,,,,,,,,,,,,,,,,,,,,,,,,,1075.277453900002,1076.2824360000013,1073.9149349,1073.9149349,1073.9149349,1073.9149349,new_sceneOut_6.png,334,2.0,1.3539623000033316,,083,10,2025-07-18_12h04.11.696,Surprise recog test,2023.1.3,59.915650747182355,
334,0,334,0,,,,,,,,,,,,,,,,,,,,,,,,,,,,,,,,,,1077.4293222000051,1078.4337993000008,1076.2824360000013,1076.2824360000013,1076.2824360000013,1076.2824360000013,old_fruit_8.png,335,2.0,1.136658900002658,,083,10,2025-07-18_12h04.11.696,Surprise recog test,2023.1.3,59.915650747182355,
335,0,335,0,,,,,,,,,,,,,,,,,,,,,,,,,,,,,,,,,,1079.864792100001,1080.869993100001,1078.4337993000008,1078.4337993000008,1078.4337993000008,1078.4337993000008,new_sceneIn_47.png,336,4.0,1.4203667999972822,,083,10,2025-07-18_12h04.11.696,Surprise recog test,2023.1.3,59.915650747182355,
336,0,336,0,,,,,,,,,,,,,,,,,,,,,,,,,,,,,,,,,,1082.0498550000048,1083.0548582000047,1080.869993100001,1080.869993100001,1080.869993100001,1080.869993100001,new_fruit_34.png,337,3.0,1.1702334000001429,,083,10,2025-07-18_12h04.11.696,Surprise recog test,2023.1.3,59.915650747182355,
337,0,337,0,,,,,,,,,,,,,,,,,,,,,,,,,,,,,,,,,,1084.4352358000033,1085.439170000005,1083.0548582000047,1083.0548582000047,1083.0548582000047,1083.0548582000047,old_stationery_48.png,338,1.0,1.3701126000014483,,083,10,2025-07-18_12h04.11.696,Surprise recog test,2023.1.3,59.915650747182355,
338,0,338,0,,,,,,,,,,,,,,,,,,,,,,,,,,,,,,,,,,1086.5368524000005,1087.541861400001,1085.439170000005,1085.439170000005,1085.439170000005,1085.439170000005,new_stationery_5.png,339,2.0,1.0868373999983305,,083,10,2025-07-18_12h04.11.696,Surprise recog test,2023.1.3,59.915650747182355,
339,0,339,0,,,,,,,,,,,,,,,,,,,,,,,,,,,,,,,,,,1088.4383614000035,1089.4430113000053,1087.541861400001,1087.541861400001,1087.541861400001,1087.541861400001,new_stationery_16.png,340,4.0,0.8863227000038023,,083,10,2025-07-18_12h04.11.696,Surprise recog test,2023.1.3,59.915650747182355,
340,0,340,0,,,,,,,,,,,,,,,,,,,,,,,,,,,,,,,,,,1090.5234517999997,1091.5293604000035,1089.4430113000053,1089.4430113000053,1089.4430113000053,1089.4430113000053,old_fruit_19.png,341,2.0,1.0699669999958132,,083,10,2025-07-18_12h04.11.696,Surprise recog test,2023.1.3,59.915650747182355,
341,0,341,0,,,,,,,,,,,,,,,,,,,,,,,,,,,,,,,,,,1092.8092589000007,1093.8134904000035,1091.5293604000035,1091.5293604000035,1091.5293604000035,1091.5293604000035,new_sceneIn_14.png,342,5.0,1.2763755000050878,,083,10,2025-07-18_12h04.11.696,Surprise recog test,2023.1.3,59.915650747182355,
342,0,342,0,,,,,,,,,,,,,,,,,,,,,,,,,,,,,,,,,,1095.4942788000044,1096.4995266000042,1093.8134904000035,1093.8134904000035,1093.8134904000035,1093.8134904000035,old_sceneOut_29.png,343,3.0,1.6706391999978223,,083,10,2025-07-18_12h04.11.696,Surprise recog test,2023.1.3,59.915650747182355,
343,0,343,0,,,,,,,,,,,,,,,,,,,,,,,,,,,,,,,,,,1097.7294132000025,1098.7346816999998,1096.4995266000042,1096.4995266000042,1096.4995266000042,1096.4995266000042,old_stationery_37.png,344,2.0,1.2200270000030287,,083,10,2025-07-18_12h04.11.696,Surprise recog test,2023.1.3,59.915650747182355,
344,0,344,0,,,,,,,,,,,,,,,,,,,,,,,,,,,,,,,,,,1100.6986089999991,1101.7040500000003,1098.7346816999998,1098.7346816999998,1098.7346816999998,1098.7346816999998,old_sceneIn_29.png,345,4.0,1.9544171000015922,,083,10,2025-07-18_12h04.11.696,Surprise recog test,2023.1.3,59.915650747182355,
345,0,345,0,,,,,,,,,,,,,,,,,,,,,,,,,,,,,,,,,,1103.4175059000045,1104.422854299999,1101.7040500000003,1101.7040500000003,1101.7040500000003,1101.7040500000003,old_stationery_22.png,346,2.0,1.702966999997443,,083,10,2025-07-18_12h04.11.696,Surprise recog test,2023.1.3,59.915650747182355,
346,0,346,0,,,,,,,,,,,,,,,,,,,,,,,,,,,,,,,,,,1105.7901758000007,,1104.422854299999,1104.422854299999,1104.422854299999,1104.422854299999,new_sceneOut_8.png,347,4.0,1.3618358000021544,,083,10,2025-07-18_12h04.11.696,Surprise recog test,2023.1.3,59.915650747182355,
347,0,347,0,,,,,,,,,,,,,,,,,,,,,,,,,,,,,,,,,,1108.844013599999,1109.8800164999993,1106.8095327000046,1106.8095327000046,1106.8095327000046,1106.8095327000046,new_sceneOut_9.png,348,3.0,2.031745399995998,,083,10,2025-07-18_12h04.11.696,Surprise recog test,2023.1.3,59.915650747182355,
348,0,348,0,,,,,,,,,,,,,,,,,,,,,,,,,,,,,,,,,,1111.3540692000024,1112.3780297000048,1109.8800164999993,1109.8800164999993,1109.8800164999993,1109.8800164999993,new_sceneIn_36.png,349,4.0,1.477184399998805,,083,10,2025-07-18_12h04.11.696,Surprise recog test,2023.1.3,59.915650747182355,
349,0,349,0,,,,,,,,,,,,,,,,,,,,,,,,,,,,,,,,,,1113.9370759000012,1114.9609284000035,1112.3780297000048,1112.3780297000048,1112.3780297000048,1112.3780297000048,old_fruit_2.png,350,1.0,1.5603506000043126,,083,10,2025-07-18_12h04.11.696,Surprise recog test,2023.1.3,59.915650747182355,
350,0,350,0,,,,,,,,,,,,,,,,,,,,,,,,,,,,,,,,,,1116.239665000001,1117.2625509999998,1114.9609284000035,1114.9609284000035,1114.9609284000035,1114.9609284000035,old_fruit_31.png,351,3.0,1.2803615000011632,,083,10,2025-07-18_12h04.11.696,Surprise recog test,2023.1.3,59.915650747182355,
351,0,351,0,,,,,,,,,,,,,,,,,,,,,,,,,,,,,,,,,,1119.0499937999994,,1117.2625509999998,1117.2625509999998,1117.2625509999998,1117.2625509999998,new_stationery_7.png,352,2.0,1.7859158999999636,,083,10,2025-07-18_12h04.11.696,Surprise recog test,2023.1.3,59.915650747182355,
352,0,352,0,,,,,,,,,,,,,,,,,,,,,,,,,,,,,,,,,,1120.9998906000037,1122.0155216999992,1120.0735674000025,1120.0735674000025,1120.0735674000025,1120.0735674000025,new_stationery_42.png,353,4.0,0.9265460999959032,,083,10,2025-07-18_12h04.11.696,Surprise recog test,2023.1.3,59.915650747182355,
353,0,353,0,,,,,,,,,,,,,,,,,,,,,,,,,,,,,,,,,,1123.2918547000008,1124.3069434999998,1122.0155216999992,1122.0155216999992,1122.0155216999992,1122.0155216999992,new_sceneOut_41.png,354,2.0,1.2781054000006407,,083,10,2025-07-18_12h04.11.696,Surprise recog test,2023.1.3,59.915650747182355,
