trial_loop.thisRepN,trial_loop.thisTrialN,trial_loop.thisN,trial_loop.thisIndex,VAS_slider.started,VAS_text.started,VAS_notstressed_text.started,VAS_stressed_text.started,continue_input.started,continue_text.started,label0.started,label10.started,label20.started,label30.started,label40.started,label50.started,label60.started,label70.started,label80.started,label90.started,label100.started,VAS_slider.response,VAS_slider.rt,VAS_slider.history,Answer_VAS,continue_input.keys,instruction_text.started,continue_text_2.started,continue_input_2.started,continue_input_2.keys,continue_input_2.rt,continue_input_2.duration,example_text.started,example_slider_2.started,example_image.started,example_slider_2.response,example_slider_2.rt,fixcross.started,fixcross.stopped,front_square.started,stim_images.started,trial_inst_images.started,slider_images.started,thisImg,trial_count,slider_images.response,slider_images.rt,slider_images.stopped,outro.started,participant,condition,date,expName,psychopyVersion,frameRate,
,,,,10468.253227100002,10468.253227100002,10468.253227100002,10468.253227100002,10468.253227100002,10468.253227100002,10468.253227100002,10468.253227100002,10468.253227100002,10468.253227100002,10468.253227100002,10468.253227100002,10468.253227100002,10468.253227100002,10468.253227100002,10468.253227100002,10468.253227100002,0,11.368751200003317,"[(0, 11.368751200003317)]",0,None,,,,,,,,,,,,,,,,,,,,,,,,084,11,2025-07-18_15h30.14.945,Surprise recog test,2023.1.3,59.95160706244881,
,,,,,,,,,,,,,,,,,,,,,,,,,,10479.6950192,10479.6950192,10479.6950192,space,27.776942600001348,None,,,,,,,,,,,,,,,,,,084,11,2025-07-18_15h30.14.945,Surprise recog test,2023.1.3,59.95160706244881,
0,0,0,0,,,,,,,,,,,,,,,,,,,,,,,,,,,,,10507.588546199993,10507.588546199993,10507.588546199993,4.0,3.480075300001772,10515.915341099993,10516.929319900002,10512.045228099996,10512.045228099996,10512.045228099996,10512.045228099996,new_fruit_48.png,1,3.0,3.8762037999986205,,,084,11,2025-07-18_15h30.14.945,Surprise recog test,2023.1.3,59.95160706244881,
1,0,1,0,,,,,,,,,,,,,,,,,,,,,,,,,,,,,,,,,,10520.28674779999,10521.299415599999,10516.929319900002,10516.929319900002,10516.929319900002,10516.929319900002,old_sceneIn_22.png,2,5.0,3.3573985999973956,,,084,11,2025-07-18_15h30.14.945,Surprise recog test,2023.1.3,59.95160706244881,
2,0,2,0,,,,,,,,,,,,,,,,,,,,,,,,,,,,,,,,,,10523.850844399996,10524.875176900001,10521.299415599999,10521.299415599999,10521.299415599999,10521.299415599999,old_stationery_2.png,3,1.0,2.5499194000003627,,,084,11,2025-07-18_15h30.14.945,Surprise recog test,2023.1.3,59.95160706244881,
3,0,3,0,,,,,,,,,,,,,,,,,,,,,,,,,,,,,,,,,,10527.257233699995,10528.2778913,10524.875176900001,10524.875176900001,10524.875176900001,10524.875176900001,old_sceneIn_1.png,4,5.0,2.385532400003285,,,084,11,2025-07-18_15h30.14.945,Surprise recog test,2023.1.3,59.95160706244881,
4,0,4,0,,,,,,,,,,,,,,,,,,,,,,,,,,,,,,,,,,10529.5512218,10530.579038000003,10528.2778913,10528.2778913,10528.2778913,10528.2778913,new_sceneIn_35.png,5,5.0,1.2748690000007628,,,084,11,2025-07-18_15h30.14.945,Surprise recog test,2023.1.3,59.95160706244881,
5,0,5,0,,,,,,,,,,,,,,,,,,,,,,,,,,,,,,,,,,10532.317398499996,10533.348498,10530.579038000003,10530.579038000003,10530.579038000003,10530.579038000003,old_sceneOut_39.png,6,1.0,1.7391564999998081,,,084,11,2025-07-18_15h30.14.945,Surprise recog test,2023.1.3,59.95160706244881,
6,0,6,0,,,,,,,,,,,,,,,,,,,,,,,,,,,,,,,,,,10536.206988700003,10537.2348385,10533.348498,10533.348498,10533.348498,10533.348498,old_sceneIn_35.png,7,4.0,2.8605328999983612,,,084,11,2025-07-18_15h30.14.945,Surprise recog test,2023.1.3,59.95160706244881,
7,0,7,0,,,,,,,,,,,,,,,,,,,,,,,,,,,,,,,,,,10539.559499999996,10540.573349499995,10537.2348385,10537.2348385,10537.2348385,10537.2348385,new_fruit_1.png,8,3.0,2.3266945999930613,,,084,11,2025-07-18_15h30.14.945,Surprise recog test,2023.1.3,59.95160706244881,
8,0,8,0,,,,,,,,,,,,,,,,,,,,,,,,,,,,,,,,,,10542.674617799996,,10540.573349499995,10540.573349499995,10540.573349499995,10540.573349499995,new_stationery_19.png,9,5.0,2.0981957000039984,,,084,11,2025-07-18_15h30.14.945,Surprise recog test,2023.1.3,59.95160706244881,
9,0,9,0,,,,,,,,,,,,,,,,,,,,,,,,,,,,,,,,,,10547.434926199996,10548.46299529999,10543.70835519999,10543.70835519999,10543.70835519999,10543.70835519999,old_sceneOut_31.png,10,3.0,3.726976599995396,,,084,11,2025-07-18_15h30.14.945,Surprise recog test,2023.1.3,59.95160706244881,
10,0,10,0,,,,,,,,,,,,,,,,,,,,,,,,,,,,,,,,,,10552.898218099996,,10548.46299529999,10548.46299529999,10548.46299529999,10548.46299529999,old_sceneOut_43.png,11,3.0,4.437973599997349,,,084,11,2025-07-18_15h30.14.945,Surprise recog test,2023.1.3,59.95160706244881,
11,0,11,0,,,,,,,,,,,,,,,,,,,,,,,,,,,,,,,,,,10556.020178300001,10557.035808599998,10553.939458300003,10553.939458300003,10553.939458300003,10553.939458300003,old_fruit_13.png,12,1.0,2.0828131000016583,,,084,11,2025-07-18_15h30.14.945,Surprise recog test,2023.1.3,59.95160706244881,
12,0,12,0,,,,,,,,,,,,,,,,,,,,,,,,,,,,,,,,,,10558.241628900003,10559.271332099997,10557.035808599998,10557.035808599998,10557.035808599998,10557.035808599998,old_stationery_20.png,13,1.0,1.1994730999867897,,,084,11,2025-07-18_15h30.14.945,Surprise recog test,2023.1.3,59.95160706244881,
13,0,13,0,,,,,,,,,,,,,,,,,,,,,,,,,,,,,,,,,,10561.942415099991,10562.970270099999,10559.271332099997,10559.271332099997,10559.271332099997,10559.271332099997,old_sceneIn_11.png,14,2.0,2.674047000007704,,,084,11,2025-07-18_15h30.14.945,Surprise recog test,2023.1.3,59.95160706244881,
14,0,14,0,,,,,,,,,,,,,,,,,,,,,,,,,,,,,,,,,,10565.556717299994,10566.5646051,10562.970270099999,10562.970270099999,10562.970270099999,10562.970270099999,old_fruit_31.png,15,3.0,2.5872629000077723,,,084,11,2025-07-18_15h30.14.945,Surprise recog test,2023.1.3,59.95160706244881,
15,0,15,0,,,,,,,,,,,,,,,,,,,,,,,,,,,,,,,,,,10568.024224699991,10569.042730499998,10566.5646051,10566.5646051,10566.5646051,10566.5646051,old_sceneIn_29.png,16,5.0,1.4547793999954592,,,084,11,2025-07-18_15h30.14.945,Surprise recog test,2023.1.3,59.95160706244881,
16,0,16,0,,,,,,,,,,,,,,,,,,,,,,,,,,,,,,,,,,10570.2429892,10571.250663299994,10569.042730499998,10569.042730499998,10569.042730499998,10569.042730499998,new_sceneIn_6.png,17,5.0,1.19643179999548,,,084,11,2025-07-18_15h30.14.945,Surprise recog test,2023.1.3,59.95160706244881,
17,0,17,0,,,,,,,,,,,,,,,,,,,,,,,,,,,,,,,,,,10572.883199900003,10573.900305900002,10571.250663299994,10571.250663299994,10571.250663299994,10571.250663299994,new_fruit_26.png,18,5.0,1.627058300000499,,,084,11,2025-07-18_15h30.14.945,Surprise recog test,2023.1.3,59.95160706244881,
18,0,18,0,,,,,,,,,,,,,,,,,,,,,,,,,,,,,,,,,,10574.783847599996,,10573.900305900002,10573.900305900002,10573.900305900002,10573.900305900002,old_sceneIn_37.png,19,5.0,0.8798755999887362,,,084,11,2025-07-18_15h30.14.945,Surprise recog test,2023.1.3,59.95160706244881,
19,0,19,0,,,,,,,,,,,,,,,,,,,,,,,,,,,,,,,,,,10576.69820929999,10577.7192823,10575.811075700003,10575.811075700003,10575.811075700003,10575.811075700003,old_sceneIn_6.png,20,5.0,0.8889761000027647,,,084,11,2025-07-18_15h30.14.945,Surprise recog test,2023.1.3,59.95160706244881,
20,0,20,0,,,,,,,,,,,,,,,,,,,,,,,,,,,,,,,,,,10581.306980899994,10582.339876399994,10577.7192823,10577.7192823,10577.7192823,10577.7192823,old_fruit_35.png,21,3.0,3.5863688999961596,,,084,11,2025-07-18_15h30.14.945,Surprise recog test,2023.1.3,59.95160706244881,
21,0,21,0,,,,,,,,,,,,,,,,,,,,,,,,,,,,,,,,,,10584.210689299995,10585.240819399995,10582.339876399994,10582.339876399994,10582.339876399994,10582.339876399994,new_sceneOut_17.png,22,5.0,1.8732104999944568,,,084,11,2025-07-18_15h30.14.945,Surprise recog test,2023.1.3,59.95160706244881,
22,0,22,0,,,,,,,,,,,,,,,,,,,,,,,,,,,,,,,,,,10588.549549399999,10589.579540300001,10585.240819399995,10585.240819399995,10585.240819399995,10585.240819399995,new_sceneIn_16.png,23,3.0,3.3111508000001777,,,084,11,2025-07-18_15h30.14.945,Surprise recog test,2023.1.3,59.95160706244881,
23,0,23,0,,,,,,,,,,,,,,,,,,,,,,,,,,,,,,,,,,10592.544872399994,10593.564714899992,10589.579540300001,10589.579540300001,10589.579540300001,10589.579540300001,new_fruit_12.png,24,3.0,2.9617579000041587,,,084,11,2025-07-18_15h30.14.945,Surprise recog test,2023.1.3,59.95160706244881,
24,0,24,0,,,,,,,,,,,,,,,,,,,,,,,,,,,,,,,,,,10597.79963989999,10598.807536300003,10593.564714899992,10593.564714899992,10593.564714899992,10593.564714899992,old_fruit_39.png,25,2.0,4.235381200007396,,,084,11,2025-07-18_15h30.14.945,Surprise recog test,2023.1.3,59.95160706244881,
25,0,25,0,,,,,,,,,,,,,,,,,,,,,,,,,,,,,,,,,,10600.885005800003,10601.889506,10598.807536300003,10598.807536300003,10598.807536300003,10598.807536300003,new_sceneOut_20.png,26,4.0,2.0675626000011107,,,084,11,2025-07-18_15h30.14.945,Surprise recog test,2023.1.3,59.95160706244881,
26,0,26,0,,,,,,,,,,,,,,,,,,,,,,,,,,,,,,,,,,10603.770685499992,10604.775444499996,10601.889506,10601.889506,10601.889506,10601.889506,new_stationery_15.png,27,1.0,1.870827200007625,,,084,11,2025-07-18_15h30.14.945,Surprise recog test,2023.1.3,59.95160706244881,
27,0,27,0,,,,,,,,,,,,,,,,,,,,,,,,,,,,,,,,,,10605.772388799996,10606.780725199998,10604.775444499996,10604.775444499996,10604.775444499996,10604.775444499996,old_fruit_40.png,28,1.0,0.986750199997914,,,084,11,2025-07-18_15h30.14.945,Surprise recog test,2023.1.3,59.95160706244881,
28,0,28,0,,,,,,,,,,,,,,,,,,,,,,,,,,,,,,,,,,10607.907552099998,10608.925225799998,10606.780725199998,10606.780725199998,10606.780725199998,10606.780725199998,old_sceneIn_34.png,29,1.0,1.1202071000006981,,,084,11,2025-07-18_15h30.14.945,Surprise recog test,2023.1.3,59.95160706244881,
29,0,29,0,,,,,,,,,,,,,,,,,,,,,,,,,,,,,,,,,,10609.762290699997,,10608.925225799998,10608.925225799998,10608.925225799998,10608.925225799998,old_stationery_16.png,30,1.0,0.8358118000032846,,,084,11,2025-07-18_15h30.14.945,Surprise recog test,2023.1.3,59.95160706244881,
30,0,30,0,,,,,,,,,,,,,,,,,,,,,,,,,,,,,,,,,,10615.766419200001,,10610.780859600003,10610.780859600003,10610.780859600003,10610.780859600003,old_stationery_23.png,31,None,None,10615.759533900004,,084,11,2025-07-18_15h30.14.945,Surprise recog test,2023.1.3,59.95160706244881,
31,0,31,0,,,,,,,,,,,,,,,,,,,,,,,,,,,,,,,,,,10618.366331499994,10619.37381469999,10616.796451399998,10616.796451399998,10616.796451399998,10616.796451399998,new_fruit_49.png,32,1.0,1.5672183999995468,,,084,11,2025-07-18_15h30.14.945,Surprise recog test,2023.1.3,59.95160706244881,
32,0,32,0,,,,,,,,,,,,,,,,,,,,,,,,,,,,,,,,,,10621.593203899996,10622.624359200003,10619.37381469999,10619.37381469999,10619.37381469999,10619.37381469999,new_sceneIn_10.png,33,3.0,2.2169966000074055,,,084,11,2025-07-18_15h30.14.945,Surprise recog test,2023.1.3,59.95160706244881,
33,0,33,0,,,,,,,,,,,,,,,,,,,,,,,,,,,,,,,,,,10624.409556199993,10625.43060059999,10622.624359200003,10622.624359200003,10622.624359200003,10622.624359200003,new_sceneIn_25.png,34,4.0,1.7860202000010759,,,084,11,2025-07-18_15h30.14.945,Surprise recog test,2023.1.3,59.95160706244881,
34,0,34,0,,,,,,,,,,,,,,,,,,,,,,,,,,,,,,,,,,10627.061369199997,10628.09373429999,10625.43060059999,10625.43060059999,10625.43060059999,10625.43060059999,old_stationery_24.png,35,1.0,1.6260468999971636,,,084,11,2025-07-18_15h30.14.945,Surprise recog test,2023.1.3,59.95160706244881,
35,0,35,0,,,,,,,,,,,,,,,,,,,,,,,,,,,,,,,,,,10628.97549379999,10629.99577049999,10628.09373429999,10628.09373429999,10628.09373429999,10628.09373429999,new_sceneOut_28.png,36,1.0,0.8841423999983817,,,084,11,2025-07-18_15h30.14.945,Surprise recog test,2023.1.3,59.95160706244881,
36,0,36,0,,,,,,,,,,,,,,,,,,,,,,,,,,,,,,,,,,10631.139509299996,10632.161666299995,10629.99577049999,10629.99577049999,10629.99577049999,10629.99577049999,new_stationery_33.png,37,1.0,1.1440482000034535,,,084,11,2025-07-18_15h30.14.945,Surprise recog test,2023.1.3,59.95160706244881,
37,0,37,0,,,,,,,,,,,,,,,,,,,,,,,,,,,,,,,,,,10634.832211399997,,10632.161666299995,10632.161666299995,10632.161666299995,10632.161666299995,old_sceneOut_19.png,38,3.0,2.672686199992313,,,084,11,2025-07-18_15h30.14.945,Surprise recog test,2023.1.3,59.95160706244881,
38,0,38,0,,,,,,,,,,,,,,,,,,,,,,,,,,,,,,,,,,10638.488191299992,10639.518749999996,10635.8652316,10635.8652316,10635.8652316,10635.8652316,new_stationery_39.png,39,2.0,2.625042699990445,,,084,11,2025-07-18_15h30.14.945,Surprise recog test,2023.1.3,59.95160706244881,
39,0,39,0,,,,,,,,,,,,,,,,,,,,,,,,,,,,,,,,,,10641.477251800003,10642.506791300002,10639.518749999996,10639.518749999996,10639.518749999996,10639.518749999996,new_sceneIn_14.png,40,5.0,1.9601815000060014,,,084,11,2025-07-18_15h30.14.945,Surprise recog test,2023.1.3,59.95160706244881,
40,0,40,0,,,,,,,,,,,,,,,,,,,,,,,,,,,,,,,,,,10644.111468900002,10645.125393499991,10642.506791300002,10642.506791300002,10642.506791300002,10642.506791300002,old_sceneIn_30.png,41,5.0,1.6069436999969184,,,084,11,2025-07-18_15h30.14.945,Surprise recog test,2023.1.3,59.95160706244881,
41,0,41,0,,,,,,,,,,,,,,,,,,,,,,,,,,,,,,,,,,10646.626422599998,,10645.125393499991,10645.125393499991,10645.125393499991,10645.125393499991,new_sceneIn_44.png,42,5.0,1.4946223000006285,,,084,11,2025-07-18_15h30.14.945,Surprise recog test,2023.1.3,59.95160706244881,
42,0,42,0,,,,,,,,,,,,,,,,,,,,,,,,,,,,,,,,,,10649.393034100001,10650.410298800001,10647.662245099993,10647.662245099993,10647.662245099993,10647.662245099993,old_fruit_27.png,43,1.0,1.7351286999910371,,,084,11,2025-07-18_15h30.14.945,Surprise recog test,2023.1.3,59.95160706244881,
43,0,43,0,,,,,,,,,,,,,,,,,,,,,,,,,,,,,,,,,,10652.232372399994,,10650.410298800001,10650.410298800001,10650.410298800001,10650.410298800001,new_sceneIn_34.png,44,4.0,1.8245463000057498,,,084,11,2025-07-18_15h30.14.945,Surprise recog test,2023.1.3,59.95160706244881,
44,0,44,0,,,,,,,,,,,,,,,,,,,,,,,,,,,,,,,,,,10654.660830699991,10655.67164539999,10653.2638067,10653.2638067,10653.2638067,10653.2638067,old_stationery_6.png,45,1.0,1.3988350999861723,,,084,11,2025-07-18_15h30.14.945,Surprise recog test,2023.1.3,59.95160706244881,
45,0,45,0,,,,,,,,,,,,,,,,,,,,,,,,,,,,,,,,,,10657.565965900001,10658.574477399998,10655.67164539999,10655.67164539999,10655.67164539999,10655.67164539999,new_sceneIn_9.png,46,5.0,1.8904460000048857,,,084,11,2025-07-18_15h30.14.945,Surprise recog test,2023.1.3,59.95160706244881,
46,0,46,0,,,,,,,,,,,,,,,,,,,,,,,,,,,,,,,,,,10660.15985199999,10661.182725500003,10658.574477399998,10658.574477399998,10658.574477399998,10658.574477399998,old_sceneOut_6.png,47,1.0,1.5815155000018422,,,084,11,2025-07-18_15h30.14.945,Surprise recog test,2023.1.3,59.95160706244881,
47,0,47,0,,,,,,,,,,,,,,,,,,,,,,,,,,,,,,,,,,10664.072948099994,10665.089895499994,10661.182725500003,10661.182725500003,10661.182725500003,10661.182725500003,new_sceneIn_45.png,48,3.0,2.8912114999984624,,,084,11,2025-07-18_15h30.14.945,Surprise recog test,2023.1.3,59.95160706244881,
48,0,48,0,,,,,,,,,,,,,,,,,,,,,,,,,,,,,,,,,,10666.441452699997,,10665.089895499994,10665.089895499994,10665.089895499994,10665.089895499994,old_sceneOut_2.png,49,1.0,1.353843599994434,,,084,11,2025-07-18_15h30.14.945,Surprise recog test,2023.1.3,59.95160706244881,
49,0,49,0,,,,,,,,,,,,,,,,,,,,,,,,,,,,,,,,,,10669.218380600003,10670.247423100001,10667.4722176,10667.4722176,10667.4722176,10667.4722176,new_fruit_43.png,50,5.0,1.7476890999969328,,,084,11,2025-07-18_15h30.14.945,Surprise recog test,2023.1.3,59.95160706244881,
50,0,50,0,,,,,,,,,,,,,,,,,,,,,,,,,,,,,,,,,,10671.1739973,10672.196873300003,10670.247423100001,10670.247423100001,10670.247423100001,10670.247423100001,new_stationery_6.png,51,5.0,0.9286906000052113,,,084,11,2025-07-18_15h30.14.945,Surprise recog test,2023.1.3,59.95160706244881,
51,0,51,0,,,,,,,,,,,,,,,,,,,,,,,,,,,,,,,,,,10675.21126399999,10676.235604299996,10672.196873300003,10672.196873300003,10672.196873300003,10672.196873300003,new_stationery_2.png,52,3.0,3.016197699995246,,,084,11,2025-07-18_15h30.14.945,Surprise recog test,2023.1.3,59.95160706244881,
52,0,52,0,,,,,,,,,,,,,,,,,,,,,,,,,,,,,,,,,,10677.748436100002,10678.757445100004,10676.235604299996,10676.235604299996,10676.235604299996,10676.235604299996,old_stationery_14.png,53,1.0,1.5156911999947624,,,084,11,2025-07-18_15h30.14.945,Surprise recog test,2023.1.3,59.95160706244881,
53,0,53,0,,,,,,,,,,,,,,,,,,,,,,,,,,,,,,,,,,10681.32666649999,10682.344376000001,10678.757445100004,10678.757445100004,10678.757445100004,10678.757445100004,old_sceneOut_49.png,54,2.0,2.5650651000032667,,,084,11,2025-07-18_15h30.14.945,Surprise recog test,2023.1.3,59.95160706244881,
54,0,54,0,,,,,,,,,,,,,,,,,,,,,,,,,,,,,,,,,,10683.803606399997,10684.819690199998,10682.344376000001,10682.344376000001,10682.344376000001,10682.344376000001,new_sceneOut_22.png,55,5.0,1.454372299995157,,,084,11,2025-07-18_15h30.14.945,Surprise recog test,2023.1.3,59.95160706244881,
55,0,55,0,,,,,,,,,,,,,,,,,,,,,,,,,,,,,,,,,,10686.831593100003,10687.859535399992,10684.819690199998,10684.819690199998,10684.819690199998,10684.819690199998,old_stationery_30.png,56,1.0,2.012205200007884,,,084,11,2025-07-18_15h30.14.945,Surprise recog test,2023.1.3,59.95160706244881,
56,0,56,0,,,,,,,,,,,,,,,,,,,,,,,,,,,,,,,,,,10688.952544699998,10689.96765659999,10687.859535399992,10687.859535399992,10687.859535399992,10687.859535399992,old_stationery_31.png,57,1.0,1.0942636000108905,,,084,11,2025-07-18_15h30.14.945,Surprise recog test,2023.1.3,59.95160706244881,
57,0,57,0,,,,,,,,,,,,,,,,,,,,,,,,,,,,,,,,,,10690.762056500003,,10689.96765659999,10689.96765659999,10689.96765659999,10689.96765659999,old_stationery_11.png,58,1.0,0.7905160000082105,,,084,11,2025-07-18_15h30.14.945,Surprise recog test,2023.1.3,59.95160706244881,
58,0,58,0,,,,,,,,,,,,,,,,,,,,,,,,,,,,,,,,,,10695.352407399994,10696.381139099998,10691.788476199996,10691.788476199996,10691.788476199996,10691.788476199996,new_stationery_48.png,59,3.0,3.5641305999888573,,,084,11,2025-07-18_15h30.14.945,Surprise recog test,2023.1.3,59.95160706244881,
59,0,59,0,,,,,,,,,,,,,,,,,,,,,,,,,,,,,,,,,,10698.349301799994,10699.369636700001,10696.381139099998,10696.381139099998,10696.381139099998,10696.381139099998,new_fruit_15.png,60,2.0,1.9613864999992074,,,084,11,2025-07-18_15h30.14.945,Surprise recog test,2023.1.3,59.95160706244881,
60,0,60,0,,,,,,,,,,,,,,,,,,,,,,,,,,,,,,,,,,10700.735447199993,10701.74978939999,10699.369636700001,10699.369636700001,10699.369636700001,10699.369636700001,new_stationery_22.png,61,1.0,1.3657089000043925,,,084,11,2025-07-18_15h30.14.945,Surprise recog test,2023.1.3,59.95160706244881,
61,0,61,0,,,,,,,,,,,,,,,,,,,,,,,,,,,,,,,,,,10704.017450799998,10705.04236459999,10701.74978939999,10701.74978939999,10701.74978939999,10701.74978939999,old_fruit_14.png,62,2.0,2.2688622000132455,,,084,11,2025-07-18_15h30.14.945,Surprise recog test,2023.1.3,59.95160706244881,
62,0,62,0,,,,,,,,,,,,,,,,,,,,,,,,,,,,,,,,,,10706.98749359999,10708.011241599997,10705.04236459999,10705.04236459999,10705.04236459999,10705.04236459999,new_sceneOut_26.png,63,2.0,1.9474311999947531,,,084,11,2025-07-18_15h30.14.945,Surprise recog test,2023.1.3,59.95160706244881,
63,0,63,0,,,,,,,,,,,,,,,,,,,,,,,,,,,,,,,,,,10709.863870499998,10710.894294299993,10708.011241599997,10708.011241599997,10708.011241599997,10708.011241599997,old_fruit_25.png,64,3.0,1.8540572000056272,,,084,11,2025-07-18_15h30.14.945,Surprise recog test,2023.1.3,59.95160706244881,
64,0,64,0,,,,,,,,,,,,,,,,,,,,,,,,,,,,,,,,,,10712.267316999998,10713.285900900002,10710.894294299993,10710.894294299993,10710.894294299993,10710.894294299993,old_stationery_8.png,65,1.0,1.3718334000004688,,,084,11,2025-07-18_15h30.14.945,Surprise recog test,2023.1.3,59.95160706244881,
65,0,65,0,,,,,,,,,,,,,,,,,,,,,,,,,,,,,,,,,,10714.04495599999,10715.060250899995,10713.285900900002,10713.285900900002,10713.285900900002,10713.285900900002,old_stationery_19.png,66,1.0,0.7551998999988427,,,084,11,2025-07-18_15h30.14.945,Surprise recog test,2023.1.3,59.95160706244881,
66,0,66,0,,,,,,,,,,,,,,,,,,,,,,,,,,,,,,,,,,10717.106480299997,10718.130282299993,10715.060250899995,10715.060250899995,10715.060250899995,10715.060250899995,new_fruit_44.png,67,1.0,2.0435438999993494,,,084,11,2025-07-18_15h30.14.945,Surprise recog test,2023.1.3,59.95160706244881,
67,0,67,0,,,,,,,,,,,,,,,,,,,,,,,,,,,,,,,,,,10719.982566999992,10720.992495599996,10718.130282299993,10718.130282299993,10718.130282299993,10718.130282299993,old_fruit_26.png,68,2.0,1.8541103999887127,,,084,11,2025-07-18_15h30.14.945,Surprise recog test,2023.1.3,59.95160706244881,
68,0,68,0,,,,,,,,,,,,,,,,,,,,,,,,,,,,,,,,,,10722.695375100004,10723.72409309999,10720.992495599996,10720.992495599996,10720.992495599996,10720.992495599996,new_fruit_38.png,69,5.0,1.6983844000060344,,,084,11,2025-07-18_15h30.14.945,Surprise recog test,2023.1.3,59.95160706244881,
69,0,69,0,,,,,,,,,,,,,,,,,,,,,,,,,,,,,,,,,,10726.0643719,10727.077229499999,10723.72409309999,10723.72409309999,10723.72409309999,10723.72409309999,new_fruit_3.png,70,2.0,2.3406937000108883,,,084,11,2025-07-18_15h30.14.945,Surprise recog test,2023.1.3,59.95160706244881,
70,0,70,0,,,,,,,,,,,,,,,,,,,,,,,,,,,,,,,,,,10728.301333699994,10729.31463809999,10727.077229499999,10727.077229499999,10727.077229499999,10727.077229499999,new_sceneOut_41.png,71,1.0,1.2200799999991432,,,084,11,2025-07-18_15h30.14.945,Surprise recog test,2023.1.3,59.95160706244881,
71,0,71,0,,,,,,,,,,,,,,,,,,,,,,,,,,,,,,,,,,10731.255903699996,10732.281049299992,10729.31463809999,10729.31463809999,10729.31463809999,10729.31463809999,new_fruit_14.png,72,2.0,1.9373190000042086,,,084,11,2025-07-18_15h30.14.945,Surprise recog test,2023.1.3,59.95160706244881,
72,0,72,0,,,,,,,,,,,,,,,,,,,,,,,,,,,,,,,,,,10734.493507899992,10735.510633899998,10732.281049299992,10732.281049299992,10732.281049299992,10732.281049299992,new_sceneIn_19.png,73,4.0,2.215753099997528,,,084,11,2025-07-18_15h30.14.945,Surprise recog test,2023.1.3,59.95160706244881,
73,0,73,0,,,,,,,,,,,,,,,,,,,,,,,,,,,,,,,,,,10736.847589999998,10737.867548799994,10735.510633899998,10735.510633899998,10735.510633899998,10735.510633899998,new_sceneIn_1.png,74,5.0,1.3380767999915406,,,084,11,2025-07-18_15h30.14.945,Surprise recog test,2023.1.3,59.95160706244881,
74,0,74,0,,,,,,,,,,,,,,,,,,,,,,,,,,,,,,,,,,10739.878250200003,10740.907270899996,10737.867548799994,10737.867548799994,10737.867548799994,10737.867548799994,new_sceneIn_20.png,75,3.0,2.0123183999967296,,,084,11,2025-07-18_15h30.14.945,Surprise recog test,2023.1.3,59.95160706244881,
75,0,75,0,,,,,,,,,,,,,,,,,,,,,,,,,,,,,,,,,,10742.407210800004,10743.432016899991,10740.907270899996,10740.907270899996,10740.907270899996,10740.907270899996,old_fruit_45.png,76,1.0,1.5018352000042796,,,084,11,2025-07-18_15h30.14.945,Surprise recog test,2023.1.3,59.95160706244881,
76,0,76,0,,,,,,,,,,,,,,,,,,,,,,,,,,,,,,,,,,10746.026134299995,,10743.432016899991,10743.432016899991,10743.432016899991,10743.432016899991,new_sceneIn_23.png,77,3.0,2.5904812999942806,,,084,11,2025-07-18_15h30.14.945,Surprise recog test,2023.1.3,59.95160706244881,
77,0,77,0,,,,,,,,,,,,,,,,,,,,,,,,,,,,,,,,,,10749.3825688,10750.413555999992,10747.059341199994,10747.059341199994,10747.059341199994,10747.059341199994,new_stationery_3.png,78,3.0,2.3233132000023033,,,084,11,2025-07-18_15h30.14.945,Surprise recog test,2023.1.3,59.95160706244881,
78,0,78,0,,,,,,,,,,,,,,,,,,,,,,,,,,,,,,,,,,10751.7254664,10752.746314900003,10750.413555999992,10750.413555999992,10750.413555999992,10750.413555999992,new_stationery_35.png,79,1.0,1.3152849999896716,,,084,11,2025-07-18_15h30.14.945,Surprise recog test,2023.1.3,59.95160706244881,
79,0,79,0,,,,,,,,,,,,,,,,,,,,,,,,,,,,,,,,,,10754.922575800003,10755.943624500003,10752.746314900003,10752.746314900003,10752.746314900003,10752.746314900003,new_fruit_22.png,80,1.0,2.1755971999955364,,,084,11,2025-07-18_15h30.14.945,Surprise recog test,2023.1.3,59.95160706244881,
80,0,80,0,,,,,,,,,,,,,,,,,,,,,,,,,,,,,,,,,,10758.557994399998,10759.575433500002,10755.943624500003,10755.943624500003,10755.943624500003,10755.943624500003,old_sceneIn_45.png,81,4.0,2.614820399991004,,,084,11,2025-07-18_15h30.14.945,Surprise recog test,2023.1.3,59.95160706244881,
81,0,81,0,,,,,,,,,,,,,,,,,,,,,,,,,,,,,,,,,,10761.252384999993,10762.267116099996,10759.575433500002,10759.575433500002,10759.575433500002,10759.575433500002,old_sceneIn_4.png,82,1.0,1.6737717999931192,,,084,11,2025-07-18_15h30.14.945,Surprise recog test,2023.1.3,59.95160706244881,
82,0,82,0,,,,,,,,,,,,,,,,,,,,,,,,,,,,,,,,,,10765.994133599997,10767.028738,10762.267116099996,10762.267116099996,10762.267116099996,10762.267116099996,old_fruit_49.png,83,2.0,3.727809399992111,,,084,11,2025-07-18_15h30.14.945,Surprise recog test,2023.1.3,59.95160706244881,
83,0,83,0,,,,,,,,,,,,,,,,,,,,,,,,,,,,,,,,,,10769.365431899998,10770.39466649999,10767.028738,10767.028738,10767.028738,10767.028738,old_sceneIn_26.png,84,5.0,2.3399155999941286,,,084,11,2025-07-18_15h30.14.945,Surprise recog test,2023.1.3,59.95160706244881,
84,0,84,0,,,,,,,,,,,,,,,,,,,,,,,,,,,,,,,,,,10771.637148200003,10772.664865399995,10770.39466649999,10770.39466649999,10770.39466649999,10770.39466649999,old_stationery_18.png,85,1.0,1.2429042000003392,,,084,11,2025-07-18_15h30.14.945,Surprise recog test,2023.1.3,59.95160706244881,
85,0,85,0,,,,,,,,,,,,,,,,,,,,,,,,,,,,,,,,,,10774.114456399991,,10772.664865399995,10772.664865399995,10772.664865399995,10772.664865399995,old_sceneOut_45.png,86,1.0,1.4518726999958744,,,084,11,2025-07-18_15h30.14.945,Surprise recog test,2023.1.3,59.95160706244881,
86,0,86,0,,,,,,,,,,,,,,,,,,,,,,,,,,,,,,,,,,10776.306015100003,10777.334058999993,10775.134162900002,10775.134162900002,10775.134162900002,10775.134162900002,new_sceneOut_7.png,87,1.0,1.1664679999958025,,,084,11,2025-07-18_15h30.14.945,Surprise recog test,2023.1.3,59.95160706244881,
87,0,87,0,,,,,,,,,,,,,,,,,,,,,,,,,,,,,,,,,,10779.396448799998,10780.423744199994,10777.334058999993,10777.334058999993,10777.334058999993,10777.334058999993,new_fruit_4.png,88,3.0,2.061874799997895,,,084,11,2025-07-18_15h30.14.945,Surprise recog test,2023.1.3,59.95160706244881,
88,0,88,0,,,,,,,,,,,,,,,,,,,,,,,,,,,,,,,,,,10782.527706799992,10783.557830400001,10780.423744199994,10780.423744199994,10780.423744199994,10780.423744199994,old_sceneIn_42.png,89,2.0,2.1064487999974517,,,084,11,2025-07-18_15h30.14.945,Surprise recog test,2023.1.3,59.95160706244881,
89,0,89,0,,,,,,,,,,,,,,,,,,,,,,,,,,,,,,,,,,10786.343797799993,10787.375983400001,10783.557830400001,10783.557830400001,10783.557830400001,10783.557830400001,old_sceneIn_49.png,90,2.0,2.788339500009897,,,084,11,2025-07-18_15h30.14.945,Surprise recog test,2023.1.3,59.95160706244881,
90,0,90,0,,,,,,,,,,,,,,,,,,,,,,,,,,,,,,,,,,10789.653527399998,10790.678540899993,10787.375983400001,10787.375983400001,10787.375983400001,10787.375983400001,new_sceneOut_33.png,91,1.0,2.27727330000198,,,084,11,2025-07-18_15h30.14.945,Surprise recog test,2023.1.3,59.95160706244881,
91,0,91,0,,,,,,,,,,,,,,,,,,,,,,,,,,,,,,,,,,10793.115866300002,10794.151032100002,10790.678540899993,10790.678540899993,10790.678540899993,10790.678540899993,old_sceneIn_13.png,92,4.0,2.4388357999996515,,,084,11,2025-07-18_15h30.14.945,Surprise recog test,2023.1.3,59.95160706244881,
92,0,92,0,,,,,,,,,,,,,,,,,,,,,,,,,,,,,,,,,,10795.6320949,,10794.151032100002,10794.151032100002,10794.151032100002,10794.151032100002,new_stationery_12.png,93,1.0,1.485239100002218,,,084,11,2025-07-18_15h30.14.945,Surprise recog test,2023.1.3,59.95160706244881,
93,0,93,0,,,,,,,,,,,,,,,,,,,,,,,,,,,,,,,,,,10800.050492499991,10801.057944299995,10796.668732099999,10796.668732099999,10796.668732099999,10796.668732099999,new_stationery_31.png,94,3.0,3.3778132000006735,,,084,11,2025-07-18_15h30.14.945,Surprise recog test,2023.1.3,59.95160706244881,
94,0,94,0,,,,,,,,,,,,,,,,,,,,,,,,,,,,,,,,,,10803.90249629999,10804.912141200002,10801.057944299995,10801.057944299995,10801.057944299995,10801.057944299995,new_stationery_16.png,95,3.0,2.8404424999898765,,,084,11,2025-07-18_15h30.14.945,Surprise recog test,2023.1.3,59.95160706244881,
95,0,95,0,,,,,,,,,,,,,,,,,,,,,,,,,,,,,,,,,,10806.422333899995,10807.431235699994,10804.912141200002,10804.912141200002,10804.912141200002,10804.912141200002,old_stationery_47.png,96,1.0,1.501472999996622,,,084,11,2025-07-18_15h30.14.945,Surprise recog test,2023.1.3,59.95160706244881,
96,0,96,0,,,,,,,,,,,,,,,,,,,,,,,,,,,,,,,,,,10810.20486749999,10811.2305595,10807.431235699994,10807.431235699994,10807.431235699994,10807.431235699994,new_fruit_18.png,97,1.0,2.7686373999895295,,,084,11,2025-07-18_15h30.14.945,Surprise recog test,2023.1.3,59.95160706244881,
97,0,97,0,,,,,,,,,,,,,,,,,,,,,,,,,,,,,,,,,,10812.689213099999,10813.712900799997,10811.2305595,10811.2305595,10811.2305595,10811.2305595,new_sceneIn_2.png,98,5.0,1.46127400000114,,,084,11,2025-07-18_15h30.14.945,Surprise recog test,2023.1.3,59.95160706244881,
98,0,98,0,,,,,,,,,,,,,,,,,,,,,,,,,,,,,,,,,,10815.207552200001,10816.228105099995,10813.712900799997,10813.712900799997,10813.712900799997,10813.712900799997,old_stationery_12.png,99,1.0,1.4956736999884015,,,084,11,2025-07-18_15h30.14.945,Surprise recog test,2023.1.3,59.95160706244881,
99,0,99,0,,,,,,,,,,,,,,,,,,,,,,,,,,,,,,,,,,10816.963814299997,10817.985761800002,10816.228105099995,10816.228105099995,10816.228105099995,10816.228105099995,old_stationery_5.png,100,1.0,0.7372778999997536,,,084,11,2025-07-18_15h30.14.945,Surprise recog test,2023.1.3,59.95160706244881,
100,0,100,0,,,,,,,,,,,,,,,,,,,,,,,,,,,,,,,,,,10818.825652399995,10819.841329399998,10817.985761800002,10817.985761800002,10817.985761800002,10817.985761800002,old_stationery_4.png,101,1.0,0.8416331000044011,,,084,11,2025-07-18_15h30.14.945,Surprise recog test,2023.1.3,59.95160706244881,
101,0,101,0,,,,,,,,,,,,,,,,,,,,,,,,,,,,,,,,,,10821.166831999995,10822.189763499999,10819.841329399998,10819.841329399998,10819.841329399998,10819.841329399998,old_sceneIn_31.png,102,1.0,1.3206146000011358,,,084,11,2025-07-18_15h30.14.945,Surprise recog test,2023.1.3,59.95160706244881,
102,0,102,0,,,,,,,,,,,,,,,,,,,,,,,,,,,,,,,,,,10824.295444800002,10825.323681999995,10822.189763499999,10822.189763499999,10822.189763499999,10822.189763499999,old_sceneOut_20.png,103,2.0,2.1069783000129974,,,084,11,2025-07-18_15h30.14.945,Surprise recog test,2023.1.3,59.95160706244881,
103,0,103,0,,,,,,,,,,,,,,,,,,,,,,,,,,,,,,,,,,10828.70938149999,10829.725651499997,10825.323681999995,10825.323681999995,10825.323681999995,10825.323681999995,old_fruit_29.png,104,4.0,3.3877732999972068,,,084,11,2025-07-18_15h30.14.945,Surprise recog test,2023.1.3,59.95160706244881,
104,0,104,0,,,,,,,,,,,,,,,,,,,,,,,,,,,,,,,,,,10832.60147609999,10833.630192199991,10829.725651499997,10829.725651499997,10829.725651499997,10829.725651499997,new_sceneIn_37.png,105,5.0,2.878131999998004,,,084,11,2025-07-18_15h30.14.945,Surprise recog test,2023.1.3,59.95160706244881,
105,0,105,0,,,,,,,,,,,,,,,,,,,,,,,,,,,,,,,,,,10836.263294600001,10837.284452,10833.630192199991,10833.630192199991,10833.630192199991,10833.630192199991,old_fruit_44.png,106,4.0,2.632920500007458,,,084,11,2025-07-18_15h30.14.945,Surprise recog test,2023.1.3,59.95160706244881,
106,0,106,0,,,,,,,,,,,,,,,,,,,,,,,,,,,,,,,,,,10840.421216199997,,10837.284452,10837.284452,10837.284452,10837.284452,old_sceneOut_16.png,107,2.0,3.1392369999957737,,,084,11,2025-07-18_15h30.14.945,Surprise recog test,2023.1.3,59.95160706244881,
107,0,107,0,,,,,,,,,,,,,,,,,,,,,,,,,,,,,,,,,,10844.086915,10845.107124199996,10841.44756729999,10841.44756729999,10841.44756729999,10841.44756729999,old_stationery_7.png,108,2.0,2.6344175999984145,,,084,11,2025-07-18_15h30.14.945,Surprise recog test,2023.1.3,59.95160706244881,
108,0,108,0,,,,,,,,,,,,,,,,,,,,,,,,,,,,,,,,,,10848.0898599,10849.099546299993,10845.107124199996,10845.107124199996,10845.107124199996,10845.107124199996,old_sceneOut_27.png,109,4.0,2.984764599998016,,,084,11,2025-07-18_15h30.14.945,Surprise recog test,2023.1.3,59.95160706244881,
109,0,109,0,,,,,,,,,,,,,,,,,,,,,,,,,,,,,,,,,,10852.627287499992,10853.645420199995,10849.099546299993,10849.099546299993,10849.099546299993,10849.099546299993,new_fruit_31.png,110,1.0,3.518016100002569,,,084,11,2025-07-18_15h30.14.945,Surprise recog test,2023.1.3,59.95160706244881,
110,0,110,0,,,,,,,,,,,,,,,,,,,,,,,,,,,,,,,,,,10854.63929079999,10855.667256199995,10853.645420199995,10853.645420199995,10853.645420199995,10853.645420199995,old_stationery_41.png,111,1.0,0.9931482000101823,,,084,11,2025-07-18_15h30.14.945,Surprise recog test,2023.1.3,59.95160706244881,
111,0,111,0,,,,,,,,,,,,,,,,,,,,,,,,,,,,,,,,,,10858.0551644,10859.086988599993,10855.667256199995,10855.667256199995,10855.667256199995,10855.667256199995,old_sceneIn_9.png,112,2.0,2.3888102999917464,,,084,11,2025-07-18_15h30.14.945,Surprise recog test,2023.1.3,59.95160706244881,
112,0,112,0,,,,,,,,,,,,,,,,,,,,,,,,,,,,,,,,,,10860.944080099995,10861.971658999995,10859.086988599993,10859.086988599993,10859.086988599993,10859.086988599993,old_sceneIn_48.png,113,5.0,1.8587393999914639,,,084,11,2025-07-18_15h30.14.945,Surprise recog test,2023.1.3,59.95160706244881,
113,0,113,0,,,,,,,,,,,,,,,,,,,,,,,,,,,,,,,,,,10864.97623539999,10866.01008,10861.971658999995,10861.971658999995,10861.971658999995,10861.971658999995,new_stationery_25.png,114,2.0,3.00723730000027,,,084,11,2025-07-18_15h30.14.945,Surprise recog test,2023.1.3,59.95160706244881,
114,0,114,0,,,,,,,,,,,,,,,,,,,,,,,,,,,,,,,,,,10867.904754700001,10868.925290299994,10866.01008,10866.01008,10866.01008,10866.01008,new_sceneOut_21.png,115,1.0,1.8974059000029229,,,084,11,2025-07-18_15h30.14.945,Surprise recog test,2023.1.3,59.95160706244881,
115,0,115,0,,,,,,,,,,,,,,,,,,,,,,,,,,,,,,,,,,10869.924866399997,10870.932391000002,10868.925290299994,10868.925290299994,10868.925290299994,10868.925290299994,old_stationery_49.png,116,1.0,1.0013179000088712,,,084,11,2025-07-18_15h30.14.945,Surprise recog test,2023.1.3,59.95160706244881,
116,0,116,0,,,,,,,,,,,,,,,,,,,,,,,,,,,,,,,,,,10874.120098699997,10875.15084119999,10870.932391000002,10870.932391000002,10870.932391000002,10870.932391000002,new_sceneOut_4.png,117,4.0,3.1836722000007285,,,084,11,2025-07-18_15h30.14.945,Surprise recog test,2023.1.3,59.95160706244881,
117,0,117,0,,,,,,,,,,,,,,,,,,,,,,,,,,,,,,,,,,10877.596592299997,10878.619276299993,10875.15084119999,10875.15084119999,10875.15084119999,10875.15084119999,new_fruit_11.png,118,4.0,2.445930000001681,,,084,11,2025-07-18_15h30.14.945,Surprise recog test,2023.1.3,59.95160706244881,
118,0,118,0,,,,,,,,,,,,,,,,,,,,,,,,,,,,,,,,,,10880.708319499994,10881.724297300003,10878.619276299993,10878.619276299993,10878.619276299993,10878.619276299993,old_sceneOut_11.png,119,4.0,2.0916158000036376,,,084,11,2025-07-18_15h30.14.945,Surprise recog test,2023.1.3,59.95160706244881,
119,0,119,0,,,,,,,,,,,,,,,,,,,,,,,,,,,,,,,,,,10883.661542499998,10884.688636999992,10881.724297300003,10881.724297300003,10881.724297300003,10881.724297300003,old_sceneIn_32.png,120,5.0,1.9329006999905687,,,084,11,2025-07-18_15h30.14.945,Surprise recog test,2023.1.3,59.95160706244881,
120,0,120,0,,,,,,,,,,,,,,,,,,,,,,,,,,,,,,,,,,10886.851381399996,10887.87640999999,10884.688636999992,10884.688636999992,10884.688636999992,10884.688636999992,new_stationery_38.png,121,1.0,2.164473899989389,,,084,11,2025-07-18_15h30.14.945,Surprise recog test,2023.1.3,59.95160706244881,
121,0,121,0,,,,,,,,,,,,,,,,,,,,,,,,,,,,,,,,,,10888.7561031,10889.77768549999,10887.87640999999,10887.87640999999,10887.87640999999,10887.87640999999,old_stationery_33.png,122,1.0,0.880782399995951,,,084,11,2025-07-18_15h30.14.945,Surprise recog test,2023.1.3,59.95160706244881,
122,0,122,0,,,,,,,,,,,,,,,,,,,,,,,,,,,,,,,,,,10890.83931599999,10891.86318909999,10889.77768549999,10889.77768549999,10889.77768549999,10889.77768549999,old_stationery_17.png,123,1.0,1.062839599995641,,,084,11,2025-07-18_15h30.14.945,Surprise recog test,2023.1.3,59.95160706244881,
123,0,123,0,,,,,,,,,,,,,,,,,,,,,,,,,,,,,,,,,,10893.427943399998,10894.44934259999,10891.86318909999,10891.86318909999,10891.86318909999,10891.86318909999,new_stationery_10.png,124,1.0,1.5601830999949016,,,084,11,2025-07-18_15h30.14.945,Surprise recog test,2023.1.3,59.95160706244881,
124,0,124,0,,,,,,,,,,,,,,,,,,,,,,,,,,,,,,,,,,10896.032262300003,,10894.44934259999,10894.44934259999,10894.44934259999,10894.44934259999,new_sceneIn_46.png,125,5.0,1.583060100005241,,,084,11,2025-07-18_15h30.14.945,Surprise recog test,2023.1.3,59.95160706244881,
125,0,125,0,,,,,,,,,,,,,,,,,,,,,,,,,,,,,,,,,,10899.248341199993,10900.267867099996,10897.0655815,10897.0655815,10897.0655815,10897.0655815,old_sceneOut_50.png,126,4.0,2.1839016000012634,,,084,11,2025-07-18_15h30.14.945,Surprise recog test,2023.1.3,59.95160706244881,
126,0,126,0,,,,,,,,,,,,,,,,,,,,,,,,,,,,,,,,,,10901.701877899999,10902.722513199995,10900.267867099996,10900.267867099996,10900.267867099996,10900.267867099996,old_stationery_25.png,127,1.0,1.4356164000055287,,,084,11,2025-07-18_15h30.14.945,Surprise recog test,2023.1.3,59.95160706244881,
127,0,127,0,,,,,,,,,,,,,,,,,,,,,,,,,,,,,,,,,,10905.791699599991,,10902.722513199995,10902.722513199995,10902.722513199995,10902.722513199995,new_fruit_33.png,128,2.0,3.072349199996097,,,084,11,2025-07-18_15h30.14.945,Surprise recog test,2023.1.3,59.95160706244881,
128,0,128,0,,,,,,,,,,,,,,,,,,,,,,,,,,,,,,,,,,10908.638077599993,10909.66018639999,10906.813291599996,10906.813291599996,10906.813291599996,10906.813291599996,old_fruit_11.png,129,4.0,1.818468199999188,,,084,11,2025-07-18_15h30.14.945,Surprise recog test,2023.1.3,59.95160706244881,
129,0,129,0,,,,,,,,,,,,,,,,,,,,,,,,,,,,,,,,,,10914.137274999994,10915.161933899995,10909.66018639999,10909.66018639999,10909.66018639999,10909.66018639999,new_stationery_13.png,130,3.0,4.475345099999686,,,084,11,2025-07-18_15h30.14.945,Surprise recog test,2023.1.3,59.95160706244881,
130,0,130,0,,,,,,,,,,,,,,,,,,,,,,,,,,,,,,,,,,10917.584654400001,,10915.161933899995,10915.161933899995,10915.161933899995,10915.161933899995,old_sceneOut_24.png,131,3.0,2.423601599992253,,,084,11,2025-07-18_15h30.14.945,Surprise recog test,2023.1.3,59.95160706244881,
131,0,131,0,,,,,,,,,,,,,,,,,,,,,,,,,,,,,,,,,,10921.469447000003,10922.480170599993,10918.616490299995,10918.616490299995,10918.616490299995,10918.616490299995,new_stationery_44.png,132,4.0,2.854289599999902,,,084,11,2025-07-18_15h30.14.945,Surprise recog test,2023.1.3,59.95160706244881,
132,0,132,0,,,,,,,,,,,,,,,,,,,,,,,,,,,,,,,,,,10925.478420299994,10926.508840899995,10922.480170599993,10922.480170599993,10922.480170599993,10922.480170599993,new_stationery_5.png,133,4.0,2.9965095999941695,,,084,11,2025-07-18_15h30.14.945,Surprise recog test,2023.1.3,59.95160706244881,
133,0,133,0,,,,,,,,,,,,,,,,,,,,,,,,,,,,,,,,,,10927.705697399993,10928.734468100003,10926.508840899995,10926.508840899995,10926.508840899995,10926.508840899995,old_fruit_2.png,134,1.0,1.1994709999999031,,,084,11,2025-07-18_15h30.14.945,Surprise recog test,2023.1.3,59.95160706244881,
134,0,134,0,,,,,,,,,,,,,,,,,,,,,,,,,,,,,,,,,,10931.595372399992,,10928.734468100003,10928.734468100003,10928.734468100003,10928.734468100003,new_stationery_14.png,135,5.0,2.865499400009867,,,084,11,2025-07-18_15h30.14.945,Surprise recog test,2023.1.3,59.95160706244881,
135,0,135,0,,,,,,,,,,,,,,,,,,,,,,,,,,,,,,,,,,10935.713351699997,10936.7192898,10932.630183599998,10932.630183599998,10932.630183599998,10932.630183599998,new_sceneOut_15.png,136,3.0,3.083382700002403,,,084,11,2025-07-18_15h30.14.945,Surprise recog test,2023.1.3,59.95160706244881,
136,0,136,0,,,,,,,,,,,,,,,,,,,,,,,,,,,,,,,,,,10938.230452700001,10939.24761459999,10936.7192898,10936.7192898,10936.7192898,10936.7192898,old_stationery_28.png,137,1.0,1.5089206999982707,,,084,11,2025-07-18_15h30.14.945,Surprise recog test,2023.1.3,59.95160706244881,
137,0,137,0,,,,,,,,,,,,,,,,,,,,,,,,,,,,,,,,,,10941.247576799993,10942.270544399995,10939.24761459999,10939.24761459999,10939.24761459999,10939.24761459999,new_sceneOut_40.png,138,2.0,1.998310399998445,,,084,11,2025-07-18_15h30.14.945,Surprise recog test,2023.1.3,59.95160706244881,
138,0,138,0,,,,,,,,,,,,,,,,,,,,,,,,,,,,,,,,,,10943.41950479999,10944.440554599998,10942.270544399995,10942.270544399995,10942.270544399995,10942.270544399995,old_stationery_22.png,139,1.0,1.1435773999983212,,,084,11,2025-07-18_15h30.14.945,Surprise recog test,2023.1.3,59.95160706244881,
139,0,139,0,,,,,,,,,,,,,,,,,,,,,,,,,,,,,,,,,,10946.073192299991,10947.093577999993,10944.440554599998,10944.440554599998,10944.440554599998,10944.440554599998,old_sceneIn_20.png,140,4.0,1.6329913999943528,,,084,11,2025-07-18_15h30.14.945,Surprise recog test,2023.1.3,59.95160706244881,
140,0,140,0,,,,,,,,,,,,,,,,,,,,,,,,,,,,,,,,,,10948.33207859999,10949.3600736,10947.093577999993,10947.093577999993,10947.093577999993,10947.093577999993,new_fruit_16.png,141,1.0,1.2419031000026735,,,084,11,2025-07-18_15h30.14.945,Surprise recog test,2023.1.3,59.95160706244881,
141,0,141,0,,,,,,,,,,,,,,,,,,,,,,,,,,,,,,,,,,10951.081557499994,10952.107213100004,10949.3600736,10949.3600736,10949.3600736,10949.3600736,old_sceneIn_36.png,142,5.0,1.7241455000039423,,,084,11,2025-07-18_15h30.14.945,Surprise recog test,2023.1.3,59.95160706244881,
142,0,142,0,,,,,,,,,,,,,,,,,,,,,,,,,,,,,,,,,,10954.473361899996,10955.499682599992,10952.107213100004,10952.107213100004,10952.107213100004,10952.107213100004,old_sceneOut_33.png,143,2.0,2.367841400002362,,,084,11,2025-07-18_15h30.14.945,Surprise recog test,2023.1.3,59.95160706244881,
143,0,143,0,,,,,,,,,,,,,,,,,,,,,,,,,,,,,,,,,,10957.711585799996,10958.740631899993,10955.499682599992,10955.499682599992,10955.499682599992,10955.499682599992,new_sceneOut_8.png,144,3.0,2.21413360000588,,,084,11,2025-07-18_15h30.14.945,Surprise recog test,2023.1.3,59.95160706244881,
144,0,144,0,,,,,,,,,,,,,,,,,,,,,,,,,,,,,,,,,,10959.939145999997,10960.9599656,10958.740631899993,10958.740631899993,10958.740631899993,10958.740631899993,old_fruit_20.png,145,1.0,1.20397009998851,,,084,11,2025-07-18_15h30.14.945,Surprise recog test,2023.1.3,59.95160706244881,
145,0,145,0,,,,,,,,,,,,,,,,,,,,,,,,,,,,,,,,,,10961.876494000004,10962.901988399994,10960.9599656,10960.9599656,10960.9599656,10960.9599656,old_stationery_35.png,146,1.0,0.9140001999912784,,,084,11,2025-07-18_15h30.14.945,Surprise recog test,2023.1.3,59.95160706244881,
146,0,146,0,,,,,,,,,,,,,,,,,,,,,,,,,,,,,,,,,,10965.750589900003,10966.76522899999,10962.901988399994,10962.901988399994,10962.901988399994,10962.901988399994,old_sceneOut_28.png,147,3.0,2.8480525000049965,,,084,11,2025-07-18_15h30.14.945,Surprise recog test,2023.1.3,59.95160706244881,
147,0,147,0,,,,,,,,,,,,,,,,,,,,,,,,,,,,,,,,,,10969.621837199993,10970.632827899994,10966.76522899999,10966.76522899999,10966.76522899999,10966.76522899999,new_sceneOut_49.png,148,3.0,2.8537134999933187,,,084,11,2025-07-18_15h30.14.945,Surprise recog test,2023.1.3,59.95160706244881,
148,0,148,0,,,,,,,,,,,,,,,,,,,,,,,,,,,,,,,,,,10971.865671899992,10972.897855700001,10970.632827899994,10970.632827899994,10970.632827899994,10970.632827899994,new_fruit_39.png,149,1.0,1.2289812999952119,,,084,11,2025-07-18_15h30.14.945,Surprise recog test,2023.1.3,59.95160706244881,
149,0,149,0,,,,,,,,,,,,,,,,,,,,,,,,,,,,,,,,,,10973.716301799992,10974.737053600002,10972.897855700001,10972.897855700001,10972.897855700001,10972.897855700001,old_stationery_1.png,150,1.0,0.818167600009474,,,084,11,2025-07-18_15h30.14.945,Surprise recog test,2023.1.3,59.95160706244881,
150,0,150,0,,,,,,,,,,,,,,,,,,,,,,,,,,,,,,,,,,10976.730455399993,10977.751897999995,10974.737053600002,10974.737053600002,10974.737053600002,10974.737053600002,new_sceneIn_41.png,151,5.0,1.9893642000097316,,,084,11,2025-07-18_15h30.14.945,Surprise recog test,2023.1.3,59.95160706244881,
151,0,151,0,,,,,,,,,,,,,,,,,,,,,,,,,,,,,,,,,,10978.589266499992,10979.620710299998,10977.751897999995,10977.751897999995,10977.751897999995,10977.751897999995,new_sceneIn_30.png,152,5.0,0.837820600005216,,,084,11,2025-07-18_15h30.14.945,Surprise recog test,2023.1.3,59.95160706244881,
152,0,152,0,,,,,,,,,,,,,,,,,,,,,,,,,,,,,,,,,,10981.090117599997,10982.121149299994,10979.620710299998,10979.620710299998,10979.620710299998,10979.620710299998,old_fruit_38.png,153,1.0,1.4713193999923533,,,084,11,2025-07-18_15h30.14.945,Surprise recog test,2023.1.3,59.95160706244881,
153,0,153,0,,,,,,,,,,,,,,,,,,,,,,,,,,,,,,,,,,10983.488756300001,,10982.121149299994,10982.121149299994,10982.121149299994,10982.121149299994,new_fruit_37.png,154,1.0,1.3723718999972334,,,084,11,2025-07-18_15h30.14.945,Surprise recog test,2023.1.3,59.95160706244881,
154,0,154,0,,,,,,,,,,,,,,,,,,,,,,,,,,,,,,,,,,10986.00986659999,10987.04105339999,10984.521530599995,10984.521530599995,10984.521530599995,10984.521530599995,old_sceneOut_18.png,155,5.0,1.4899986000091303,,,084,11,2025-07-18_15h30.14.945,Surprise recog test,2023.1.3,59.95160706244881,
155,0,155,0,,,,,,,,,,,,,,,,,,,,,,,,,,,,,,,,,,10988.45024659999,10989.477525899994,10987.04105339999,10987.04105339999,10987.04105339999,10987.04105339999,old_fruit_7.png,156,1.0,1.4106126999977278,,,084,11,2025-07-18_15h30.14.945,Surprise recog test,2023.1.3,59.95160706244881,
156,0,156,0,,,,,,,,,,,,,,,,,,,,,,,,,,,,,,,,,,10992.038187899998,10993.048885399992,10989.477525899994,10989.477525899994,10989.477525899994,10989.477525899994,old_sceneOut_21.png,157,2.0,2.5643025000026682,,,084,11,2025-07-18_15h30.14.945,Surprise recog test,2023.1.3,59.95160706244881,
157,0,157,0,,,,,,,,,,,,,,,,,,,,,,,,,,,,,,,,,,10995.356483899996,10996.383964,10993.048885399992,10993.048885399992,10993.048885399992,10993.048885399992,new_sceneOut_45.png,158,4.0,2.3021919000020716,,,084,11,2025-07-18_15h30.14.945,Surprise recog test,2023.1.3,59.95160706244881,
158,0,158,0,,,,,,,,,,,,,,,,,,,,,,,,,,,,,,,,,,10997.293616499992,10998.306385199998,10996.383964,10996.383964,10996.383964,10996.383964,new_sceneIn_4.png,159,5.0,0.9117767999996431,,,084,11,2025-07-18_15h30.14.945,Surprise recog test,2023.1.3,59.95160706244881,
159,0,159,0,,,,,,,,,,,,,,,,,,,,,,,,,,,,,,,,,,10999.189854499993,11000.216182199998,10998.306385199998,10998.306385199998,10998.306385199998,10998.306385199998,new_sceneIn_36.png,160,5.0,0.8795937000104459,,,084,11,2025-07-18_15h30.14.945,Surprise recog test,2023.1.3,59.95160706244881,
160,0,160,0,,,,,,,,,,,,,,,,,,,,,,,,,,,,,,,,,,11002.457571899991,11003.4841714,11000.216182199998,11000.216182199998,11000.216182199998,11000.216182199998,new_stationery_42.png,161,5.0,2.2439965000085067,,,084,11,2025-07-18_15h30.14.945,Surprise recog test,2023.1.3,59.95160706244881,
161,0,161,0,,,,,,,,,,,,,,,,,,,,,,,,,,,,,,,,,,11006.286682500002,11007.311586999997,11003.4841714,11003.4841714,11003.4841714,11003.4841714,old_sceneIn_28.png,162,2.0,2.8022207000030903,,,084,11,2025-07-18_15h30.14.945,Surprise recog test,2023.1.3,59.95160706244881,
162,0,162,0,,,,,,,,,,,,,,,,,,,,,,,,,,,,,,,,,,11008.203684799992,11009.225649399996,11007.311586999997,11007.311586999997,11007.311586999997,11007.311586999997,old_stationery_36.png,163,1.0,0.8954811000003247,,,084,11,2025-07-18_15h30.14.945,Surprise recog test,2023.1.3,59.95160706244881,
163,0,163,0,,,,,,,,,,,,,,,,,,,,,,,,,,,,,,,,,,11009.988204699992,11011.0131454,11009.225649399996,11009.225649399996,11009.225649399996,11009.225649399996,old_stationery_27.png,164,1.0,0.7624242000019876,,,084,11,2025-07-18_15h30.14.945,Surprise recog test,2023.1.3,59.95160706244881,
164,0,164,0,,,,,,,,,,,,,,,,,,,,,,,,,,,,,,,,,,11012.707911099998,11013.73114299999,11011.0131454,11011.0131454,11011.0131454,11011.0131454,new_sceneOut_30.png,165,2.0,1.697634600001038,,,084,11,2025-07-18_15h30.14.945,Surprise recog test,2023.1.3,59.95160706244881,
165,0,165,0,,,,,,,,,,,,,,,,,,,,,,,,,,,,,,,,,,11015.904414800003,11016.93238569999,11013.73114299999,11013.73114299999,11013.73114299999,11013.73114299999,new_sceneOut_35.png,166,3.0,2.1748233000107575,,,084,11,2025-07-18_15h30.14.945,Surprise recog test,2023.1.3,59.95160706244881,
166,0,166,0,,,,,,,,,,,,,,,,,,,,,,,,,,,,,,,,,,11020.289329400002,11021.321317599992,11016.93238569999,11016.93238569999,11016.93238569999,11016.93238569999,old_fruit_47.png,167,3.0,3.3575771000032546,,,084,11,2025-07-18_15h30.14.945,Surprise recog test,2023.1.3,59.95160706244881,
167,0,167,0,,,,,,,,,,,,,,,,,,,,,,,,,,,,,,,,,,11023.519298899999,11024.540326800001,11021.321317599992,11021.321317599992,11021.321317599992,11021.321317599992,new_fruit_13.png,168,4.0,2.1994571999966865,,,084,11,2025-07-18_15h30.14.945,Surprise recog test,2023.1.3,59.95160706244881,
168,0,168,0,,,,,,,,,,,,,,,,,,,,,,,,,,,,,,,,,,11026.613490099997,11027.6361234,11024.540326800001,11024.540326800001,11024.540326800001,11024.540326800001,old_sceneIn_12.png,169,5.0,2.073512299990398,,,084,11,2025-07-18_15h30.14.945,Surprise recog test,2023.1.3,59.95160706244881,
169,0,169,0,,,,,,,,,,,,,,,,,,,,,,,,,,,,,,,,,,11031.178565699993,,11027.6361234,11027.6361234,11027.6361234,11027.6361234,new_stationery_1.png,170,4.0,3.5426325000007637,,,084,11,2025-07-18_15h30.14.945,Surprise recog test,2023.1.3,59.95160706244881,
170,0,170,0,,,,,,,,,,,,,,,,,,,,,,,,,,,,,,,,,,11034.0165338,11035.048654799997,11032.213312,11032.213312,11032.213312,11032.213312,old_fruit_42.png,171,1.0,1.8069594999979017,,,084,11,2025-07-18_15h30.14.945,Surprise recog test,2023.1.3,59.95160706244881,
171,0,171,0,,,,,,,,,,,,,,,,,,,,,,,,,,,,,,,,,,11037.7648061,11038.78371109999,11035.048654799997,11035.048654799997,11035.048654799997,11035.048654799997,new_sceneOut_16.png,172,3.0,2.7178065000043716,,,084,11,2025-07-18_15h30.14.945,Surprise recog test,2023.1.3,59.95160706244881,
172,0,172,0,,,,,,,,,,,,,,,,,,,,,,,,,,,,,,,,,,11041.461187300003,11042.48648449999,11038.78371109999,11038.78371109999,11038.78371109999,11038.78371109999,old_fruit_37.png,173,4.0,2.6793496000027517,,,084,11,2025-07-18_15h30.14.945,Surprise recog test,2023.1.3,59.95160706244881,
173,0,173,0,,,,,,,,,,,,,,,,,,,,,,,,,,,,,,,,,,11045.0652987,11046.092053199995,11042.48648449999,11042.48648449999,11042.48648449999,11042.48648449999,old_fruit_28.png,174,1.0,2.5791154999897117,,,084,11,2025-07-18_15h30.14.945,Surprise recog test,2023.1.3,59.95160706244881,
174,0,174,0,,,,,,,,,,,,,,,,,,,,,,,,,,,,,,,,,,11048.095902299996,11049.126811599992,11046.092053199995,11046.092053199995,11046.092053199995,11046.092053199995,new_sceneOut_46.png,175,2.0,2.0044682000007015,,,084,11,2025-07-18_15h30.14.945,Surprise recog test,2023.1.3,59.95160706244881,
175,0,175,0,,,,,,,,,,,,,,,,,,,,,,,,,,,,,,,,,,11050.345486600003,,11049.126811599992,11049.126811599992,11049.126811599992,11049.126811599992,new_fruit_21.png,176,1.0,1.220976900003734,,,084,11,2025-07-18_15h30.14.945,Surprise recog test,2023.1.3,59.95160706244881,
176,0,176,0,,,,,,,,,,,,,,,,,,,,,,,,,,,,,,,,,,11053.4910264,11054.513685099992,11051.379198899995,11051.379198899995,11051.379198899995,11051.379198899995,new_stationery_37.png,177,5.0,2.1120166999899084,,,084,11,2025-07-18_15h30.14.945,Surprise recog test,2023.1.3,59.95160706244881,
177,0,177,0,,,,,,,,,,,,,,,,,,,,,,,,,,,,,,,,,,11055.669206400002,11056.687790599994,11054.513685099992,11054.513685099992,11054.513685099992,11054.513685099992,new_stationery_45.png,178,5.0,1.1552002999960678,,,084,11,2025-07-18_15h30.14.945,Surprise recog test,2023.1.3,59.95160706244881,
178,0,178,0,,,,,,,,,,,,,,,,,,,,,,,,,,,,,,,,,,11058.398319199994,11059.417569099991,11056.687790599994,11056.687790599994,11056.687790599994,11056.687790599994,old_sceneOut_12.png,179,5.0,1.7028172000136692,,,084,11,2025-07-18_15h30.14.945,Surprise recog test,2023.1.3,59.95160706244881,
179,0,179,0,,,,,,,,,,,,,,,,,,,,,,,,,,,,,,,,,,11062.20421199999,,11059.417569099991,11059.417569099991,11059.417569099991,11059.417569099991,old_sceneOut_47.png,180,4.0,2.787475800010725,,,084,11,2025-07-18_15h30.14.945,Surprise recog test,2023.1.3,59.95160706244881,
180,0,180,0,,,,,,,,,,,,,,,,,,,,,,,,,,,,,,,,,,11064.745378999993,11065.772934100001,11063.237450599998,11063.237450599998,11063.237450599998,11063.237450599998,old_fruit_15.png,181,1.0,1.5102871999988565,,,084,11,2025-07-18_15h30.14.945,Surprise recog test,2023.1.3,59.95160706244881,
181,0,181,0,,,,,,,,,,,,,,,,,,,,,,,,,,,,,,,,,,11066.559621400003,,11065.772934100001,11065.772934100001,11065.772934100001,11065.772934100001,new_stationery_23.png,182,1.0,0.7888252999982797,,,084,11,2025-07-18_15h30.14.945,Surprise recog test,2023.1.3,59.95160706244881,
182,0,182,0,,,,,,,,,,,,,,,,,,,,,,,,,,,,,,,,,,11068.93019169999,11069.953279000001,11067.590572499998,11067.590572499998,11067.590572499998,11067.590572499998,old_sceneOut_14.png,183,5.0,1.340818999990006,,,084,11,2025-07-18_15h30.14.945,Surprise recog test,2023.1.3,59.95160706244881,
183,0,183,0,,,,,,,,,,,,,,,,,,,,,,,,,,,,,,,,,,11070.977578700004,,11069.953279000001,11069.953279000001,11069.953279000001,11069.953279000001,new_fruit_10.png,184,5.0,1.0251313999906415,,,084,11,2025-07-18_15h30.14.945,Surprise recog test,2023.1.3,59.95160706244881,
184,0,184,0,,,,,,,,,,,,,,,,,,,,,,,,,,,,,,,,,,11073.206920999997,11074.2300645,11071.996369399996,11071.996369399996,11071.996369399996,11071.996369399996,new_sceneIn_28.png,185,5.0,1.2040911000076449,,,084,11,2025-07-18_15h30.14.945,Surprise recog test,2023.1.3,59.95160706244881,
185,0,185,0,,,,,,,,,,,,,,,,,,,,,,,,,,,,,,,,,,11076.419443300001,11077.443265100002,11074.2300645,11074.2300645,11074.2300645,11074.2300645,old_fruit_21.png,186,2.0,2.1904846999968868,,,084,11,2025-07-18_15h30.14.945,Surprise recog test,2023.1.3,59.95160706244881,
186,0,186,0,,,,,,,,,,,,,,,,,,,,,,,,,,,,,,,,,,11078.602451099992,,11077.443265100002,11077.443265100002,11077.443265100002,11077.443265100002,new_sceneIn_32.png,187,5.0,1.1590334999928018,,,084,11,2025-07-18_15h30.14.945,Surprise recog test,2023.1.3,59.95160706244881,
187,0,187,0,,,,,,,,,,,,,,,,,,,,,,,,,,,,,,,,,,11081.450613999994,11082.471542699997,11079.6341857,11079.6341857,11079.6341857,11079.6341857,new_sceneOut_9.png,188,5.0,1.8182984000013676,,,084,11,2025-07-18_15h30.14.945,Surprise recog test,2023.1.3,59.95160706244881,
188,0,188,0,,,,,,,,,,,,,,,,,,,,,,,,,,,,,,,,,,11084.3492931,11085.371779000001,11082.471542699997,11082.471542699997,11082.471542699997,11082.471542699997,new_sceneOut_43.png,189,5.0,1.8795986000041012,,,084,11,2025-07-18_15h30.14.945,Surprise recog test,2023.1.3,59.95160706244881,
189,0,189,0,,,,,,,,,,,,,,,,,,,,,,,,,,,,,,,,,,11086.307175100002,,11085.371779000001,11085.371779000001,11085.371779000001,11085.371779000001,new_sceneIn_11.png,190,5.0,0.9336086999974214,,,084,11,2025-07-18_15h30.14.945,Surprise recog test,2023.1.3,59.95160706244881,
190,0,190,0,,,,,,,,,,,,,,,,,,,,,,,,,,,,,,,,,,11088.647661599993,11089.676109200002,11087.3432215,11087.3432215,11087.3432215,11087.3432215,new_sceneIn_50.png,191,5.0,1.3043433999991976,,,084,11,2025-07-18_15h30.14.945,Surprise recog test,2023.1.3,59.95160706244881,
191,0,191,0,,,,,,,,,,,,,,,,,,,,,,,,,,,,,,,,,,11091.8885524,11092.90984439999,11089.676109200002,11089.676109200002,11089.676109200002,11089.676109200002,old_fruit_1.png,192,4.0,2.2139219000091543,,,084,11,2025-07-18_15h30.14.945,Surprise recog test,2023.1.3,59.95160706244881,
192,0,192,0,,,,,,,,,,,,,,,,,,,,,,,,,,,,,,,,,,11095.1213317,11096.148934199991,11092.90984439999,11092.90984439999,11092.90984439999,11092.90984439999,old_fruit_10.png,193,5.0,2.2127077000041027,,,084,11,2025-07-18_15h30.14.945,Surprise recog test,2023.1.3,59.95160706244881,
193,0,193,0,,,,,,,,,,,,,,,,,,,,,,,,,,,,,,,,,,11097.321038999995,11098.352807800002,11096.148934199991,11096.148934199991,11096.148934199991,11096.148934199991,new_fruit_47.png,194,5.0,1.1721404999989318,,,084,11,2025-07-18_15h30.14.945,Surprise recog test,2023.1.3,59.95160706244881,
194,0,194,0,,,,,,,,,,,,,,,,,,,,,,,,,,,,,,,,,,11099.5551587,11100.574366299996,11098.352807800002,11098.352807800002,11098.352807800002,11098.352807800002,old_stationery_45.png,195,1.0,1.2041108999983408,,,084,11,2025-07-18_15h30.14.945,Surprise recog test,2023.1.3,59.95160706244881,
195,0,195,0,,,,,,,,,,,,,,,,,,,,,,,,,,,,,,,,,,11102.809362199994,11103.838244999999,11100.574366299996,11100.574366299996,11100.574366299996,11100.574366299996,old_fruit_34.png,196,3.0,2.2308952000021236,,,084,11,2025-07-18_15h30.14.945,Surprise recog test,2023.1.3,59.95160706244881,
196,0,196,0,,,,,,,,,,,,,,,,,,,,,,,,,,,,,,,,,,11105.387206099993,11106.401650399996,11103.838244999999,11103.838244999999,11103.838244999999,11103.838244999999,old_sceneOut_48.png,197,3.0,1.5500863999914145,,,084,11,2025-07-18_15h30.14.945,Surprise recog test,2023.1.3,59.95160706244881,
197,0,197,0,,,,,,,,,,,,,,,,,,,,,,,,,,,,,,,,,,11108.472122899992,11109.482792100003,11106.401650399996,11106.401650399996,11106.401650399996,11106.401650399996,new_fruit_34.png,198,5.0,2.0679209000081755,,,084,11,2025-07-18_15h30.14.945,Surprise recog test,2023.1.3,59.95160706244881,
198,0,198,0,,,,,,,,,,,,,,,,,,,,,,,,,,,,,,,,,,11110.503097300003,11111.527909699995,11109.482792100003,11109.482792100003,11109.482792100003,11109.482792100003,new_sceneOut_47.png,199,5.0,1.0159036999975797,,,084,11,2025-07-18_15h30.14.945,Surprise recog test,2023.1.3,59.95160706244881,
199,0,199,0,,,,,,,,,,,,,,,,,,,,,,,,,,,,,,,,,,11112.516483399995,11113.543624699996,11111.527909699995,11111.527909699995,11111.527909699995,11111.527909699995,new_sceneOut_11.png,200,5.0,0.9907123000011779,,,084,11,2025-07-18_15h30.14.945,Surprise recog test,2023.1.3,59.95160706244881,
200,0,200,0,,,,,,,,,,,,,,,,,,,,,,,,,,,,,,,,,,11115.721301599995,11116.733583300003,11113.543624699996,11113.543624699996,11113.543624699996,11113.543624699996,new_fruit_17.png,201,1.0,2.180782999988878,,,084,11,2025-07-18_15h30.14.945,Surprise recog test,2023.1.3,59.95160706244881,
201,0,201,0,,,,,,,,,,,,,,,,,,,,,,,,,,,,,,,,,,11117.848067599996,11118.866849199992,11116.733583300003,11116.733583300003,11116.733583300003,11116.733583300003,new_stationery_9.png,202,1.0,1.1084434999938821,,,084,11,2025-07-18_15h30.14.945,Surprise recog test,2023.1.3,59.95160706244881,
202,0,202,0,,,,,,,,,,,,,,,,,,,,,,,,,,,,,,,,,,11120.816354999995,11121.836770100002,11118.866849199992,11118.866849199992,11118.866849199992,11118.866849199992,new_fruit_28.png,203,1.0,1.9520204000000376,,,084,11,2025-07-18_15h30.14.945,Surprise recog test,2023.1.3,59.95160706244881,
203,0,203,0,,,,,,,,,,,,,,,,,,,,,,,,,,,,,,,,,,11123.4081945,11124.431548699991,11121.836770100002,11121.836770100002,11121.836770100002,11121.836770100002,old_sceneOut_32.png,204,5.0,1.5717581000062637,,,084,11,2025-07-18_15h30.14.945,Surprise recog test,2023.1.3,59.95160706244881,
204,0,204,0,,,,,,,,,,,,,,,,,,,,,,,,,,,,,,,,,,11126.559417599994,,11124.431548699991,11124.431548699991,11124.431548699991,11124.431548699991,new_sceneOut_23.png,205,5.0,2.128380299996934,,,084,11,2025-07-18_15h30.14.945,Surprise recog test,2023.1.3,59.95160706244881,
205,0,205,0,,,,,,,,,,,,,,,,,,,,,,,,,,,,,,,,,,11128.824149799992,11129.845326499992,11127.591293500001,11127.591293500001,11127.591293500001,11127.591293500001,old_stationery_34.png,206,1.0,1.2352771000005305,,,084,11,2025-07-18_15h30.14.945,Surprise recog test,2023.1.3,59.95160706244881,
206,0,206,0,,,,,,,,,,,,,,,,,,,,,,,,,,,,,,,,,,11130.844883499994,,11129.845326499992,11129.845326499992,11129.845326499992,11129.845326499992,old_fruit_4.png,207,1.0,1.0006288000004133,,,084,11,2025-07-18_15h30.14.945,Surprise recog test,2023.1.3,59.95160706244881,
207,0,207,0,,,,,,,,,,,,,,,,,,,,,,,,,,,,,,,,,,11133.84874339999,,11131.866465399995,11131.866465399995,11131.866465399995,11131.866465399995,new_sceneOut_44.png,208,5.0,1.978331199992681,,,084,11,2025-07-18_15h30.14.945,Surprise recog test,2023.1.3,59.95160706244881,
208,0,208,0,,,,,,,,,,,,,,,,,,,,,,,,,,,,,,,,,,11136.37142969999,11137.387952199999,11134.879828099998,11134.879828099998,11134.879828099998,11134.879828099998,old_fruit_8.png,209,1.0,1.493753699993249,,,084,11,2025-07-18_15h30.14.945,Surprise recog test,2023.1.3,59.95160706244881,
209,0,209,0,,,,,,,,,,,,,,,,,,,,,,,,,,,,,,,,,,11139.032639199992,11140.040763599995,11137.387952199999,11137.387952199999,11137.387952199999,11137.387952199999,new_sceneOut_31.png,210,5.0,1.6398652000061702,,,084,11,2025-07-18_15h30.14.945,Surprise recog test,2023.1.3,59.95160706244881,
210,0,210,0,,,,,,,,,,,,,,,,,,,,,,,,,,,,,,,,,,11141.86449819999,11142.8747295,11140.040763599995,11140.040763599995,11140.040763599995,11140.040763599995,new_fruit_35.png,211,4.0,1.8192702000087593,,,084,11,2025-07-18_15h30.14.945,Surprise recog test,2023.1.3,59.95160706244881,
211,0,211,0,,,,,,,,,,,,,,,,,,,,,,,,,,,,,,,,,,11146.297523299996,11147.321226599997,11142.8747295,11142.8747295,11142.8747295,11142.8747295,old_sceneOut_1.png,212,3.0,3.4165805999946315,,,084,11,2025-07-18_15h30.14.945,Surprise recog test,2023.1.3,59.95160706244881,
212,0,212,0,,,,,,,,,,,,,,,,,,,,,,,,,,,,,,,,,,11150.45293929999,11151.47888409999,11147.321226599997,11147.321226599997,11147.321226599997,11147.321226599997,old_fruit_30.png,213,3.0,3.131101699997089,,,084,11,2025-07-18_15h30.14.945,Surprise recog test,2023.1.3,59.95160706244881,
213,0,213,0,,,,,,,,,,,,,,,,,,,,,,,,,,,,,,,,,,11153.077192799996,11154.094877599993,11151.47888409999,11151.47888409999,11151.47888409999,11151.47888409999,new_sceneIn_48.png,214,5.0,1.5997818000032566,,,084,11,2025-07-18_15h30.14.945,Surprise recog test,2023.1.3,59.95160706244881,
214,0,214,0,,,,,,,,,,,,,,,,,,,,,,,,,,,,,,,,,,11155.946014199995,11156.965893099994,11154.094877599993,11154.094877599993,11154.094877599993,11154.094877599993,new_stationery_41.png,215,5.0,1.8519165000034263,,,084,11,2025-07-18_15h30.14.945,Surprise recog test,2023.1.3,59.95160706244881,
215,0,215,0,,,,,,,,,,,,,,,,,,,,,,,,,,,,,,,,,,11158.315516900002,11159.33286409999,11156.965893099994,11156.965893099994,11156.965893099994,11156.965893099994,new_sceneOut_24.png,216,5.0,1.3523330000025453,,,084,11,2025-07-18_15h30.14.945,Surprise recog test,2023.1.3,59.95160706244881,
216,0,216,0,,,,,,,,,,,,,,,,,,,,,,,,,,,,,,,,,,11160.512234100002,11161.535389299992,11159.33286409999,11159.33286409999,11159.33286409999,11159.33286409999,old_sceneOut_42.png,217,5.0,1.179002799995942,,,084,11,2025-07-18_15h30.14.945,Surprise recog test,2023.1.3,59.95160706244881,
217,0,217,0,,,,,,,,,,,,,,,,,,,,,,,,,,,,,,,,,,11162.561294599996,11163.586912399995,11161.535389299992,11161.535389299992,11161.535389299992,11161.535389299992,old_sceneIn_18.png,218,5.0,1.027588700002525,,,084,11,2025-07-18_15h30.14.945,Surprise recog test,2023.1.3,59.95160706244881,
218,0,218,0,,,,,,,,,,,,,,,,,,,,,,,,,,,,,,,,,,11165.420503199995,11166.440514299997,11163.586912399995,11163.586912399995,11163.586912399995,11163.586912399995,new_sceneOut_50.png,219,1.0,1.8347089999879245,,,084,11,2025-07-18_15h30.14.945,Surprise recog test,2023.1.3,59.95160706244881,
219,0,219,0,,,,,,,,,,,,,,,,,,,,,,,,,,,,,,,,,,11167.516976799998,11168.5302878,11166.440514299997,11166.440514299997,11166.440514299997,11166.440514299997,old_sceneOut_40.png,220,1.0,1.0793871999921976,,,084,11,2025-07-18_15h30.14.945,Surprise recog test,2023.1.3,59.95160706244881,
220,0,220,0,,,,,,,,,,,,,,,,,,,,,,,,,,,,,,,,,,11170.731120799996,11171.761330899993,11168.5302878,11168.5302878,11168.5302878,11168.5302878,new_fruit_6.png,221,2.0,2.194094500009669,,,084,11,2025-07-18_15h30.14.945,Surprise recog test,2023.1.3,59.95160706244881,
221,0,221,0,,,,,,,,,,,,,,,,,,,,,,,,,,,,,,,,,,11173.417475000002,11174.442865500001,11171.761330899993,11171.761330899993,11171.761330899993,11171.761330899993,new_stationery_11.png,222,5.0,1.6581004000036046,,,084,11,2025-07-18_15h30.14.945,Surprise recog test,2023.1.3,59.95160706244881,
222,0,222,0,,,,,,,,,,,,,,,,,,,,,,,,,,,,,,,,,,11175.87587109999,11176.89363459999,11174.442865500001,11174.442865500001,11174.442865500001,11174.442865500001,old_stationery_29.png,223,1.0,1.4270565000042552,,,084,11,2025-07-18_15h30.14.945,Surprise recog test,2023.1.3,59.95160706244881,
223,0,223,0,,,,,,,,,,,,,,,,,,,,,,,,,,,,,,,,,,11178.541011699992,11179.565764899999,11176.89363459999,11176.89363459999,11176.89363459999,11176.89363459999,new_sceneIn_13.png,224,5.0,1.6464058999990812,,,084,11,2025-07-18_15h30.14.945,Surprise recog test,2023.1.3,59.95160706244881,
224,0,224,0,,,,,,,,,,,,,,,,,,,,,,,,,,,,,,,,,,11181.443776199994,11182.470856199994,11179.565764899999,11179.565764899999,11179.565764899999,11179.565764899999,new_sceneOut_3.png,225,4.0,1.8788996999937808,,,084,11,2025-07-18_15h30.14.945,Surprise recog test,2023.1.3,59.95160706244881,
225,0,225,0,,,,,,,,,,,,,,,,,,,,,,,,,,,,,,,,,,11183.737732799993,,11182.470856199994,11182.470856199994,11182.470856199994,11182.470856199994,old_sceneIn_7.png,226,5.0,1.268306300000404,,,084,11,2025-07-18_15h30.14.945,Surprise recog test,2023.1.3,59.95160706244881,
226,0,226,0,,,,,,,,,,,,,,,,,,,,,,,,,,,,,,,,,,11187.415784599994,11188.44040649999,11184.770696400003,11184.770696400003,11184.770696400003,11184.770696400003,new_sceneOut_34.png,227,4.0,2.6477393000095617,,,084,11,2025-07-18_15h30.14.945,Surprise recog test,2023.1.3,59.95160706244881,
227,0,227,0,,,,,,,,,,,,,,,,,,,,,,,,,,,,,,,,,,11189.73250379999,11190.761644399994,11188.44040649999,11188.44040649999,11188.44040649999,11188.44040649999,old_fruit_12.png,228,1.0,1.2933905999962008,,,084,11,2025-07-18_15h30.14.945,Surprise recog test,2023.1.3,59.95160706244881,
228,0,228,0,,,,,,,,,,,,,,,,,,,,,,,,,,,,,,,,,,11191.943715099995,11192.950840600002,11190.761644399994,11190.761644399994,11190.761644399994,11190.761644399994,new_sceneOut_10.png,229,1.0,1.183261099999072,,,084,11,2025-07-18_15h30.14.945,Surprise recog test,2023.1.3,59.95160706244881,
229,0,229,0,,,,,,,,,,,,,,,,,,,,,,,,,,,,,,,,,,11194.641492599992,11195.6609158,11192.950840600002,11192.950840600002,11192.950840600002,11192.950840600002,new_sceneIn_40.png,230,5.0,1.686702899998636,,,084,11,2025-07-18_15h30.14.945,Surprise recog test,2023.1.3,59.95160706244881,
230,0,230,0,,,,,,,,,,,,,,,,,,,,,,,,,,,,,,,,,,11197.187702499992,11198.21334899999,11195.6609158,11195.6609158,11195.6609158,11195.6609158,new_sceneIn_24.png,231,5.0,1.5277005000098143,,,084,11,2025-07-18_15h30.14.945,Surprise recog test,2023.1.3,59.95160706244881,
231,0,231,0,,,,,,,,,,,,,,,,,,,,,,,,,,,,,,,,,,11199.486863699996,11200.519908900002,11198.21334899999,11198.21334899999,11198.21334899999,11198.21334899999,old_fruit_23.png,232,1.0,1.2741746999963652,,,084,11,2025-07-18_15h30.14.945,Surprise recog test,2023.1.3,59.95160706244881,
232,0,232,0,,,,,,,,,,,,,,,,,,,,,,,,,,,,,,,,,,11201.95992809999,11202.986928699996,11200.519908900002,11200.519908900002,11200.519908900002,11200.519908900002,new_sceneIn_12.png,233,5.0,1.4420613999973284,,,084,11,2025-07-18_15h30.14.945,Surprise recog test,2023.1.3,59.95160706244881,
233,0,233,0,,,,,,,,,,,,,,,,,,,,,,,,,,,,,,,,,,11206.476159499995,11207.507569699992,11202.986928699996,11202.986928699996,11202.986928699996,11202.986928699996,new_sceneOut_27.png,234,4.0,3.4908466000051703,,,084,11,2025-07-18_15h30.14.945,Surprise recog test,2023.1.3,59.95160706244881,
234,0,234,0,,,,,,,,,,,,,,,,,,,,,,,,,,,,,,,,,,11211.280633900002,11212.314015000004,11207.507569699992,11207.507569699992,11207.507569699992,11207.507569699992,new_sceneOut_6.png,235,3.0,3.774969300007797,,,084,11,2025-07-18_15h30.14.945,Surprise recog test,2023.1.3,59.95160706244881,
235,0,235,0,,,,,,,,,,,,,,,,,,,,,,,,,,,,,,,,,,11214.07743479999,11215.081834599994,11212.314015000004,11212.314015000004,11212.314015000004,11212.314015000004,new_fruit_25.png,236,1.0,1.765979799994966,,,084,11,2025-07-18_15h30.14.945,Surprise recog test,2023.1.3,59.95160706244881,
236,0,236,0,,,,,,,,,,,,,,,,,,,,,,,,,,,,,,,,,,11215.895420699999,11216.914233900003,11215.081834599994,11215.081834599994,11215.081834599994,11215.081834599994,old_fruit_19.png,237,1.0,0.8095112999872072,,,084,11,2025-07-18_15h30.14.945,Surprise recog test,2023.1.3,59.95160706244881,
237,0,237,0,,,,,,,,,,,,,,,,,,,,,,,,,,,,,,,,,,11217.817029999998,,11216.914233900003,11216.914233900003,11216.914233900003,11216.914233900003,old_stationery_21.png,238,1.0,0.90448369999649,,,084,11,2025-07-18_15h30.14.945,Surprise recog test,2023.1.3,59.95160706244881,
238,0,238,0,,,,,,,,,,,,,,,,,,,,,,,,,,,,,,,,,,11222.309733499998,11223.337655599993,11218.852107599996,11218.852107599996,11218.852107599996,11218.852107599996,old_sceneOut_13.png,239,2.0,3.461413700002595,,,084,11,2025-07-18_15h30.14.945,Surprise recog test,2023.1.3,59.95160706244881,
239,0,239,0,,,,,,,,,,,,,,,,,,,,,,,,,,,,,,,,,,11225.406769699992,,11223.337655599993,11223.337655599993,11223.337655599993,11223.337655599993,new_stationery_8.png,240,5.0,2.0712401999917347,,,084,11,2025-07-18_15h30.14.945,Surprise recog test,2023.1.3,59.95160706244881,
240,0,240,0,,,,,,,,,,,,,,,,,,,,,,,,,,,,,,,,,,11227.8960629,11228.923787500004,11226.444104799994,11226.444104799994,11226.444104799994,11226.444104799994,old_stationery_46.png,241,1.0,1.456602500009467,,,084,11,2025-07-18_15h30.14.945,Surprise recog test,2023.1.3,59.95160706244881,
241,0,241,0,,,,,,,,,,,,,,,,,,,,,,,,,,,,,,,,,,11231.700755799997,11232.730021000003,11228.923787500004,11228.923787500004,11228.923787500004,11228.923787500004,new_sceneIn_27.png,242,1.0,2.7794489999942016,,,084,11,2025-07-18_15h30.14.945,Surprise recog test,2023.1.3,59.95160706244881,
242,0,242,0,,,,,,,,,,,,,,,,,,,,,,,,,,,,,,,,,,11235.948158199993,,11232.730021000003,11232.730021000003,11232.730021000003,11232.730021000003,new_stationery_30.png,243,3.0,3.2186766999948304,,,084,11,2025-07-18_15h30.14.945,Surprise recog test,2023.1.3,59.95160706244881,
243,0,243,0,,,,,,,,,,,,,,,,,,,,,,,,,,,,,,,,,,11239.578019300003,11240.601768100001,11236.983258899993,11236.983258899993,11236.983258899993,11236.983258899993,old_sceneOut_36.png,244,4.0,2.59733970000525,,,084,11,2025-07-18_15h30.14.945,Surprise recog test,2023.1.3,59.95160706244881,
244,0,244,0,,,,,,,,,,,,,,,,,,,,,,,,,,,,,,,,,,11243.309510999992,11244.337493599996,11240.601768100001,11240.601768100001,11240.601768100001,11240.601768100001,old_sceneOut_5.png,245,4.0,2.709014499996556,,,084,11,2025-07-18_15h30.14.945,Surprise recog test,2023.1.3,59.95160706244881,
245,0,245,0,,,,,,,,,,,,,,,,,,,,,,,,,,,,,,,,,,11246.25949399999,11247.2909708,11244.337493599996,11244.337493599996,11244.337493599996,11244.337493599996,old_sceneIn_50.png,246,5.0,1.9209065000031842,,,084,11,2025-07-18_15h30.14.945,Surprise recog test,2023.1.3,59.95160706244881,
246,0,246,0,,,,,,,,,,,,,,,,,,,,,,,,,,,,,,,,,,11248.721681999996,11249.743292099993,11247.2909708,11247.2909708,11247.2909708,11247.2909708,old_fruit_22.png,247,1.0,1.4305534000013722,,,084,11,2025-07-18_15h30.14.945,Surprise recog test,2023.1.3,59.95160706244881,
247,0,247,0,,,,,,,,,,,,,,,,,,,,,,,,,,,,,,,,,,11251.793979999995,11252.811616600004,11249.743292099993,11249.743292099993,11249.743292099993,11249.743292099993,new_sceneOut_48.png,248,5.0,2.052946499999962,,,084,11,2025-07-18_15h30.14.945,Surprise recog test,2023.1.3,59.95160706244881,
248,0,248,0,,,,,,,,,,,,,,,,,,,,,,,,,,,,,,,,,,11254.852137499991,11255.880400000002,11252.811616600004,11252.811616600004,11252.811616600004,11252.811616600004,new_sceneOut_2.png,249,2.0,2.042492399996263,,,084,11,2025-07-18_15h30.14.945,Surprise recog test,2023.1.3,59.95160706244881,
249,0,249,0,,,,,,,,,,,,,,,,,,,,,,,,,,,,,,,,,,11258.632006499996,11259.647193499994,11255.880400000002,11255.880400000002,11255.880400000002,11255.880400000002,new_stationery_36.png,250,5.0,2.7494235999911325,,,084,11,2025-07-18_15h30.14.945,Surprise recog test,2023.1.3,59.95160706244881,
250,0,250,0,,,,,,,,,,,,,,,,,,,,,,,,,,,,,,,,,,11261.257560999999,11262.273642499997,11259.647193499994,11259.647193499994,11259.647193499994,11259.647193499994,new_sceneIn_42.png,251,5.0,1.6117461999965599,,,084,11,2025-07-18_15h30.14.945,Surprise recog test,2023.1.3,59.95160706244881,
251,0,251,0,,,,,,,,,,,,,,,,,,,,,,,,,,,,,,,,,,11264.147902799996,11265.160335100001,11262.273642499997,11262.273642499997,11262.273642499997,11262.273642499997,old_sceneOut_8.png,252,5.0,1.8712139999988722,,,084,11,2025-07-18_15h30.14.945,Surprise recog test,2023.1.3,59.95160706244881,
252,0,252,0,,,,,,,,,,,,,,,,,,,,,,,,,,,,,,,,,,11267.02402959999,,11265.160335100001,11265.160335100001,11265.160335100001,11265.160335100001,old_sceneIn_27.png,253,5.0,1.8595096000062767,,,084,11,2025-07-18_15h30.14.945,Surprise recog test,2023.1.3,59.95160706244881,
253,0,253,0,,,,,,,,,,,,,,,,,,,,,,,,,,,,,,,,,,11272.242416899993,11273.24741779999,11268.054805400003,11268.054805400003,11268.054805400003,11268.054805400003,new_stationery_43.png,254,3.0,4.18878009999753,,,084,11,2025-07-18_15h30.14.945,Surprise recog test,2023.1.3,59.95160706244881,
254,0,254,0,,,,,,,,,,,,,,,,,,,,,,,,,,,,,,,,,,11274.608121299992,11275.618838899994,11273.24741779999,11273.24741779999,11273.24741779999,11273.24741779999,old_sceneIn_33.png,255,5.0,1.356463399992208,,,084,11,2025-07-18_15h30.14.945,Surprise recog test,2023.1.3,59.95160706244881,
255,0,255,0,,,,,,,,,,,,,,,,,,,,,,,,,,,,,,,,,,11276.907017099998,11277.934898500003,11275.618838899994,11275.618838899994,11275.618838899994,11275.618838899994,old_sceneIn_19.png,256,5.0,1.2842074000072898,,,084,11,2025-07-18_15h30.14.945,Surprise recog test,2023.1.3,59.95160706244881,
256,0,256,0,,,,,,,,,,,,,,,,,,,,,,,,,,,,,,,,,,11280.471766499999,11281.502052000003,11277.934898500003,11277.934898500003,11277.934898500003,11277.934898500003,old_fruit_46.png,257,4.0,2.5393000000040047,,,084,11,2025-07-18_15h30.14.945,Surprise recog test,2023.1.3,59.95160706244881,
257,0,257,0,,,,,,,,,,,,,,,,,,,,,,,,,,,,,,,,,,11282.769831499994,,11281.502052000003,11281.502052000003,11281.502052000003,11281.502052000003,new_sceneOut_5.png,258,4.0,1.267368400003761,,,084,11,2025-07-18_15h30.14.945,Surprise recog test,2023.1.3,59.95160706244881,
258,0,258,0,,,,,,,,,,,,,,,,,,,,,,,,,,,,,,,,,,11286.800103099995,11287.821706199997,11283.804084099997,11283.804084099997,11283.804084099997,11283.804084099997,old_fruit_48.png,259,3.0,2.9979051999980584,,,084,11,2025-07-18_15h30.14.945,Surprise recog test,2023.1.3,59.95160706244881,
259,0,259,0,,,,,,,,,,,,,,,,,,,,,,,,,,,,,,,,,,11290.912736199993,11291.933469000003,11287.821706199997,11287.821706199997,11287.821706199997,11287.821706199997,new_fruit_20.png,260,3.0,3.092961500005913,,,084,11,2025-07-18_15h30.14.945,Surprise recog test,2023.1.3,59.95160706244881,
260,0,260,0,,,,,,,,,,,,,,,,,,,,,,,,,,,,,,,,,,11293.79380739999,11294.810862799997,11291.933469000003,11291.933469000003,11291.933469000003,11291.933469000003,old_stationery_38.png,261,1.0,1.8494104999990668,,,084,11,2025-07-18_15h30.14.945,Surprise recog test,2023.1.3,59.95160706244881,
261,0,261,0,,,,,,,,,,,,,,,,,,,,,,,,,,,,,,,,,,11296.225161699993,11297.242469800003,11294.810862799997,11294.810862799997,11294.810862799997,11294.810862799997,old_sceneOut_25.png,262,1.0,1.412921400013147,,,084,11,2025-07-18_15h30.14.945,Surprise recog test,2023.1.3,59.95160706244881,
262,0,262,0,,,,,,,,,,,,,,,,,,,,,,,,,,,,,,,,,,11298.640285199996,11299.667347000002,11297.242469800003,11297.242469800003,11297.242469800003,11297.242469800003,old_sceneIn_47.png,263,5.0,1.3972123999992618,,,084,11,2025-07-18_15h30.14.945,Surprise recog test,2023.1.3,59.95160706244881,
263,0,263,0,,,,,,,,,,,,,,,,,,,,,,,,,,,,,,,,,,11300.756036400002,11301.782739499999,11299.667347000002,11299.667347000002,11299.667347000002,11299.667347000002,new_sceneOut_13.png,264,5.0,1.0899697999993805,,,084,11,2025-07-18_15h30.14.945,Surprise recog test,2023.1.3,59.95160706244881,
264,0,264,0,,,,,,,,,,,,,,,,,,,,,,,,,,,,,,,,,,11304.3974256,11305.424107299994,11301.782739499999,11301.782739499999,11301.782739499999,11301.782739499999,new_fruit_27.png,265,1.0,2.617641700009699,,,084,11,2025-07-18_15h30.14.945,Surprise recog test,2023.1.3,59.95160706244881,
265,0,265,0,,,,,,,,,,,,,,,,,,,,,,,,,,,,,,,,,,11306.605873,11307.623726999991,11305.424107299994,11305.424107299994,11305.424107299994,11305.424107299994,new_sceneIn_29.png,266,5.0,1.181793600000674,,,084,11,2025-07-18_15h30.14.945,Surprise recog test,2023.1.3,59.95160706244881,
266,0,266,0,,,,,,,,,,,,,,,,,,,,,,,,,,,,,,,,,,11308.4118772,11309.440304299998,11307.623726999991,11307.623726999991,11307.623726999991,11307.623726999991,old_sceneIn_46.png,267,5.0,0.7894242000038503,,,084,11,2025-07-18_15h30.14.945,Surprise recog test,2023.1.3,59.95160706244881,
267,0,267,0,,,,,,,,,,,,,,,,,,,,,,,,,,,,,,,,,,11310.2403061,11311.252011800003,11309.440304299998,11309.440304299998,11309.440304299998,11309.440304299998,old_sceneIn_5.png,268,5.0,0.7999855000089156,,,084,11,2025-07-18_15h30.14.945,Surprise recog test,2023.1.3,59.95160706244881,
268,0,268,0,,,,,,,,,,,,,,,,,,,,,,,,,,,,,,,,,,11314.40197079999,11315.4289221,11311.252011800003,11311.252011800003,11311.252011800003,11311.252011800003,old_sceneOut_37.png,269,4.0,3.147626099991612,,,084,11,2025-07-18_15h30.14.945,Surprise recog test,2023.1.3,59.95160706244881,
269,0,269,0,,,,,,,,,,,,,,,,,,,,,,,,,,,,,,,,,,11317.196453399993,11318.211434799996,11315.4289221,11315.4289221,11315.4289221,11315.4289221,old_fruit_3.png,270,3.0,1.7638777999964077,,,084,11,2025-07-18_15h30.14.945,Surprise recog test,2023.1.3,59.95160706244881,
270,0,270,0,,,,,,,,,,,,,,,,,,,,,,,,,,,,,,,,,,11319.948364699994,11320.969220299994,11318.211434799996,11318.211434799996,11318.211434799996,11318.211434799996,new_stationery_26.png,271,5.0,1.7375820000015665,,,084,11,2025-07-18_15h30.14.945,Surprise recog test,2023.1.3,59.95160706244881,
271,0,271,0,,,,,,,,,,,,,,,,,,,,,,,,,,,,,,,,,,11322.167493399997,11323.184927200004,11320.969220299994,11320.969220299994,11320.969220299994,11320.969220299994,old_sceneIn_21.png,272,5.0,1.2004939000034938,,,084,11,2025-07-18_15h30.14.945,Surprise recog test,2023.1.3,59.95160706244881,
272,0,272,0,,,,,,,,,,,,,,,,,,,,,,,,,,,,,,,,,,11324.549792400001,11325.574831400001,11323.184927200004,11323.184927200004,11323.184927200004,11323.184927200004,old_stationery_3.png,273,1.0,1.3661653000017395,,,084,11,2025-07-18_15h30.14.945,Surprise recog test,2023.1.3,59.95160706244881,
273,0,273,0,,,,,,,,,,,,,,,,,,,,,,,,,,,,,,,,,,11326.971380399998,11327.992283099993,11325.574831400001,11325.574831400001,11325.574831400001,11325.574831400001,old_sceneIn_23.png,274,5.0,1.3933618000010028,,,084,11,2025-07-18_15h30.14.945,Surprise recog test,2023.1.3,59.95160706244881,
274,0,274,0,,,,,,,,,,,,,,,,,,,,,,,,,,,,,,,,,,11329.640785399992,11330.664972699997,11327.992283099993,11327.992283099993,11327.992283099993,11327.992283099993,old_sceneOut_4.png,275,5.0,1.6502175999921747,,,084,11,2025-07-18_15h30.14.945,Surprise recog test,2023.1.3,59.95160706244881,
275,0,275,0,,,,,,,,,,,,,,,,,,,,,,,,,,,,,,,,,,11333.638444399992,11334.653583300002,11330.664972699997,11330.664972699997,11330.664972699997,11330.664972699997,old_sceneOut_44.png,276,2.0,2.97687230000156,,,084,11,2025-07-18_15h30.14.945,Surprise recog test,2023.1.3,59.95160706244881,
276,0,276,0,,,,,,,,,,,,,,,,,,,,,,,,,,,,,,,,,,11336.863527000001,11337.883838699992,11334.653583300002,11334.653583300002,11334.653583300002,11334.653583300002,old_fruit_17.png,277,1.0,2.2045429999998305,,,084,11,2025-07-18_15h30.14.945,Surprise recog test,2023.1.3,59.95160706244881,
277,0,277,0,,,,,,,,,,,,,,,,,,,,,,,,,,,,,,,,,,11341.36108309999,11342.385214200003,11337.883838699992,11337.883838699992,11337.883838699992,11337.883838699992,new_sceneIn_18.png,278,4.0,3.4788839999964694,,,084,11,2025-07-18_15h30.14.945,Surprise recog test,2023.1.3,59.95160706244881,
278,0,278,0,,,,,,,,,,,,,,,,,,,,,,,,,,,,,,,,,,11343.942778499993,11344.97332849999,11342.385214200003,11342.385214200003,11342.385214200003,11342.385214200003,new_fruit_45.png,279,3.0,1.5579040000011446,,,084,11,2025-07-18_15h30.14.945,Surprise recog test,2023.1.3,59.95160706244881,
279,0,279,0,,,,,,,,,,,,,,,,,,,,,,,,,,,,,,,,,,11346.408162799991,,11344.97332849999,11344.97332849999,11344.97332849999,11344.97332849999,old_sceneIn_15.png,280,5.0,1.4375130999978865,,,084,11,2025-07-18_15h30.14.945,Surprise recog test,2023.1.3,59.95160706244881,
280,0,280,0,,,,,,,,,,,,,,,,,,,,,,,,,,,,,,,,,,11350.292878100001,,11347.4405644,11347.4405644,11347.4405644,11347.4405644,new_stationery_49.png,281,2.0,2.8546887000120478,,,084,11,2025-07-18_15h30.14.945,Surprise recog test,2023.1.3,59.95160706244881,
281,0,281,0,,,,,,,,,,,,,,,,,,,,,,,,,,,,,,,,,,11353.13842509999,11354.166001500002,11351.327285799991,11351.327285799991,11351.327285799991,11351.327285799991,old_fruit_50.png,282,2.0,1.8111242999875685,,,084,11,2025-07-18_15h30.14.945,Surprise recog test,2023.1.3,59.95160706244881,
282,0,282,0,,,,,,,,,,,,,,,,,,,,,,,,,,,,,,,,,,11356.205655899998,11357.2311922,11354.166001500002,11354.166001500002,11354.166001500002,11354.166001500002,old_sceneOut_38.png,283,3.0,2.041237600002205,,,084,11,2025-07-18_15h30.14.945,Surprise recog test,2023.1.3,59.95160706244881,
283,0,283,0,,,,,,,,,,,,,,,,,,,,,,,,,,,,,,,,,,11360.077684900003,11361.100300600003,11357.2311922,11357.2311922,11357.2311922,11357.2311922,old_sceneOut_23.png,284,4.0,2.8465511000104016,,,084,11,2025-07-18_15h30.14.945,Surprise recog test,2023.1.3,59.95160706244881,
284,0,284,0,,,,,,,,,,,,,,,,,,,,,,,,,,,,,,,,,,11362.616637299994,11363.633301000002,11361.100300600003,11361.100300600003,11361.100300600003,11361.100300600003,new_stationery_50.png,285,5.0,1.5194675999955507,,,084,11,2025-07-18_15h30.14.945,Surprise recog test,2023.1.3,59.95160706244881,
285,0,285,0,,,,,,,,,,,,,,,,,,,,,,,,,,,,,,,,,,11366.766783499996,11367.77952969999,11363.633301000002,11363.633301000002,11363.633301000002,11363.633301000002,new_fruit_7.png,286,4.0,3.1345740999968257,,,084,11,2025-07-18_15h30.14.945,Surprise recog test,2023.1.3,59.95160706244881,
286,0,286,0,,,,,,,,,,,,,,,,,,,,,,,,,,,,,,,,,,11369.09016819999,11370.109666199998,11367.77952969999,11367.77952969999,11367.77952969999,11367.77952969999,old_sceneIn_43.png,287,5.0,1.306396300002234,,,084,11,2025-07-18_15h30.14.945,Surprise recog test,2023.1.3,59.95160706244881,
287,0,287,0,,,,,,,,,,,,,,,,,,,,,,,,,,,,,,,,,,11373.151963399992,11374.179123899994,11370.109666199998,11370.109666199998,11370.109666199998,11370.109666199998,old_sceneIn_39.png,288,2.0,3.0419803999975557,,,084,11,2025-07-18_15h30.14.945,Surprise recog test,2023.1.3,59.95160706244881,
288,0,288,0,,,,,,,,,,,,,,,,,,,,,,,,,,,,,,,,,,11375.955689699993,11376.979263099995,11374.179123899994,11374.179123899994,11374.179123899994,11374.179123899994,new_fruit_30.png,289,4.0,1.7785788000037428,,,084,11,2025-07-18_15h30.14.945,Surprise recog test,2023.1.3,59.95160706244881,
289,0,289,0,,,,,,,,,,,,,,,,,,,,,,,,,,,,,,,,,,11378.197727400002,11379.217709199998,11376.979263099995,11376.979263099995,11376.979263099995,11376.979263099995,old_stationery_48.png,290,1.0,1.2203911999968113,,,084,11,2025-07-18_15h30.14.945,Surprise recog test,2023.1.3,59.95160706244881,
290,0,290,0,,,,,,,,,,,,,,,,,,,,,,,,,,,,,,,,,,11381.068775400003,,11379.217709199998,11379.217709199998,11379.217709199998,11379.217709199998,new_sceneIn_22.png,291,5.0,1.8514968999952544,,,084,11,2025-07-18_15h30.14.945,Surprise recog test,2023.1.3,59.95160706244881,
291,0,291,0,,,,,,,,,,,,,,,,,,,,,,,,,,,,,,,,,,11383.328867600001,11384.355418999992,11382.090812100003,11382.090812100003,11382.090812100003,11382.090812100003,new_sceneOut_25.png,292,5.0,1.2307822000002488,,,084,11,2025-07-18_15h30.14.945,Surprise recog test,2023.1.3,59.95160706244881,
292,0,292,0,,,,,,,,,,,,,,,,,,,,,,,,,,,,,,,,,,11385.6204583,11386.64028439999,11384.355418999992,11384.355418999992,11384.355418999992,11384.355418999992,new_fruit_9.png,293,2.0,1.2671947000053478,,,084,11,2025-07-18_15h30.14.945,Surprise recog test,2023.1.3,59.95160706244881,
293,0,293,0,,,,,,,,,,,,,,,,,,,,,,,,,,,,,,,,,,11389.375223999996,,11386.64028439999,11386.64028439999,11386.64028439999,11386.64028439999,new_stationery_46.png,294,5.0,2.73722799999814,,,084,11,2025-07-18_15h30.14.945,Surprise recog test,2023.1.3,59.95160706244881,
294,0,294,0,,,,,,,,,,,,,,,,,,,,,,,,,,,,,,,,,,11391.665473499997,11392.682125999992,11390.405459499998,11390.405459499998,11390.405459499998,11390.405459499998,old_fruit_18.png,295,1.0,1.2576119000004837,,,084,11,2025-07-18_15h30.14.945,Surprise recog test,2023.1.3,59.95160706244881,
295,0,295,0,,,,,,,,,,,,,,,,,,,,,,,,,,,,,,,,,,11394.786391299996,11395.816067899992,11392.682125999992,11392.682125999992,11392.682125999992,11392.682125999992,old_sceneIn_17.png,296,4.0,2.099503799996455,,,084,11,2025-07-18_15h30.14.945,Surprise recog test,2023.1.3,59.95160706244881,
296,0,296,0,,,,,,,,,,,,,,,,,,,,,,,,,,,,,,,,,,11397.137154999997,11398.1652253,11395.816067899992,11395.816067899992,11395.816067899992,11395.816067899992,new_fruit_2.png,297,1.0,1.32365980000759,,,084,11,2025-07-18_15h30.14.945,Surprise recog test,2023.1.3,59.95160706244881,
297,0,297,0,,,,,,,,,,,,,,,,,,,,,,,,,,,,,,,,,,11399.93698369999,11400.968795,11398.1652253,11398.1652253,11398.1652253,11398.1652253,old_sceneIn_40.png,298,5.0,1.7712903000065126,,,084,11,2025-07-18_15h30.14.945,Surprise recog test,2023.1.3,59.95160706244881,
298,0,298,0,,,,,,,,,,,,,,,,,,,,,,,,,,,,,,,,,,11402.268496199998,11403.289599499993,11400.968795,11400.968795,11400.968795,11400.968795,old_stationery_26.png,299,1.0,1.3019396000017878,,,084,11,2025-07-18_15h30.14.945,Surprise recog test,2023.1.3,59.95160706244881,
299,0,299,0,,,,,,,,,,,,,,,,,,,,,,,,,,,,,,,,,,11404.119885300002,11405.140350399997,11403.289599499993,11403.289599499993,11403.289599499993,11403.289599499993,new_fruit_8.png,300,1.0,0.8322325999906752,,,084,11,2025-07-18_15h30.14.945,Surprise recog test,2023.1.3,59.95160706244881,
300,0,300,0,,,,,,,,,,,,,,,,,,,,,,,,,,,,,,,,,,11406.661449999992,11407.68013429999,11405.140350399997,11405.140350399997,11405.140350399997,11405.140350399997,old_sceneOut_35.png,301,2.0,1.524110099999234,,,084,11,2025-07-18_15h30.14.945,Surprise recog test,2023.1.3,59.95160706244881,
301,0,301,0,,,,,,,,,,,,,,,,,,,,,,,,,,,,,,,,,,11408.855812999995,11409.877286800001,11407.68013429999,11407.68013429999,11407.68013429999,11407.68013429999,new_fruit_5.png,302,2.0,1.1719257999939146,,,084,11,2025-07-18_15h30.14.945,Surprise recog test,2023.1.3,59.95160706244881,
302,0,302,0,,,,,,,,,,,,,,,,,,,,,,,,,,,,,,,,,,11411.566534299993,11412.593097099998,11409.877286800001,11409.877286800001,11409.877286800001,11409.877286800001,old_sceneIn_3.png,303,3.0,1.689959800001816,,,084,11,2025-07-18_15h30.14.945,Surprise recog test,2023.1.3,59.95160706244881,
303,0,303,0,,,,,,,,,,,,,,,,,,,,,,,,,,,,,,,,,,11414.2264487,11415.243510699998,11412.593097099998,11412.593097099998,11412.593097099998,11412.593097099998,old_sceneIn_25.png,304,5.0,1.632921800002805,,,084,11,2025-07-18_15h30.14.945,Surprise recog test,2023.1.3,59.95160706244881,
304,0,304,0,,,,,,,,,,,,,,,,,,,,,,,,,,,,,,,,,,11416.600510099997,11417.619894700001,11415.243510699998,11415.243510699998,11415.243510699998,11415.243510699998,old_stationery_50.png,305,1.0,1.3570974000031129,,,084,11,2025-07-18_15h30.14.945,Surprise recog test,2023.1.3,59.95160706244881,
305,0,305,0,,,,,,,,,,,,,,,,,,,,,,,,,,,,,,,,,,11420.734996899999,,11417.619894700001,11417.619894700001,11417.619894700001,11417.619894700001,new_sceneIn_5.png,306,3.0,3.1101857000030577,,,084,11,2025-07-18_15h30.14.945,Surprise recog test,2023.1.3,59.95160706244881,
306,0,306,0,,,,,,,,,,,,,,,,,,,,,,,,,,,,,,,,,,11423.646994599992,11424.664741099994,11421.761437100002,11421.761437100002,11421.761437100002,11421.761437100002,new_sceneOut_29.png,307,4.0,1.8845855999970809,,,084,11,2025-07-18_15h30.14.945,Surprise recog test,2023.1.3,59.95160706244881,
307,0,307,0,,,,,,,,,,,,,,,,,,,,,,,,,,,,,,,,,,11426.440654700004,,11424.664741099994,11424.664741099994,11424.664741099994,11424.664741099994,old_stationery_32.png,308,1.0,1.7744977999973344,,,084,11,2025-07-18_15h30.14.945,Surprise recog test,2023.1.3,59.95160706244881,
308,0,308,0,,,,,,,,,,,,,,,,,,,,,,,,,,,,,,,,,,11429.741946499991,,11427.472510799991,11427.472510799991,11427.472510799991,11427.472510799991,old_sceneOut_3.png,309,2.0,2.271294299993315,,,084,11,2025-07-18_15h30.14.945,Surprise recog test,2023.1.3,59.95160706244881,
309,0,309,0,,,,,,,,,,,,,,,,,,,,,,,,,,,,,,,,,,11432.423186599997,11433.442606499993,11430.776227899994,11430.776227899994,11430.776227899994,11430.776227899994,new_sceneOut_39.png,310,4.0,1.6486785000015516,,,084,11,2025-07-18_15h30.14.945,Surprise recog test,2023.1.3,59.95160706244881,
310,0,310,0,,,,,,,,,,,,,,,,,,,,,,,,,,,,,,,,,,11434.6074076,11435.63095839999,11433.442606499993,11433.442606499993,11433.442606499993,11433.442606499993,new_sceneIn_43.png,311,5.0,1.1632351000007475,,,084,11,2025-07-18_15h30.14.945,Surprise recog test,2023.1.3,59.95160706244881,
311,0,311,0,,,,,,,,,,,,,,,,,,,,,,,,,,,,,,,,,,11436.419965100002,11437.449293099991,11435.63095839999,11435.63095839999,11435.63095839999,11435.63095839999,old_sceneIn_16.png,312,5.0,0.7887363999907393,,,084,11,2025-07-18_15h30.14.945,Surprise recog test,2023.1.3,59.95160706244881,
312,0,312,0,,,,,,,,,,,,,,,,,,,,,,,,,,,,,,,,,,11438.427367699995,11439.43962289999,11437.449293099991,11437.449293099991,11437.449293099991,11437.449293099991,new_sceneIn_15.png,313,5.0,0.9801909999951022,,,084,11,2025-07-18_15h30.14.945,Surprise recog test,2023.1.3,59.95160706244881,
313,0,313,0,,,,,,,,,,,,,,,,,,,,,,,,,,,,,,,,,,11441.022342599994,11442.0483073,11439.43962289999,11439.43962289999,11439.43962289999,11439.43962289999,old_stationery_37.png,314,1.0,1.5799159000016516,,,084,11,2025-07-18_15h30.14.945,Surprise recog test,2023.1.3,59.95160706244881,
314,0,314,0,,,,,,,,,,,,,,,,,,,,,,,,,,,,,,,,,,11445.765389999993,11446.775837699992,11442.0483073,11442.0483073,11442.0483073,11442.0483073,new_sceneOut_37.png,315,4.0,3.7180172999942442,,,084,11,2025-07-18_15h30.14.945,Surprise recog test,2023.1.3,59.95160706244881,
315,0,315,0,,,,,,,,,,,,,,,,,,,,,,,,,,,,,,,,,,11448.469592999994,11449.493662200002,11446.775837699992,11446.775837699992,11446.775837699992,11446.775837699992,old_sceneOut_26.png,316,3.0,1.6904056000057608,,,084,11,2025-07-18_15h30.14.945,Surprise recog test,2023.1.3,59.95160706244881,
316,0,316,0,,,,,,,,,,,,,,,,,,,,,,,,,,,,,,,,,,11451.074217299996,11452.094514199991,11449.493662200002,11449.493662200002,11449.493662200002,11449.493662200002,new_fruit_23.png,317,2.0,1.5830621999921277,,,084,11,2025-07-18_15h30.14.945,Surprise recog test,2023.1.3,59.95160706244881,
317,0,317,0,,,,,,,,,,,,,,,,,,,,,,,,,,,,,,,,,,11454.074920499996,11455.101332500002,11452.094514199991,11452.094514199991,11452.094514199991,11452.094514199991,new_stationery_4.png,318,3.0,1.9821561999997357,,,084,11,2025-07-18_15h30.14.945,Surprise recog test,2023.1.3,59.95160706244881,
318,0,318,0,,,,,,,,,,,,,,,,,,,,,,,,,,,,,,,,,,11456.702288699998,11457.727328300003,11455.101332500002,11455.101332500002,11455.101332500002,11455.101332500002,new_fruit_19.png,319,4.0,1.605500600009691,,,084,11,2025-07-18_15h30.14.945,Surprise recog test,2023.1.3,59.95160706244881,
319,0,319,0,,,,,,,,,,,,,,,,,,,,,,,,,,,,,,,,,,11458.951078699996,,11457.727328300003,11457.727328300003,11457.727328300003,11457.727328300003,new_sceneOut_32.png,320,5.0,1.2246811000077287,,,084,11,2025-07-18_15h30.14.945,Surprise recog test,2023.1.3,59.95160706244881,
320,0,320,0,,,,,,,,,,,,,,,,,,,,,,,,,,,,,,,,,,11461.436269099991,,11459.975589999995,11459.975589999995,11459.975589999995,11459.975589999995,new_fruit_29.png,321,5.0,1.4609005999955116,,,084,11,2025-07-18_15h30.14.945,Surprise recog test,2023.1.3,59.95160706244881,
321,0,321,0,,,,,,,,,,,,,,,,,,,,,,,,,,,,,,,,,,11463.72375659999,11464.755052899993,11462.465852699992,11462.465852699992,11462.465852699992,11462.465852699992,new_stationery_40.png,322,5.0,1.2590962999965996,,,084,11,2025-07-18_15h30.14.945,Surprise recog test,2023.1.3,59.95160706244881,
322,0,322,0,,,,,,,,,,,,,,,,,,,,,,,,,,,,,,,,,,11465.55288299999,11466.57320749999,11464.755052899993,11464.755052899993,11464.755052899993,11464.755052899993,new_sceneIn_33.png,323,5.0,0.797653799992986,,,084,11,2025-07-18_15h30.14.945,Surprise recog test,2023.1.3,59.95160706244881,
323,0,323,0,,,,,,,,,,,,,,,,,,,,,,,,,,,,,,,,,,11468.508383400003,,11466.57320749999,11466.57320749999,11466.57320749999,11466.57320749999,old_sceneOut_7.png,324,4.0,1.937500200001523,,,084,11,2025-07-18_15h30.14.945,Surprise recog test,2023.1.3,59.95160706244881,
324,0,324,0,,,,,,,,,,,,,,,,,,,,,,,,,,,,,,,,,,11472.347306299991,11473.376306400001,11469.542401699997,11469.542401699997,11469.542401699997,11469.542401699997,new_stationery_32.png,325,4.0,2.8080924000096275,,,084,11,2025-07-18_15h30.14.945,Surprise recog test,2023.1.3,59.95160706244881,
325,0,325,0,,,,,,,,,,,,,,,,,,,,,,,,,,,,,,,,,,11475.987765699996,11477.000401799996,11473.376306400001,11473.376306400001,11473.376306400001,11473.376306400001,new_fruit_41.png,326,5.0,2.606582399996114,,,084,11,2025-07-18_15h30.14.945,Surprise recog test,2023.1.3,59.95160706244881,
326,0,326,0,,,,,,,,,,,,,,,,,,,,,,,,,,,,,,,,,,11479.146084300002,11480.171685999994,11477.000401799996,11477.000401799996,11477.000401799996,11477.000401799996,old_sceneOut_22.png,327,2.0,2.1403594000003068,,,084,11,2025-07-18_15h30.14.945,Surprise recog test,2023.1.3,59.95160706244881,
327,0,327,0,,,,,,,,,,,,,,,,,,,,,,,,,,,,,,,,,,11481.80729759999,11482.835876699995,11480.171685999994,11480.171685999994,11480.171685999994,11480.171685999994,new_stationery_21.png,328,5.0,1.6395934000029229,,,084,11,2025-07-18_15h30.14.945,Surprise recog test,2023.1.3,59.95160706244881,
328,0,328,0,,,,,,,,,,,,,,,,,,,,,,,,,,,,,,,,,,11484.598292999995,11485.622165899993,11482.835876699995,11482.835876699995,11482.835876699995,11482.835876699995,old_sceneOut_41.png,329,4.0,1.763516000006348,,,084,11,2025-07-18_15h30.14.945,Surprise recog test,2023.1.3,59.95160706244881,
329,0,329,0,,,,,,,,,,,,,,,,,,,,,,,,,,,,,,,,,,11487.386235999998,11488.40209299999,11485.622165899993,11485.622165899993,11485.622165899993,11485.622165899993,new_stationery_20.png,330,5.0,1.7655444999982137,,,084,11,2025-07-18_15h30.14.945,Surprise recog test,2023.1.3,59.95160706244881,
330,0,330,0,,,,,,,,,,,,,,,,,,,,,,,,,,,,,,,,,,11490.198328699997,11491.22815969999,11488.40209299999,11488.40209299999,11488.40209299999,11488.40209299999,old_sceneIn_24.png,331,5.0,1.796295000007376,,,084,11,2025-07-18_15h30.14.945,Surprise recog test,2023.1.3,59.95160706244881,
331,0,331,0,,,,,,,,,,,,,,,,,,,,,,,,,,,,,,,,,,11493.712575299993,,11491.22815969999,11491.22815969999,11491.22815969999,11491.22815969999,old_fruit_5.png,332,1.0,2.4852429000020493,,,084,11,2025-07-18_15h30.14.945,Surprise recog test,2023.1.3,59.95160706244881,
332,0,332,0,,,,,,,,,,,,,,,,,,,,,,,,,,,,,,,,,,11497.414175099992,11498.42049479999,11494.747000700001,11494.747000700001,11494.747000700001,11494.747000700001,old_sceneOut_30.png,333,2.0,2.669909500007634,,,084,11,2025-07-18_15h30.14.945,Surprise recog test,2023.1.3,59.95160706244881,
333,0,333,0,,,,,,,,,,,,,,,,,,,,,,,,,,,,,,,,,,11500.494760399997,11501.517346799992,11498.42049479999,11498.42049479999,11498.42049479999,11498.42049479999,old_stationery_13.png,334,1.0,2.0678450999985216,,,084,11,2025-07-18_15h30.14.945,Surprise recog test,2023.1.3,59.95160706244881,
334,0,334,0,,,,,,,,,,,,,,,,,,,,,,,,,,,,,,,,,,11503.169036500003,11504.187259099992,11501.517346799992,11501.517346799992,11501.517346799992,11501.517346799992,old_sceneIn_8.png,335,5.0,1.653344799997285,,,084,11,2025-07-18_15h30.14.945,Surprise recog test,2023.1.3,59.95160706244881,
335,0,335,0,,,,,,,,,,,,,,,,,,,,,,,,,,,,,,,,,,11505.689291199997,,11504.187259099992,11504.187259099992,11504.187259099992,11504.187259099992,new_sceneOut_38.png,336,5.0,1.50175899999158,,,084,11,2025-07-18_15h30.14.945,Surprise recog test,2023.1.3,59.95160706244881,
336,0,336,0,,,,,,,,,,,,,,,,,,,,,,,,,,,,,,,,,,11507.578758099997,11508.607514700001,11506.7111677,11506.7111677,11506.7111677,11506.7111677,new_sceneIn_17.png,337,5.0,0.8633951000083471,,,084,11,2025-07-18_15h30.14.945,Surprise recog test,2023.1.3,59.95160706244881,
337,0,337,0,,,,,,,,,,,,,,,,,,,,,,,,,,,,,,,,,,11510.675962899993,,11508.607514700001,11508.607514700001,11508.607514700001,11508.607514700001,new_sceneOut_36.png,338,3.0,2.071122200009995,,,084,11,2025-07-18_15h30.14.945,Surprise recog test,2023.1.3,59.95160706244881,
338,0,338,0,,,,,,,,,,,,,,,,,,,,,,,,,,,,,,,,,,11514.425577900001,11515.435132499995,11511.711284199999,11511.711284199999,11511.711284199999,11511.711284199999,old_sceneOut_34.png,339,3.0,2.7134710000100313,,,084,11,2025-07-18_15h30.14.945,Surprise recog test,2023.1.3,59.95160706244881,
339,0,339,0,,,,,,,,,,,,,,,,,,,,,,,,,,,,,,,,,,11516.788309999996,11517.809098299993,11515.435132499995,11515.435132499995,11515.435132499995,11515.435132499995,new_fruit_36.png,340,1.0,1.3492278999910923,,,084,11,2025-07-18_15h30.14.945,Surprise recog test,2023.1.3,59.95160706244881,
340,0,340,0,,,,,,,,,,,,,,,,,,,,,,,,,,,,,,,,,,11519.225630499997,11520.253612299995,11517.809098299993,11517.809098299993,11517.809098299993,11517.809098299993,old_fruit_36.png,341,2.0,1.4169081000000006,,,084,11,2025-07-18_15h30.14.945,Surprise recog test,2023.1.3,59.95160706244881,
341,0,341,0,,,,,,,,,,,,,,,,,,,,,,,,,,,,,,,,,,11522.151385199999,11523.1582538,11520.253612299995,11520.253612299995,11520.253612299995,11520.253612299995,new_sceneIn_8.png,342,5.0,1.9000137999973958,,,084,11,2025-07-18_15h30.14.945,Surprise recog test,2023.1.3,59.95160706244881,
342,0,342,0,,,,,,,,,,,,,,,,,,,,,,,,,,,,,,,,,,11524.713454899997,11525.73953829999,11523.1582538,11523.1582538,11523.1582538,11523.1582538,new_stationery_28.png,343,1.0,1.5478285999997752,,,084,11,2025-07-18_15h30.14.945,Surprise recog test,2023.1.3,59.95160706244881,
343,0,343,0,,,,,,,,,,,,,,,,,,,,,,,,,,,,,,,,,,11527.193328100002,11528.219120200003,11525.73953829999,11525.73953829999,11525.73953829999,11525.73953829999,old_stationery_10.png,344,1.0,1.453739200005657,,,084,11,2025-07-18_15h30.14.945,Surprise recog test,2023.1.3,59.95160706244881,
344,0,344,0,,,,,,,,,,,,,,,,,,,,,,,,,,,,,,,,,,11528.980312599997,11530.01059649999,11528.219120200003,11528.219120200003,11528.219120200003,11528.219120200003,new_stationery_17.png,345,1.0,0.7605317999987165,,,084,11,2025-07-18_15h30.14.945,Surprise recog test,2023.1.3,59.95160706244881,
345,0,345,0,,,,,,,,,,,,,,,,,,,,,,,,,,,,,,,,,,11532.266630999999,11533.288613799996,11530.01059649999,11530.01059649999,11530.01059649999,11530.01059649999,new_stationery_27.png,346,2.0,2.2583424000040395,,,084,11,2025-07-18_15h30.14.945,Surprise recog test,2023.1.3,59.95160706244881,
346,0,346,0,,,,,,,,,,,,,,,,,,,,,,,,,,,,,,,,,,11534.720639500003,11535.7489574,11533.288613799996,11533.288613799996,11533.288613799996,11533.288613799996,old_stationery_44.png,347,1.0,1.431718899999396,,,084,11,2025-07-18_15h30.14.945,Surprise recog test,2023.1.3,59.95160706244881,
347,0,347,0,,,,,,,,,,,,,,,,,,,,,,,,,,,,,,,,,,11537.634931699991,11538.66351739999,11535.7489574,11535.7489574,11535.7489574,11535.7489574,old_sceneOut_46.png,348,4.0,1.889024000003701,,,084,11,2025-07-18_15h30.14.945,Surprise recog test,2023.1.3,59.95160706244881,
348,0,348,0,,,,,,,,,,,,,,,,,,,,,,,,,,,,,,,,,,11539.998062699997,11541.015721099997,11538.66351739999,11538.66351739999,11538.66351739999,11538.66351739999,old_stationery_42.png,349,1.0,1.3288308000046527,,,084,11,2025-07-18_15h30.14.945,Surprise recog test,2023.1.3,59.95160706244881,
349,0,349,0,,,,,,,,,,,,,,,,,,,,,,,,,,,,,,,,,,11542.600545799993,11543.609208499991,11541.015721099997,11541.015721099997,11541.015721099997,11541.015721099997,new_stationery_34.png,350,1.0,1.5852611000009347,,,084,11,2025-07-18_15h30.14.945,Surprise recog test,2023.1.3,59.95160706244881,
350,0,350,0,,,,,,,,,,,,,,,,,,,,,,,,,,,,,,,,,,11544.59157669999,11545.623309900002,11543.609208499991,11543.609208499991,11543.609208499991,11543.609208499991,new_sceneOut_12.png,351,1.0,0.9784469000005629,,,084,11,2025-07-18_15h30.14.945,Surprise recog test,2023.1.3,59.95160706244881,
351,0,351,0,,,,,,,,,,,,,,,,,,,,,,,,,,,,,,,,,,11547.43255179999,11548.458897299999,11545.623309900002,11545.623309900002,11545.623309900002,11545.623309900002,old_fruit_6.png,352,2.0,1.8101763000013307,,,084,11,2025-07-18_15h30.14.945,Surprise recog test,2023.1.3,59.95160706244881,
