trial_loop.thisRepN,trial_loop.thisTrialN,trial_loop.thisN,trial_loop.thisIndex,VAS_slider.started,VAS_text.started,VAS_notstressed_text.started,VAS_stressed_text.started,continue_input.started,continue_text.started,label0.started,label10.started,label20.started,label30.started,label40.started,label50.started,label60.started,label70.started,label80.started,label90.started,label100.started,VAS_slider.response,VAS_slider.rt,VAS_slider.history,Answer_VAS,continue_input.keys,instruction_text.started,continue_text_2.started,continue_input_2.started,continue_input_2.keys,continue_input_2.rt,continue_input_2.duration,example_text.started,example_slider_2.started,example_image.started,example_slider_2.response,example_slider_2.rt,fixcross.started,fixcross.stopped,front_square.started,stim_images.started,trial_inst_images.started,slider_images.started,slider_images.stopped,thisImg,trial_count,slider_images.response,slider_images.rt,outro.started,participant,condition,date,expName,psychopyVersion,frameRate,
,,,,125.07816170016304,125.07816170016304,125.07816170016304,125.07816170016304,125.07816170016304,125.07816170016304,125.07816170016304,125.07816170016304,125.07816170016304,125.07816170016304,125.07816170016304,125.07816170016304,125.07816170016304,125.07816170016304,125.07816170016304,125.07816170016304,125.07816170016304,0.9833333333333333,5.760441400110722,"[(0.9833333333333333, 5.760441400110722)]",0.9833333333333333,None,,,,,,,,,,,,,,,,,,,,,,,,75,00,2025-06-03_16h03.57.921,Surprise recog test,2023.1.3,59.99185303035607,
,,,,,,,,,,,,,,,,,,,,,,,,,,130.87686450011097,130.87686450011097,130.87686450011097,space,65.67495320015587,None,,,,,,,,,,,,,,,,,,75,00,2025-06-03_16h03.57.921,Surprise recog test,2023.1.3,59.99185303035607,
0,0,0,0,,,,,,,,,,,,,,,,,,,,,,,,,,,,,196.6902262000367,196.6902262000367,196.6902262000367,5.0,24.481935400050133,227.09510590019636,222.11599910003133,222.11599910003133,222.11599910003133,222.11599910003133,222.11599910003133,227.08008210011758,new_stationery_33.png,1,None,None,,75,00,2025-06-03_16h03.57.921,Surprise recog test,2023.1.3,59.99185303035607,
1,0,1,0,,,,,,,,,,,,,,,,,,,,,,,,,,,,,,,,,,230.808673000196,231.82153790001757,228.10536130005494,228.10536130005494,228.10536130005494,228.10536130005494,,old_fruit_20.png,2,2.0,2.702764800051227,,75,00,2025-06-03_16h03.57.921,Surprise recog test,2023.1.3,59.99185303035607,
2,0,2,0,,,,,,,,,,,,,,,,,,,,,,,,,,,,,,,,,,234.70149440015666,235.70658870018087,231.82153790001757,231.82153790001757,231.82153790001757,231.82153790001757,,new_stationery_44.png,3,3.0,2.8755751000717282,,75,00,2025-06-03_16h03.57.921,Surprise recog test,2023.1.3,59.99185303035607,
3,0,3,0,,,,,,,,,,,,,,,,,,,,,,,,,,,,,,,,,,237.83752950001508,238.84173159999773,235.70658870018087,235.70658870018087,235.70658870018087,235.70658870018087,,old_sceneOut_38.png,4,4.0,2.1211264000739902,,75,00,2025-06-03_16h03.57.921,Surprise recog test,2023.1.3,59.99185303035607,
4,0,4,0,,,,,,,,,,,,,,,,,,,,,,,,,,,,,,,,,,240.96522110002115,241.9792435001582,238.84173159999773,238.84173159999773,238.84173159999773,238.84173159999773,,old_sceneOut_14.png,5,4.0,2.118870200123638,,75,00,2025-06-03_16h03.57.921,Surprise recog test,2023.1.3,59.99185303035607,
5,0,5,0,,,,,,,,,,,,,,,,,,,,,,,,,,,,,,,,,,243.38194300001487,244.39787890017033,241.9792435001582,241.9792435001582,241.9792435001582,241.9792435001582,,old_sceneIn_38.png,6,4.0,1.396782400086522,,75,00,2025-06-03_16h03.57.921,Surprise recog test,2023.1.3,59.99185303035607,
6,0,6,0,,,,,,,,,,,,,,,,,,,,,,,,,,,,,,,,,,245.96092420001514,246.9671692000702,244.39787890017033,244.39787890017033,244.39787890017033,244.39787890017033,,new_stationery_22.png,7,2.0,1.5573011999949813,,75,00,2025-06-03_16h03.57.921,Surprise recog test,2023.1.3,59.99185303035607,
7,0,7,0,,,,,,,,,,,,,,,,,,,,,,,,,,,,,,,,,,248.30184480012394,249.32138560013846,246.9671692000702,246.9671692000702,246.9671692000702,246.9671692000702,,old_stationery_23.png,8,2.0,1.3309184999670833,,75,00,2025-06-03_16h03.57.921,Surprise recog test,2023.1.3,59.99185303035607,
8,0,8,0,,,,,,,,,,,,,,,,,,,,,,,,,,,,,,,,,,250.66805870016105,,249.32138560013846,249.32138560013846,249.32138560013846,249.32138560013846,,new_sceneOut_6.png,9,2.0,1.3445932001341134,,75,00,2025-06-03_16h03.57.921,Surprise recog test,2023.1.3,59.99185303035607,
9,0,9,0,,,,,,,,,,,,,,,,,,,,,,,,,,,,,,,,,,253.60595950018615,254.62423479999416,251.6911307000555,251.6911307000555,251.6911307000555,251.6911307000555,,new_sceneIn_29.png,10,5.0,1.9142555999569595,,75,00,2025-06-03_16h03.57.921,Surprise recog test,2023.1.3,59.99185303035607,
10,0,10,0,,,,,,,,,,,,,,,,,,,,,,,,,,,,,,,,,,257.28702410007827,258.293059800053,254.62423479999416,254.62423479999416,254.62423479999416,254.62423479999416,,new_stationery_50.png,11,4.0,2.6549720999319106,,75,00,2025-06-03_16h03.57.921,Surprise recog test,2023.1.3,59.99185303035607,
11,0,11,0,,,,,,,,,,,,,,,,,,,,,,,,,,,,,,,,,,259.4888192000799,260.4956961001735,258.293059800053,258.293059800053,258.293059800053,258.293059800053,,new_stationery_40.png,12,4.0,1.1916247999761254,,75,00,2025-06-03_16h03.57.921,Surprise recog test,2023.1.3,59.99185303035607,
12,0,12,0,,,,,,,,,,,,,,,,,,,,,,,,,,,,,,,,,,261.4260490001179,,260.4956961001735,260.4956961001735,260.4956961001735,260.4956961001735,,new_sceneIn_44.png,13,4.0,0.9273815001361072,,75,00,2025-06-03_16h03.57.921,Surprise recog test,2023.1.3,59.99185303035607,
13,0,13,0,,,,,,,,,,,,,,,,,,,,,,,,,,,,,,,,,,263.9361348000821,264.95027040014975,262.44616030016914,262.44616030016914,262.44616030016914,262.44616030016914,,old_sceneIn_24.png,14,2.0,1.4851097001228482,,75,00,2025-06-03_16h03.57.921,Surprise recog test,2023.1.3,59.99185303035607,
14,0,14,0,,,,,,,,,,,,,,,,,,,,,,,,,,,,,,,,,,267.4891429999843,268.5016148001887,264.95027040014975,264.95027040014975,264.95027040014975,264.95027040014975,,old_stationery_16.png,15,4.0,2.5360477999784052,,75,00,2025-06-03_16h03.57.921,Surprise recog test,2023.1.3,59.99185303035607,
15,0,15,0,,,,,,,,,,,,,,,,,,,,,,,,,,,,,,,,,,270.11429920000955,271.1234287000261,268.5016148001887,268.5016148001887,268.5016148001887,268.5016148001887,,old_sceneOut_11.png,16,2.0,1.6067317000124604,,75,00,2025-06-03_16h03.57.921,Surprise recog test,2023.1.3,59.99185303035607,
16,0,16,0,,,,,,,,,,,,,,,,,,,,,,,,,,,,,,,,,,272.28391690016724,273.29104010015726,271.1234287000261,271.1234287000261,271.1234287000261,271.1234287000261,,old_sceneOut_29.png,17,2.0,1.1580555001273751,,75,00,2025-06-03_16h03.57.921,Surprise recog test,2023.1.3,59.99185303035607,
17,0,17,0,,,,,,,,,,,,,,,,,,,,,,,,,,,,,,,,,,274.57530640019104,275.59094320004806,273.29104010015726,273.29104010015726,273.29104010015726,273.29104010015726,,new_sceneIn_31.png,18,4.0,1.280381300020963,,75,00,2025-06-03_16h03.57.921,Surprise recog test,2023.1.3,59.99185303035607,
18,0,18,0,,,,,,,,,,,,,,,,,,,,,,,,,,,,,,,,,,276.99005580018274,,275.59094320004806,275.59094320004806,275.59094320004806,275.59094320004806,,old_sceneOut_7.png,19,4.0,1.3955957000143826,,75,00,2025-06-03_16h03.57.921,Surprise recog test,2023.1.3,59.99185303035607,
19,0,19,0,,,,,,,,,,,,,,,,,,,,,,,,,,,,,,,,,,279.1922872001305,,278.00916560017504,278.00916560017504,278.00916560017504,278.00916560017504,,old_stationery_3.png,20,4.0,1.1788830000441521,,75,00,2025-06-03_16h03.57.921,Surprise recog test,2023.1.3,59.99185303035607,
20,0,20,0,,,,,,,,,,,,,,,,,,,,,,,,,,,,,,,,,,281.8241709000431,282.8317104000598,280.2103300001472,280.2103300001472,280.2103300001472,280.2103300001472,,new_sceneOut_47.png,21,3.0,1.607299500145018,,75,00,2025-06-03_16h03.57.921,Surprise recog test,2023.1.3,59.99185303035607,
21,0,21,0,,,,,,,,,,,,,,,,,,,,,,,,,,,,,,,,,,284.88397980015725,285.9007780000102,282.8317104000598,282.8317104000598,282.8317104000598,282.8317104000598,,old_sceneIn_17.png,22,2.0,2.0483613000251353,,75,00,2025-06-03_16h03.57.921,Surprise recog test,2023.1.3,59.99185303035607,
22,0,22,0,,,,,,,,,,,,,,,,,,,,,,,,,,,,,,,,,,287.46899650013074,288.48474980005994,285.9007780000102,285.9007780000102,285.9007780000102,285.9007780000102,,old_sceneIn_33.png,23,2.0,1.5630057998932898,,75,00,2025-06-03_16h03.57.921,Surprise recog test,2023.1.3,59.99185303035607,
23,0,23,0,,,,,,,,,,,,,,,,,,,,,,,,,,,,,,,,,,290.08455580007285,,288.48474980005994,288.48474980005994,288.48474980005994,288.48474980005994,,new_sceneIn_45.png,24,4.0,1.5966364000923932,,75,00,2025-06-03_16h03.57.921,Surprise recog test,2023.1.3,59.99185303035607,
24,0,24,0,,,,,,,,,,,,,,,,,,,,,,,,,,,,,,,,,,292.4666303000413,293.4723654000554,291.1033348001074,291.1033348001074,291.1033348001074,291.1033348001074,,new_fruit_34.png,25,2.0,1.3557557000312954,,75,00,2025-06-03_16h03.57.921,Surprise recog test,2023.1.3,59.99185303035607,
25,0,25,0,,,,,,,,,,,,,,,,,,,,,,,,,,,,,,,,,,295.472745800158,,293.4723654000554,293.4723654000554,293.4723654000554,293.4723654000554,,new_sceneOut_11.png,26,4.0,1.995446799788624,,75,00,2025-06-03_16h03.57.921,Surprise recog test,2023.1.3,59.99185303035607,
26,0,26,0,,,,,,,,,,,,,,,,,,,,,,,,,,,,,,,,,,297.50381360016763,298.51015700004064,296.49171620002016,296.49171620002016,296.49171620002016,296.49171620002016,,old_stationery_7.png,27,4.0,1.0048351001460105,,75,00,2025-06-03_16h03.57.921,Surprise recog test,2023.1.3,59.99185303035607,
27,0,27,0,,,,,,,,,,,,,,,,,,,,,,,,,,,,,,,,,,299.8056462001987,300.81169420015067,298.51015700004064,298.51015700004064,298.51015700004064,298.51015700004064,,new_stationery_3.png,28,4.0,1.288561600027606,,75,00,2025-06-03_16h03.57.921,Surprise recog test,2023.1.3,59.99185303035607,
28,0,28,0,,,,,,,,,,,,,,,,,,,,,,,,,,,,,,,,,,302.2411850001663,303.2472118001897,300.81169420015067,300.81169420015067,300.81169420015067,300.81169420015067,,old_fruit_1.png,29,2.0,1.4227083001751453,,75,00,2025-06-03_16h03.57.921,Surprise recog test,2023.1.3,59.99185303035607,
29,0,29,0,,,,,,,,,,,,,,,,,,,,,,,,,,,,,,,,,,305.64394330000505,306.64873880008236,303.2472118001897,303.2472118001897,303.2472118001897,303.2472118001897,,new_sceneOut_44.png,30,3.0,2.387972499942407,,75,00,2025-06-03_16h03.57.921,Surprise recog test,2023.1.3,59.99185303035607,
30,0,30,0,,,,,,,,,,,,,,,,,,,,,,,,,,,,,,,,,,309.03010990004987,310.0361027000472,306.64873880008236,306.64873880008236,306.64873880008236,306.64873880008236,,new_fruit_32.png,31,3.0,2.375317099969834,,75,00,2025-06-03_16h03.57.921,Surprise recog test,2023.1.3,59.99185303035607,
31,0,31,0,,,,,,,,,,,,,,,,,,,,,,,,,,,,,,,,,,311.60192120005377,,310.0361027000472,310.0361027000472,310.0361027000472,310.0361027000472,,new_sceneIn_10.png,32,4.0,1.5601592999882996,,75,00,2025-06-03_16h03.57.921,Surprise recog test,2023.1.3,59.99185303035607,
32,0,32,0,,,,,,,,,,,,,,,,,,,,,,,,,,,,,,,,,,313.6545047000982,,312.62135580019094,312.62135580019094,312.62135580019094,312.62135580019094,,new_sceneOut_36.png,33,4.0,1.0295407001394778,,75,00,2025-06-03_16h03.57.921,Surprise recog test,2023.1.3,59.99185303035607,
33,0,33,0,,,,,,,,,,,,,,,,,,,,,,,,,,,,,,,,,,316.80765480012633,317.82662450009957,314.675808200147,314.675808200147,314.675808200147,314.675808200147,,old_sceneOut_6.png,34,3.0,2.131172199966386,,75,00,2025-06-03_16h03.57.921,Surprise recog test,2023.1.3,59.99185303035607,
34,0,34,0,,,,,,,,,,,,,,,,,,,,,,,,,,,,,,,,,,319.6101116000209,320.62892350018956,317.82662450009957,317.82662450009957,317.82662450009957,317.82662450009957,,old_sceneIn_39.png,35,4.0,1.7797424998134375,,75,00,2025-06-03_16h03.57.921,Surprise recog test,2023.1.3,59.99185303035607,
35,0,35,0,,,,,,,,,,,,,,,,,,,,,,,,,,,,,,,,,,323.25905090011656,324.2658863000106,320.62892350018956,320.62892350018956,320.62892350018956,320.62892350018956,,new_sceneIn_12.png,36,4.0,2.626034300075844,,75,00,2025-06-03_16h03.57.921,Surprise recog test,2023.1.3,59.99185303035607,
36,0,36,0,,,,,,,,,,,,,,,,,,,,,,,,,,,,,,,,,,325.2325316001661,326.24950420018286,324.2658863000106,324.2658863000106,324.2658863000106,324.2658863000106,,old_sceneOut_47.png,37,4.0,0.9602695000357926,,75,00,2025-06-03_16h03.57.921,Surprise recog test,2023.1.3,59.99185303035607,
37,0,37,0,,,,,,,,,,,,,,,,,,,,,,,,,,,,,,,,,,327.60268530016765,328.6236833999865,326.24950420018286,326.24950420018286,326.24950420018286,326.24950420018286,,new_fruit_18.png,38,2.0,1.348117500077933,,75,00,2025-06-03_16h03.57.921,Surprise recog test,2023.1.3,59.99185303035607,
38,0,38,0,,,,,,,,,,,,,,,,,,,,,,,,,,,,,,,,,,329.8488966000732,330.8566253001336,328.6236833999865,328.6236833999865,328.6236833999865,328.6236833999865,,new_fruit_31.png,39,2.0,1.2224412001669407,,75,00,2025-06-03_16h03.57.921,Surprise recog test,2023.1.3,59.99185303035607,
39,0,39,0,,,,,,,,,,,,,,,,,,,,,,,,,,,,,,,,,,332.64393909997307,333.6578171001747,330.8566253001336,330.8566253001336,330.8566253001336,330.8566253001336,,old_sceneOut_37.png,40,3.0,1.7840462001040578,,75,00,2025-06-03_16h03.57.921,Surprise recog test,2023.1.3,59.99185303035607,
40,0,40,0,,,,,,,,,,,,,,,,,,,,,,,,,,,,,,,,,,334.9737335999962,335.9911651001312,333.6578171001747,333.6578171001747,333.6578171001747,333.6578171001747,,new_stationery_48.png,41,4.0,1.3146070998627692,,75,00,2025-06-03_16h03.57.921,Surprise recog test,2023.1.3,59.99185303035607,
41,0,41,0,,,,,,,,,,,,,,,,,,,,,,,,,,,,,,,,,,340.45628370018676,341.46036020014435,335.9911651001312,335.9911651001312,335.9911651001312,335.9911651001312,,new_fruit_1.png,42,4.0,4.4563180999830365,,75,00,2025-06-03_16h03.57.921,Surprise recog test,2023.1.3,59.99185303035607,
42,0,42,0,,,,,,,,,,,,,,,,,,,,,,,,,,,,,,,,,,343.4755237000063,344.48161610006355,341.46036020014435,341.46036020014435,341.46036020014435,341.46036020014435,,new_fruit_43.png,43,4.0,2.004460799973458,,75,00,2025-06-03_16h03.57.921,Surprise recog test,2023.1.3,59.99185303035607,
43,0,43,0,,,,,,,,,,,,,,,,,,,,,,,,,,,,,,,,,,346.17759320000187,347.1827979001682,344.48161610006355,344.48161610006355,344.48161610006355,344.48161610006355,,old_sceneOut_20.png,44,3.0,1.687716499902308,,75,00,2025-06-03_16h03.57.921,Surprise recog test,2023.1.3,59.99185303035607,
44,0,44,0,,,,,,,,,,,,,,,,,,,,,,,,,,,,,,,,,,349.8640008000657,350.86860750010237,347.1827979001682,347.1827979001682,347.1827979001682,347.1827979001682,,new_sceneIn_25.png,45,4.0,2.6725188998971134,,75,00,2025-06-03_16h03.57.921,Surprise recog test,2023.1.3,59.99185303035607,
45,0,45,0,,,,,,,,,,,,,,,,,,,,,,,,,,,,,,,,,,352.48299920000136,353.48802220006473,350.86860750010237,350.86860750010237,350.86860750010237,350.86860750010237,,new_sceneOut_9.png,46,3.0,1.6060905000194907,,75,00,2025-06-03_16h03.57.921,Surprise recog test,2023.1.3,59.99185303035607,
46,0,46,0,,,,,,,,,,,,,,,,,,,,,,,,,,,,,,,,,,354.7513166000135,355.7576156000141,353.48802220006473,353.48802220006473,353.48802220006473,353.48802220006473,,new_fruit_23.png,47,2.0,1.2542187999933958,,75,00,2025-06-03_16h03.57.921,Surprise recog test,2023.1.3,59.99185303035607,
47,0,47,0,,,,,,,,,,,,,,,,,,,,,,,,,,,,,,,,,,357.3407843001187,,355.7576156000141,355.7576156000141,355.7576156000141,355.7576156000141,,new_sceneIn_35.png,48,4.0,1.5795115001965314,,75,00,2025-06-03_16h03.57.921,Surprise recog test,2023.1.3,59.99185303035607,
48,0,48,0,,,,,,,,,,,,,,,,,,,,,,,,,,,,,,,,,,360.17706290003844,361.1945382000413,358.3586452000309,358.3586452000309,358.3586452000309,358.3586452000309,,new_stationery_28.png,49,1.0,1.8095066999085248,,75,00,2025-06-03_16h03.57.921,Surprise recog test,2023.1.3,59.99185303035607,
49,0,49,0,,,,,,,,,,,,,,,,,,,,,,,,,,,,,,,,,,363.74228130001575,364.74647550005466,361.1945382000413,361.1945382000413,361.1945382000413,361.1945382000413,,old_sceneOut_42.png,50,3.0,2.5382974999956787,,75,00,2025-06-03_16h03.57.921,Surprise recog test,2023.1.3,59.99185303035607,
50,0,50,0,,,,,,,,,,,,,,,,,,,,,,,,,,,,,,,,,,366.5111775000114,367.51711979997344,364.74647550005466,364.74647550005466,364.74647550005466,364.74647550005466,,old_stationery_28.png,51,3.0,1.7541297001298517,,75,00,2025-06-03_16h03.57.921,Surprise recog test,2023.1.3,59.99185303035607,
51,0,51,0,,,,,,,,,,,,,,,,,,,,,,,,,,,,,,,,,,368.979957500007,369.9853850000072,367.51711979997344,367.51711979997344,367.51711979997344,367.51711979997344,,old_sceneIn_5.png,52,2.0,1.4564152001403272,,75,00,2025-06-03_16h03.57.921,Surprise recog test,2023.1.3,59.99185303035607,
52,0,52,0,,,,,,,,,,,,,,,,,,,,,,,,,,,,,,,,,,372.0824892001692,373.0865823000204,369.9853850000072,369.9853850000072,369.9853850000072,369.9853850000072,,old_sceneIn_27.png,53,4.0,2.0887931000906974,,75,00,2025-06-03_16h03.57.921,Surprise recog test,2023.1.3,59.99185303035607,
53,0,53,0,,,,,,,,,,,,,,,,,,,,,,,,,,,,,,,,,,374.651237500133,375.65708060003817,373.0865823000204,373.0865823000204,373.0865823000204,373.0865823000204,,old_stationery_50.png,54,2.0,1.5541314000729471,,75,00,2025-06-03_16h03.57.921,Surprise recog test,2023.1.3,59.99185303035607,
54,0,54,0,,,,,,,,,,,,,,,,,,,,,,,,,,,,,,,,,,377.0365379001014,378.0420030001551,375.65708060003817,375.65708060003817,375.65708060003817,375.65708060003817,,new_fruit_15.png,55,2.0,1.3691420999821275,,75,00,2025-06-03_16h03.57.921,Surprise recog test,2023.1.3,59.99185303035607,
55,0,55,0,,,,,,,,,,,,,,,,,,,,,,,,,,,,,,,,,,380.02256239997223,381.02764350012876,378.0420030001551,378.0420030001551,378.0420030001551,378.0420030001551,,new_sceneOut_40.png,56,4.0,1.9719793000258505,,75,00,2025-06-03_16h03.57.921,Surprise recog test,2023.1.3,59.99185303035607,
56,0,56,0,,,,,,,,,,,,,,,,,,,,,,,,,,,,,,,,,,382.4577669000719,383.4626023999881,381.02764350012876,381.02764350012876,381.02764350012876,381.02764350012876,,new_stationery_1.png,57,3.0,1.4218057000543922,,75,00,2025-06-03_16h03.57.921,Surprise recog test,2023.1.3,59.99185303035607,
57,0,57,0,,,,,,,,,,,,,,,,,,,,,,,,,,,,,,,,,,385.0933117000386,386.0976907000877,383.4626023999881,383.4626023999881,383.4626023999881,383.4626023999881,,old_sceneIn_48.png,58,4.0,1.6267773997969925,,75,00,2025-06-03_16h03.57.921,Surprise recog test,2023.1.3,59.99185303035607,
58,0,58,0,,,,,,,,,,,,,,,,,,,,,,,,,,,,,,,,,,387.6453863000497,388.65179540007375,386.0976907000877,386.0976907000877,386.0976907000877,386.0976907000877,,new_stationery_38.png,59,3.0,1.5382312000729144,,75,00,2025-06-03_16h03.57.921,Surprise recog test,2023.1.3,59.99185303035607,
59,0,59,0,,,,,,,,,,,,,,,,,,,,,,,,,,,,,,,,,,391.39852970000356,392.40345410001464,388.65179540007375,388.65179540007375,388.65179540007375,388.65179540007375,,new_fruit_4.png,60,2.0,2.739187699975446,,75,00,2025-06-03_16h03.57.921,Surprise recog test,2023.1.3,59.99185303035607,
60,0,60,0,,,,,,,,,,,,,,,,,,,,,,,,,,,,,,,,,,393.18331810017116,394.1879805000499,392.40345410001464,392.40345410001464,392.40345410001464,392.40345410001464,,old_fruit_9.png,61,2.0,0.7717258001212031,,75,00,2025-06-03_16h03.57.921,Surprise recog test,2023.1.3,59.99185303035607,
61,0,61,0,,,,,,,,,,,,,,,,,,,,,,,,,,,,,,,,,,395.65206500003114,396.6569835001137,394.1879805000499,394.1879805000499,394.1879805000499,394.1879805000499,,old_stationery_31.png,62,4.0,1.455113099887967,,75,00,2025-06-03_16h03.57.921,Surprise recog test,2023.1.3,59.99185303035607,
62,0,62,0,,,,,,,,,,,,,,,,,,,,,,,,,,,,,,,,,,398.1218181999866,399.12520270003006,396.6569835001137,396.6569835001137,396.6569835001137,396.6569835001137,,old_fruit_10.png,63,1.0,1.4601711998693645,,75,00,2025-06-03_16h03.57.921,Surprise recog test,2023.1.3,59.99185303035607,
63,0,63,0,,,,,,,,,,,,,,,,,,,,,,,,,,,,,,,,,,401.2400044000242,402.2444737001788,399.12520270003006,399.12520270003006,399.12520270003006,399.12520270003006,,new_sceneOut_32.png,64,3.0,2.1044532998930663,,75,00,2025-06-03_16h03.57.921,Surprise recog test,2023.1.3,59.99185303035607,
64,0,64,0,,,,,,,,,,,,,,,,,,,,,,,,,,,,,,,,,,403.54200490005314,404.5468851001933,402.2444737001788,402.2444737001788,402.2444737001788,402.2444737001788,,old_sceneIn_44.png,65,4.0,1.2874316999223083,,75,00,2025-06-03_16h03.57.921,Surprise recog test,2023.1.3,59.99185303035607,
65,0,65,0,,,,,,,,,,,,,,,,,,,,,,,,,,,,,,,,,,406.0606429001782,407.06609700014815,404.5468851001933,404.5468851001933,404.5468851001933,404.5468851001933,,old_stationery_48.png,66,2.0,1.505150199867785,,75,00,2025-06-03_16h03.57.921,Surprise recog test,2023.1.3,59.99185303035607,
66,0,66,0,,,,,,,,,,,,,,,,,,,,,,,,,,,,,,,,,,408.0156376999803,,407.06609700014815,407.06609700014815,407.06609700014815,407.06609700014815,,new_fruit_9.png,67,2.0,0.9446014999412,,75,00,2025-06-03_16h03.57.921,Surprise recog test,2023.1.3,59.99185303035607,
67,0,67,0,,,,,,,,,,,,,,,,,,,,,,,,,,,,,,,,,,410.4643743999768,411.4688339000568,409.0350177001674,409.0350177001674,409.0350177001674,409.0350177001674,,new_sceneOut_4.png,68,4.0,1.4207657999359071,,75,00,2025-06-03_16h03.57.921,Surprise recog test,2023.1.3,59.99185303035607,
68,0,68,0,,,,,,,,,,,,,,,,,,,,,,,,,,,,,,,,,,412.7328695000615,413.73754720017314,411.4688339000568,411.4688339000568,411.4688339000568,411.4688339000568,,old_sceneOut_24.png,69,3.0,1.2544397998135537,,75,00,2025-06-03_16h03.57.921,Surprise recog test,2023.1.3,59.99185303035607,
69,0,69,0,,,,,,,,,,,,,,,,,,,,,,,,,,,,,,,,,,415.25166369997896,416.25590410013683,413.73754720017314,413.73754720017314,413.73754720017314,413.73754720017314,,new_stationery_30.png,70,3.0,1.5039204000495374,,75,00,2025-06-03_16h03.57.921,Surprise recog test,2023.1.3,59.99185303035607,
70,0,70,0,,,,,,,,,,,,,,,,,,,,,,,,,,,,,,,,,,417.7536872001365,418.7596460999921,416.25590410013683,416.25590410013683,416.25590410013683,416.25590410013683,,new_stationery_34.png,71,4.0,1.4871638999320567,,75,00,2025-06-03_16h03.57.921,Surprise recog test,2023.1.3,59.99185303035607,
71,0,71,0,,,,,,,,,,,,,,,,,,,,,,,,,,,,,,,,,,419.8054216001183,420.80970950005576,418.7596460999921,418.7596460999921,418.7596460999921,418.7596460999921,,new_fruit_40.png,72,4.0,1.0384001000784338,,75,00,2025-06-03_16h03.57.921,Surprise recog test,2023.1.3,59.99185303035607,
72,0,72,0,,,,,,,,,,,,,,,,,,,,,,,,,,,,,,,,,,422.6911497002002,423.69557400001213,420.80970950005576,420.80970950005576,420.80970950005576,420.80970950005576,,old_sceneOut_1.png,73,4.0,1.8716184000950307,,75,00,2025-06-03_16h03.57.921,Surprise recog test,2023.1.3,59.99185303035607,
73,0,73,0,,,,,,,,,,,,,,,,,,,,,,,,,,,,,,,,,,426.04398880014196,427.0491867000237,423.69557400001213,423.69557400001213,423.69557400001213,423.69557400001213,,old_stationery_20.png,74,2.0,2.339125300059095,,75,00,2025-06-03_16h03.57.921,Surprise recog test,2023.1.3,59.99185303035607,
74,0,74,0,,,,,,,,,,,,,,,,,,,,,,,,,,,,,,,,,,428.7628624001518,429.7676045000553,427.0491867000237,427.0491867000237,427.0491867000237,427.0491867000237,,new_sceneOut_28.png,75,3.0,1.7046766998246312,,75,00,2025-06-03_16h03.57.921,Surprise recog test,2023.1.3,59.99185303035607,
75,0,75,0,,,,,,,,,,,,,,,,,,,,,,,,,,,,,,,,,,431.0981393000111,432.1033262000419,429.7676045000553,429.7676045000553,429.7676045000553,429.7676045000553,,new_stationery_39.png,76,4.0,1.3203214998356998,,75,00,2025-06-03_16h03.57.921,Surprise recog test,2023.1.3,59.99185303035607,
76,0,76,0,,,,,,,,,,,,,,,,,,,,,,,,,,,,,,,,,,433.4000605000183,434.40667450008914,432.1033262000419,432.1033262000419,432.1033262000419,432.1033262000419,,old_sceneOut_9.png,77,3.0,1.2899337999988347,,75,00,2025-06-03_16h03.57.921,Surprise recog test,2023.1.3,59.99185303035607,
77,0,77,0,,,,,,,,,,,,,,,,,,,,,,,,,,,,,,,,,,436.0191874001175,437.025814200053,434.40667450008914,434.40667450008914,434.40667450008914,434.40667450008914,,new_sceneIn_11.png,78,4.0,1.604748500045389,,75,00,2025-06-03_16h03.57.921,Surprise recog test,2023.1.3,59.99185303035607,
78,0,78,0,,,,,,,,,,,,,,,,,,,,,,,,,,,,,,,,,,438.40424680011347,439.40834380011074,437.025814200053,437.025814200053,437.025814200053,437.025814200053,,new_sceneIn_43.png,79,4.0,1.3715548000764102,,75,00,2025-06-03_16h03.57.921,Surprise recog test,2023.1.3,59.99185303035607,
79,0,79,0,,,,,,,,,,,,,,,,,,,,,,,,,,,,,,,,,,440.6394476001151,441.6494015001226,439.40834380011074,439.40834380011074,439.40834380011074,439.40834380011074,,old_fruit_8.png,80,2.0,1.2211780999787152,,75,00,2025-06-03_16h03.57.921,Surprise recog test,2023.1.3,59.99185303035607,
80,0,80,0,,,,,,,,,,,,,,,,,,,,,,,,,,,,,,,,,,443.5752473999746,444.58302050014026,441.6494015001226,441.6494015001226,441.6494015001226,441.6494015001226,,old_sceneIn_49.png,81,4.0,1.9202151000499725,,75,00,2025-06-03_16h03.57.921,Surprise recog test,2023.1.3,59.99185303035607,
81,0,81,0,,,,,,,,,,,,,,,,,,,,,,,,,,,,,,,,,,446.72787100006826,447.7330913001206,444.58302050014026,444.58302050014026,444.58302050014026,444.58302050014026,,new_stationery_26.png,82,4.0,2.1380337001755834,,75,00,2025-06-03_16h03.57.921,Surprise recog test,2023.1.3,59.99185303035607,
82,0,82,0,,,,,,,,,,,,,,,,,,,,,,,,,,,,,,,,,,449.2299123001285,450.23535630013794,447.7330913001206,447.7330913001206,447.7330913001206,447.7330913001206,,old_stationery_44.png,83,3.0,1.489945000037551,,75,00,2025-06-03_16h03.57.921,Surprise recog test,2023.1.3,59.99185303035607,
83,0,83,0,,,,,,,,,,,,,,,,,,,,,,,,,,,,,,,,,,455.2588004001882,,450.23535630013794,450.23535630013794,450.23535630013794,450.23535630013794,455.2336573000066,new_fruit_19.png,84,None,None,,75,00,2025-06-03_16h03.57.921,Surprise recog test,2023.1.3,59.99185303035607,
84,0,84,0,,,,,,,,,,,,,,,,,,,,,,,,,,,,,,,,,,458.40417670016177,459.4103108001873,456.2564716001507,456.2564716001507,456.2564716001507,456.2564716001507,,old_stationery_19.png,85,4.0,2.137742300052196,,75,00,2025-06-03_16h03.57.921,Surprise recog test,2023.1.3,59.99185303035607,
85,0,85,0,,,,,,,,,,,,,,,,,,,,,,,,,,,,,,,,,,461.37338460003957,462.37826010002755,459.4103108001873,459.4103108001873,459.4103108001873,459.4103108001873,,new_stationery_41.png,86,2.0,1.958390099927783,,75,00,2025-06-03_16h03.57.921,Surprise recog test,2023.1.3,59.99185303035607,
86,0,86,0,,,,,,,,,,,,,,,,,,,,,,,,,,,,,,,,,,463.64187380019575,464.64688460016623,462.37826010002755,462.37826010002755,462.37826010002755,462.37826010002755,,old_stationery_24.png,87,3.0,1.253832999849692,,75,00,2025-06-03_16h03.57.921,Surprise recog test,2023.1.3,59.99185303035607,
87,0,87,0,,,,,,,,,,,,,,,,,,,,,,,,,,,,,,,,,,465.9104081001133,466.9159391000867,464.64688460016623,464.64688460016623,464.64688460016623,464.64688460016623,,old_sceneIn_23.png,88,4.0,1.2536593000404537,,75,00,2025-06-03_16h03.57.921,Surprise recog test,2023.1.3,59.99185303035607,
88,0,88,0,,,,,,,,,,,,,,,,,,,,,,,,,,,,,,,,,,468.3544921001885,469.3666521999985,466.9159391000867,466.9159391000867,466.9159391000867,466.9159391000867,,old_sceneIn_40.png,89,3.0,1.429566300008446,,75,00,2025-06-03_16h03.57.921,Surprise recog test,2023.1.3,59.99185303035607,
89,0,89,0,,,,,,,,,,,,,,,,,,,,,,,,,,,,,,,,,,470.5834786000196,,469.3666521999985,469.3666521999985,469.3666521999985,469.3666521999985,,old_fruit_17.png,90,2.0,1.2109103999100626,,75,00,2025-06-03_16h03.57.921,Surprise recog test,2023.1.3,59.99185303035607,
90,0,90,0,,,,,,,,,,,,,,,,,,,,,,,,,,,,,,,,,,474.13769400003366,,471.6061042000074,471.6061042000074,471.6061042000074,471.6061042000074,,new_sceneIn_20.png,91,4.0,2.5282919998280704,,75,00,2025-06-03_16h03.57.921,Surprise recog test,2023.1.3,59.99185303035607,
91,0,91,0,,,,,,,,,,,,,,,,,,,,,,,,,,,,,,,,,,476.51949470001273,477.5393189000897,475.1623615999706,475.1623615999706,475.1623615999706,475.1623615999706,,new_fruit_17.png,92,1.0,1.3512315000407398,,75,00,2025-06-03_16h03.57.921,Surprise recog test,2023.1.3,59.99185303035607,
92,0,92,0,,,,,,,,,,,,,,,,,,,,,,,,,,,,,,,,,,478.7057384001091,479.72529490012676,477.5393189000897,477.5393189000897,477.5393189000897,477.5393189000897,,new_fruit_37.png,93,2.0,1.1675572998356074,,75,00,2025-06-03_16h03.57.921,Surprise recog test,2023.1.3,59.99185303035607,
93,0,93,0,,,,,,,,,,,,,,,,,,,,,,,,,,,,,,,,,,481.2121731999796,482.24326220015064,479.72529490012676,479.72529490012676,479.72529490012676,479.72529490012676,,old_stationery_33.png,94,3.0,1.488583100028336,,75,00,2025-06-03_16h03.57.921,Surprise recog test,2023.1.3,59.99185303035607,
94,0,94,0,,,,,,,,,,,,,,,,,,,,,,,,,,,,,,,,,,483.5251943001058,484.54191520018503,482.24326220015064,482.24326220015064,482.24326220015064,482.24326220015064,,old_sceneOut_21.png,95,4.0,1.2809004001319408,,75,00,2025-06-03_16h03.57.921,Surprise recog test,2023.1.3,59.99185303035607,
95,0,95,0,,,,,,,,,,,,,,,,,,,,,,,,,,,,,,,,,,486.41436449997127,,484.54191520018503,484.54191520018503,484.54191520018503,484.54191520018503,,new_sceneIn_34.png,96,1.0,1.873710999963805,,75,00,2025-06-03_16h03.57.921,Surprise recog test,2023.1.3,59.99185303035607,
96,0,96,0,,,,,,,,,,,,,,,,,,,,,,,,,,,,,,,,,,489.38764960016124,490.40264850016683,487.4348608001601,487.4348608001601,487.4348608001601,487.4348608001601,,old_fruit_4.png,97,2.0,1.9490288998931646,,75,00,2025-06-03_16h03.57.921,Surprise recog test,2023.1.3,59.99185303035607,
97,0,97,0,,,,,,,,,,,,,,,,,,,,,,,,,,,,,,,,,,491.88305400009267,492.8865809000563,490.40264850016683,490.40264850016683,490.40264850016683,490.40264850016683,,old_sceneOut_32.png,98,3.0,1.4753750001545995,,75,00,2025-06-03_16h03.57.921,Surprise recog test,2023.1.3,59.99185303035607,
98,0,98,0,,,,,,,,,,,,,,,,,,,,,,,,,,,,,,,,,,494.0004450001288,495.00834310008213,492.8865809000563,492.8865809000563,492.8865809000563,492.8865809000563,,old_fruit_26.png,99,2.0,1.104320100042969,,75,00,2025-06-03_16h03.57.921,Surprise recog test,2023.1.3,59.99185303035607,
99,0,99,0,,,,,,,,,,,,,,,,,,,,,,,,,,,,,,,,,,496.28808129997924,,495.00834310008213,495.00834310008213,495.00834310008213,495.00834310008213,,old_sceneOut_45.png,100,3.0,1.2771909998264164,,75,00,2025-06-03_16h03.57.921,Surprise recog test,2023.1.3,59.99185303035607,
100,0,100,0,,,,,,,,,,,,,,,,,,,,,,,,,,,,,,,,,,498.3540709000081,499.35852450015955,497.3082805001177,497.3082805001177,497.3082805001177,497.3082805001177,,old_stationery_21.png,101,3.0,1.0368287998717278,,75,00,2025-06-03_16h03.57.921,Surprise recog test,2023.1.3,59.99185303035607,
101,0,101,0,,,,,,,,,,,,,,,,,,,,,,,,,,,,,,,,,,501.0896956000943,502.09567770012654,499.35852450015955,499.35852450015955,499.35852450015955,499.35852450015955,,new_sceneIn_6.png,102,4.0,1.721317799994722,,75,00,2025-06-03_16h03.57.921,Surprise recog test,2023.1.3,59.99185303035607,
102,0,102,0,,,,,,,,,,,,,,,,,,,,,,,,,,,,,,,,,,503.25817490019836,504.26332870009355,502.09567770012654,502.09567770012654,502.09567770012654,502.09567770012654,,new_sceneIn_21.png,103,4.0,1.1535602000076324,,75,00,2025-06-03_16h03.57.921,Surprise recog test,2023.1.3,59.99185303035607,
103,0,103,0,,,,,,,,,,,,,,,,,,,,,,,,,,,,,,,,,,505.57677930011414,506.5813721001614,504.26332870009355,504.26332870009355,504.26332870009355,504.26332870009355,,new_fruit_22.png,104,3.0,1.3036217000335455,,75,00,2025-06-03_16h03.57.921,Surprise recog test,2023.1.3,59.99185303035607,
104,0,104,0,,,,,,,,,,,,,,,,,,,,,,,,,,,,,,,,,,507.8786245000083,508.88379200012423,506.5813721001614,506.5813721001614,506.5813721001614,506.5813721001614,,new_fruit_21.png,105,2.0,1.2893238000106066,,75,00,2025-06-03_16h03.57.921,Surprise recog test,2023.1.3,59.99185303035607,
105,0,105,0,,,,,,,,,,,,,,,,,,,,,,,,,,,,,,,,,,510.53875269996934,511.55371460015886,508.88379200012423,508.88379200012423,508.88379200012423,508.88379200012423,,new_fruit_13.png,106,2.0,1.6458081000018865,,75,00,2025-06-03_16h03.57.921,Surprise recog test,2023.1.3,59.99185303035607,
106,0,106,0,,,,,,,,,,,,,,,,,,,,,,,,,,,,,,,,,,512.2491413000971,513.2536090000067,511.55371460015886,511.55371460015886,511.55371460015886,511.55371460015886,,old_fruit_44.png,107,2.0,0.6880620000883937,,75,00,2025-06-03_16h03.57.921,Surprise recog test,2023.1.3,59.99185303035607,
107,0,107,0,,,,,,,,,,,,,,,,,,,,,,,,,,,,,,,,,,514.4342128999997,515.4424085000064,513.2536090000067,513.2536090000067,513.2536090000067,513.2536090000067,,new_sceneOut_7.png,108,3.0,1.1739803000818938,,75,00,2025-06-03_16h03.57.921,Surprise recog test,2023.1.3,59.99185303035607,
108,0,108,0,,,,,,,,,,,,,,,,,,,,,,,,,,,,,,,,,,516.7025817001704,517.7100035001058,515.4424085000064,515.4424085000064,515.4424085000064,515.4424085000064,,new_fruit_14.png,109,2.0,1.2577067001257092,,75,00,2025-06-03_16h03.57.921,Surprise recog test,2023.1.3,59.99185303035607,
109,0,109,0,,,,,,,,,,,,,,,,,,,,,,,,,,,,,,,,,,518.9559236001223,519.9638954000548,517.7100035001058,517.7100035001058,517.7100035001058,517.7100035001058,,new_fruit_27.png,110,2.0,1.2399464000482112,,75,00,2025-06-03_16h03.57.921,Surprise recog test,2023.1.3,59.99185303035607,
110,0,110,0,,,,,,,,,,,,,,,,,,,,,,,,,,,,,,,,,,521.8740528000053,522.8779987001326,519.9638954000548,519.9638954000548,519.9638954000548,519.9638954000548,,new_stationery_43.png,111,3.0,1.9092719999607652,,75,00,2025-06-03_16h03.57.921,Surprise recog test,2023.1.3,59.99185303035607,
111,0,111,0,,,,,,,,,,,,,,,,,,,,,,,,,,,,,,,,,,524.1428245001007,525.1481506000273,522.8779987001326,522.8779987001326,522.8779987001326,522.8779987001326,,new_sceneOut_3.png,112,4.0,1.2538578000385314,,75,00,2025-06-03_16h03.57.921,Surprise recog test,2023.1.3,59.99185303035607,
112,0,112,0,,,,,,,,,,,,,,,,,,,,,,,,,,,,,,,,,,526.5608718001749,527.5659231999889,525.1481506000273,525.1481506000273,525.1481506000273,525.1481506000273,,old_fruit_14.png,113,3.0,1.4039038000628352,,75,00,2025-06-03_16h03.57.921,Surprise recog test,2023.1.3,59.99185303035607,
113,0,113,0,,,,,,,,,,,,,,,,,,,,,,,,,,,,,,,,,,528.5626054999884,529.5680886001792,527.5659231999889,527.5659231999889,527.5659231999889,527.5659231999889,,new_sceneIn_30.png,114,4.0,0.9867653001565486,,75,00,2025-06-03_16h03.57.921,Surprise recog test,2023.1.3,59.99185303035607,
114,0,114,0,,,,,,,,,,,,,,,,,,,,,,,,,,,,,,,,,,530.6643495000899,531.6686649001203,529.5680886001792,529.5680886001792,529.5680886001792,529.5680886001792,,new_fruit_35.png,115,2.0,1.0866696999873966,,75,00,2025-06-03_16h03.57.921,Surprise recog test,2023.1.3,59.99185303035607,
115,0,115,0,,,,,,,,,,,,,,,,,,,,,,,,,,,,,,,,,,533.543565500062,534.5559322000481,531.6686649001203,531.6686649001203,531.6686649001203,531.6686649001203,,old_stationery_37.png,116,4.0,1.8680411002133042,,75,00,2025-06-03_16h03.57.921,Surprise recog test,2023.1.3,59.99185303035607,
116,0,116,0,,,,,,,,,,,,,,,,,,,,,,,,,,,,,,,,,,535.8686653000768,536.8739085001871,534.5559322000481,534.5559322000481,534.5559322000481,534.5559322000481,,new_sceneOut_49.png,117,3.0,1.3059068000875413,,75,00,2025-06-03_16h03.57.921,Surprise recog test,2023.1.3,59.99185303035607,
117,0,117,0,,,,,,,,,,,,,,,,,,,,,,,,,,,,,,,,,,538.2205717000179,539.225014799973,536.8739085001871,536.8739085001871,536.8739085001871,536.8739085001871,,old_sceneIn_4.png,118,3.0,1.3374135000631213,,75,00,2025-06-03_16h03.57.921,Surprise recog test,2023.1.3,59.99185303035607,
118,0,118,0,,,,,,,,,,,,,,,,,,,,,,,,,,,,,,,,,,540.355688800104,541.3610654000659,539.225014799973,539.225014799973,539.225014799973,539.225014799973,,new_sceneOut_45.png,119,4.0,1.1203584999311715,,75,00,2025-06-03_16h03.57.921,Surprise recog test,2023.1.3,59.99185303035607,
119,0,119,0,,,,,,,,,,,,,,,,,,,,,,,,,,,,,,,,,,542.6243592000101,543.6294594001956,541.3610654000659,541.3610654000659,541.3610654000659,541.3610654000659,,new_fruit_42.png,120,2.0,1.2533281999640167,,75,00,2025-06-03_16h03.57.921,Surprise recog test,2023.1.3,59.99185303035607,
120,0,120,0,,,,,,,,,,,,,,,,,,,,,,,,,,,,,,,,,,544.8426889001857,545.847283200128,543.6294594001956,543.6294594001956,543.6294594001956,543.6294594001956,,new_stationery_27.png,121,3.0,1.2037035000976175,,75,00,2025-06-03_16h03.57.921,Surprise recog test,2023.1.3,59.99185303035607,
121,0,121,0,,,,,,,,,,,,,,,,,,,,,,,,,,,,,,,,,,546.8443978000432,547.8493757999968,545.847283200128,545.847283200128,545.847283200128,545.847283200128,,new_sceneOut_13.png,122,4.0,0.9870817000046372,,75,00,2025-06-03_16h03.57.921,Surprise recog test,2023.1.3,59.99185303035607,
122,0,122,0,,,,,,,,,,,,,,,,,,,,,,,,,,,,,,,,,,548.9461915001739,549.9511367001105,547.8493757999968,547.8493757999968,547.8493757999968,547.8493757999968,,new_sceneIn_24.png,123,4.0,1.0888352000620216,,75,00,2025-06-03_16h03.57.921,Surprise recog test,2023.1.3,59.99185303035607,
123,0,123,0,,,,,,,,,,,,,,,,,,,,,,,,,,,,,,,,,,551.5484637001064,552.5536466001067,549.9511367001105,549.9511367001105,549.9511367001105,549.9511367001105,,old_sceneIn_14.png,124,3.0,1.5871361999306828,,75,00,2025-06-03_16h03.57.921,Surprise recog test,2023.1.3,59.99185303035607,
124,0,124,0,,,,,,,,,,,,,,,,,,,,,,,,,,,,,,,,,,553.6667295000516,554.6710537001491,552.5536466001067,552.5536466001067,552.5536466001067,552.5536466001067,,old_stationery_6.png,125,4.0,1.1015941998921335,,75,00,2025-06-03_16h03.57.921,Surprise recog test,2023.1.3,59.99185303035607,
125,0,125,0,,,,,,,,,,,,,,,,,,,,,,,,,,,,,,,,,,556.0854540001601,557.0900209001265,554.6710537001491,554.6710537001491,554.6710537001491,554.6710537001491,,new_fruit_25.png,126,2.0,1.4037623000331223,,75,00,2025-06-03_16h03.57.921,Surprise recog test,2023.1.3,59.99185303035607,
126,0,126,0,,,,,,,,,,,,,,,,,,,,,,,,,,,,,,,,,,558.470712600043,559.4755245000124,557.0900209001265,557.0900209001265,557.0900209001265,557.0900209001265,,old_fruit_38.png,127,2.0,1.37091359985061,,75,00,2025-06-03_16h03.57.921,Surprise recog test,2023.1.3,59.99185303035607,
127,0,127,0,,,,,,,,,,,,,,,,,,,,,,,,,,,,,,,,,,561.0228792000562,562.0273363001179,559.4755245000124,559.4755245000124,559.4755245000124,559.4755245000124,,old_sceneOut_17.png,128,4.0,1.5372972001787275,,75,00,2025-06-03_16h03.57.921,Surprise recog test,2023.1.3,59.99185303035607,
128,0,128,0,,,,,,,,,,,,,,,,,,,,,,,,,,,,,,,,,,563.0912195001729,564.096313400194,562.0273363001179,562.0273363001179,562.0273363001179,562.0273363001179,,new_sceneOut_35.png,129,4.0,1.0537914000451565,,75,00,2025-06-03_16h03.57.921,Surprise recog test,2023.1.3,59.99185303035607,
129,0,129,0,,,,,,,,,,,,,,,,,,,,,,,,,,,,,,,,,,565.0596455000341,566.0640404000878,564.096313400194,564.096313400194,564.096313400194,564.096313400194,,new_sceneIn_36.png,130,4.0,0.9530909999739379,,75,00,2025-06-03_16h03.57.921,Surprise recog test,2023.1.3,59.99185303035607,
130,0,130,0,,,,,,,,,,,,,,,,,,,,,,,,,,,,,,,,,,566.9110358001199,567.9153700000606,566.0640404000878,566.0640404000878,566.0640404000878,566.0640404000878,,old_sceneOut_49.png,131,4.0,0.8365207999013364,,75,00,2025-06-03_16h03.57.921,Surprise recog test,2023.1.3,59.99185303035607,
131,0,131,0,,,,,,,,,,,,,,,,,,,,,,,,,,,,,,,,,,568.5792134001385,569.5839613999706,567.9153700000606,567.9153700000606,567.9153700000606,567.9153700000606,,old_sceneOut_50.png,132,4.0,0.653381499927491,,75,00,2025-06-03_16h03.57.921,Surprise recog test,2023.1.3,59.99185303035607,
132,0,132,0,,,,,,,,,,,,,,,,,,,,,,,,,,,,,,,,,,570.3806636000518,571.3860924001783,569.5839613999706,569.5839613999706,569.5839613999706,569.5839613999706,,new_sceneIn_3.png,133,4.0,0.7863809999544173,,75,00,2025-06-03_16h03.57.921,Surprise recog test,2023.1.3,59.99185303035607,
133,0,133,0,,,,,,,,,,,,,,,,,,,,,,,,,,,,,,,,,,572.5491580001544,573.5535974001978,571.3860924001783,571.3860924001783,571.3860924001783,571.3860924001783,,old_fruit_33.png,134,1.0,1.154061600100249,,75,00,2025-06-03_16h03.57.921,Surprise recog test,2023.1.3,59.99185303035607,
134,0,134,0,,,,,,,,,,,,,,,,,,,,,,,,,,,,,,,,,,574.7842812000308,575.7884840001352,573.5535974001978,573.5535974001978,573.5535974001978,573.5535974001978,,new_sceneIn_23.png,135,3.0,1.2205918000545353,,75,00,2025-06-03_16h03.57.921,Surprise recog test,2023.1.3,59.99185303035607,
135,0,135,0,,,,,,,,,,,,,,,,,,,,,,,,,,,,,,,,,,576.8361535000149,577.8404290000908,575.7884840001352,575.7884840001352,575.7884840001352,575.7884840001352,,old_sceneOut_15.png,136,4.0,1.0367915001697838,,75,00,2025-06-03_16h03.57.921,Surprise recog test,2023.1.3,59.99185303035607,
136,0,136,0,,,,,,,,,,,,,,,,,,,,,,,,,,,,,,,,,,578.8876634000335,579.8931291000918,577.8404290000908,577.8404290000908,577.8404290000908,577.8404290000908,,old_fruit_45.png,137,2.0,1.0367040000855923,,75,00,2025-06-03_16h03.57.921,Surprise recog test,2023.1.3,59.99185303035607,
137,0,137,0,,,,,,,,,,,,,,,,,,,,,,,,,,,,,,,,,,581.7901871001814,582.7949306999799,579.8931291000918,579.8931291000918,579.8931291000918,579.8931291000918,,new_sceneOut_43.png,138,3.0,1.8878003000281751,,75,00,2025-06-03_16h03.57.921,Surprise recog test,2023.1.3,59.99185303035607,
138,0,138,0,,,,,,,,,,,,,,,,,,,,,,,,,,,,,,,,,,583.8085172001738,584.8131030001678,582.7949306999799,582.7949306999799,582.7949306999799,582.7949306999799,,old_sceneOut_10.png,139,4.0,1.0038924999535084,,75,00,2025-06-03_16h03.57.921,Surprise recog test,2023.1.3,59.99185303035607,
139,0,139,0,,,,,,,,,,,,,,,,,,,,,,,,,,,,,,,,,,585.9268579999916,586.9314313000068,584.8131030001678,584.8131030001678,584.8131030001678,584.8131030001678,,new_stationery_15.png,140,3.0,1.1036201999522746,,75,00,2025-06-03_16h03.57.921,Surprise recog test,2023.1.3,59.99185303035607,
140,0,140,0,,,,,,,,,,,,,,,,,,,,,,,,,,,,,,,,,,588.0453832000494,589.0500455000438,586.9314313000068,586.9314313000068,586.9314313000068,586.9314313000068,,new_fruit_5.png,141,2.0,1.1041236999444664,,75,00,2025-06-03_16h03.57.921,Surprise recog test,2023.1.3,59.99185303035607,
141,0,141,0,,,,,,,,,,,,,,,,,,,,,,,,,,,,,,,,,,590.0637186001986,591.0687800999731,589.0500455000438,589.0500455000438,589.0500455000438,589.0500455000438,,new_fruit_33.png,142,3.0,1.0045082001015544,,75,00,2025-06-03_16h03.57.921,Surprise recog test,2023.1.3,59.99185303035607,
142,0,142,0,,,,,,,,,,,,,,,,,,,,,,,,,,,,,,,,,,592.0152885999996,593.0199249000289,591.0687800999731,591.0687800999731,591.0687800999731,591.0687800999731,,old_sceneOut_16.png,143,3.0,0.9369086001534015,,75,00,2025-06-03_16h03.57.921,Surprise recog test,2023.1.3,59.99185303035607,
143,0,143,0,,,,,,,,,,,,,,,,,,,,,,,,,,,,,,,,,,594.2003719999921,595.2048832001165,593.0199249000289,593.0199249000289,593.0199249000289,593.0199249000289,,old_stationery_41.png,144,3.0,1.1697985001374036,,75,00,2025-06-03_16h03.57.921,Surprise recog test,2023.1.3,59.99185303035607,
144,0,144,0,,,,,,,,,,,,,,,,,,,,,,,,,,,,,,,,,,596.168720100075,597.1730961999856,595.2048832001165,595.2048832001165,595.2048832001165,595.2048832001165,,old_sceneOut_13.png,145,4.0,0.954048200044781,,75,00,2025-06-03_16h03.57.921,Surprise recog test,2023.1.3,59.99185303035607,
145,0,145,0,,,,,,,,,,,,,,,,,,,,,,,,,,,,,,,,,,598.1870842999779,599.1918648001738,597.1730961999856,597.1730961999856,597.1730961999856,597.1730961999856,,old_stationery_35.png,146,3.0,1.0032315000426024,,75,00,2025-06-03_16h03.57.921,Surprise recog test,2023.1.3,59.99185303035607,
146,0,146,0,,,,,,,,,,,,,,,,,,,,,,,,,,,,,,,,,,600.8225941001438,601.8266793000512,599.1918648001738,599.1918648001738,599.1918648001738,599.1918648001738,,old_fruit_49.png,147,3.0,1.6201279000379145,,75,00,2025-06-03_16h03.57.921,Surprise recog test,2023.1.3,59.99185303035607,
147,0,147,0,,,,,,,,,,,,,,,,,,,,,,,,,,,,,,,,,,603.0911467000842,604.0957257000264,601.8266793000512,601.8266793000512,601.8266793000512,601.8266793000512,,new_fruit_49.png,148,2.0,1.253709000069648,,75,00,2025-06-03_16h03.57.921,Surprise recog test,2023.1.3,59.99185303035607,
148,0,148,0,,,,,,,,,,,,,,,,,,,,,,,,,,,,,,,,,,605.1930194001179,606.1989609000739,604.0957257000264,604.0957257000264,604.0957257000264,604.0957257000264,,old_fruit_42.png,149,2.0,1.0865201000124216,,75,00,2025-06-03_16h03.57.921,Surprise recog test,2023.1.3,59.99185303035607,
149,0,149,0,,,,,,,,,,,,,,,,,,,,,,,,,,,,,,,,,,607.2446671000216,608.2491484000348,606.1989609000739,606.1989609000739,606.1989609000739,606.1989609000739,,old_stationery_1.png,150,4.0,1.0366849000565708,,75,00,2025-06-03_16h03.57.921,Surprise recog test,2023.1.3,59.99185303035607,
150,0,150,0,,,,,,,,,,,,,,,,,,,,,,,,,,,,,,,,,,609.5298673000652,610.535474400036,608.2491484000348,608.2491484000348,608.2491484000348,608.2491484000348,,old_sceneOut_41.png,151,4.0,1.2704763999208808,,75,00,2025-06-03_16h03.57.921,Surprise recog test,2023.1.3,59.99185303035607,
151,0,151,0,,,,,,,,,,,,,,,,,,,,,,,,,,,,,,,,,,611.2812655000016,612.2864924999885,610.535474400036,610.535474400036,610.535474400036,610.535474400036,,new_sceneOut_17.png,152,4.0,0.7365310001187027,,75,00,2025-06-03_16h03.57.921,Surprise recog test,2023.1.3,59.99185303035607,
152,0,152,0,,,,,,,,,,,,,,,,,,,,,,,,,,,,,,,,,,613.6835004000459,614.6905340000521,612.2864924999885,612.2864924999885,612.2864924999885,612.2864924999885,,new_fruit_8.png,153,3.0,1.3869590999092907,,75,00,2025-06-03_16h03.57.921,Surprise recog test,2023.1.3,59.99185303035607,
153,0,153,0,,,,,,,,,,,,,,,,,,,,,,,,,,,,,,,,,,615.484756299993,616.4896313000936,614.6905340000521,614.6905340000521,614.6905340000521,614.6905340000521,,old_stationery_25.png,154,3.0,0.7863115000072867,,75,00,2025-06-03_16h03.57.921,Surprise recog test,2023.1.3,59.99185303035607,
154,0,154,0,,,,,,,,,,,,,,,,,,,,,,,,,,,,,,,,,,617.4197401001584,618.4241909000557,616.4896313000936,616.4896313000936,616.4896313000936,616.4896313000936,,new_sceneIn_48.png,155,3.0,0.9197474999818951,,75,00,2025-06-03_16h03.57.921,Surprise recog test,2023.1.3,59.99185303035607,
155,0,155,0,,,,,,,,,,,,,,,,,,,,,,,,,,,,,,,,,,619.6382584001403,620.6421907001641,618.4241909000557,618.4241909000557,618.4241909000557,618.4241909000557,,new_sceneIn_2.png,156,4.0,1.203753100009635,,75,00,2025-06-03_16h03.57.921,Surprise recog test,2023.1.3,59.99185303035607,
156,0,156,0,,,,,,,,,,,,,,,,,,,,,,,,,,,,,,,,,,622.2071144001093,623.21259130002,620.6421907001641,620.6421907001641,620.6421907001641,620.6421907001641,,new_fruit_38.png,157,5.0,1.5537289001513273,,75,00,2025-06-03_16h03.57.921,Surprise recog test,2023.1.3,59.99185303035607,
157,0,157,0,,,,,,,,,,,,,,,,,,,,,,,,,,,,,,,,,,624.1728301001713,625.1938172001392,623.21259130002,623.21259130002,623.21259130002,623.21259130002,,old_sceneOut_35.png,158,4.0,0.9561674001161009,,75,00,2025-06-03_16h03.57.921,Surprise recog test,2023.1.3,59.99185303035607,
158,0,158,0,,,,,,,,,,,,,,,,,,,,,,,,,,,,,,,,,,626.1585642001592,627.181552000111,625.1938172001392,625.1938172001392,625.1938172001392,625.1938172001392,,new_stationery_12.png,159,3.0,0.9641287000849843,,75,00,2025-06-03_16h03.57.921,Surprise recog test,2023.1.3,59.99185303035607,
159,0,159,0,,,,,,,,,,,,,,,,,,,,,,,,,,,,,,,,,,628.4277871001977,629.4500629000831,627.181552000111,627.181552000111,627.181552000111,627.181552000111,,new_sceneOut_14.png,160,3.0,1.2488720999099314,,75,00,2025-06-03_16h03.57.921,Surprise recog test,2023.1.3,59.99185303035607,
160,0,160,0,,,,,,,,,,,,,,,,,,,,,,,,,,,,,,,,,,630.2532991000917,631.2715938000474,629.4500629000831,629.4500629000831,629.4500629000831,629.4500629000831,,old_sceneIn_46.png,161,4.0,0.8034268000628799,,75,00,2025-06-03_16h03.57.921,Surprise recog test,2023.1.3,59.99185303035607,
161,0,161,0,,,,,,,,,,,,,,,,,,,,,,,,,,,,,,,,,,632.132096900139,633.1476731000002,631.2715938000474,631.2715938000474,631.2715938000474,631.2715938000474,,new_sceneIn_5.png,162,4.0,0.8501790999434888,,75,00,2025-06-03_16h03.57.921,Surprise recog test,2023.1.3,59.99185303035607,
162,0,162,0,,,,,,,,,,,,,,,,,,,,,,,,,,,,,,,,,,634.1110855001025,635.1252274001017,633.1476731000002,633.1476731000002,633.1476731000002,633.1476731000002,,old_stationery_15.png,163,4.0,0.9652826997917145,,75,00,2025-06-03_16h03.57.921,Surprise recog test,2023.1.3,59.99185303035607,
163,0,163,0,,,,,,,,,,,,,,,,,,,,,,,,,,,,,,,,,,636.4313633001875,637.4547139999922,635.1252274001017,635.1252274001017,635.1252274001017,635.1252274001017,,old_fruit_3.png,164,2.0,1.3017335999757051,,75,00,2025-06-03_16h03.57.921,Surprise recog test,2023.1.3,59.99185303035607,
164,0,164,0,,,,,,,,,,,,,,,,,,,,,,,,,,,,,,,,,,638.3482906999998,639.3653961000964,637.4547139999922,637.4547139999922,637.4547139999922,637.4547139999922,,old_sceneOut_30.png,165,3.0,0.893114099977538,,75,00,2025-06-03_16h03.57.921,Surprise recog test,2023.1.3,59.99185303035607,
165,0,165,0,,,,,,,,,,,,,,,,,,,,,,,,,,,,,,,,,,640.0478024000768,641.0748501999769,639.3653961000964,639.3653961000964,639.3653961000964,639.3653961000964,,old_sceneIn_25.png,166,4.0,0.6834220001474023,,75,00,2025-06-03_16h03.57.921,Surprise recog test,2023.1.3,59.99185303035607,
166,0,166,0,,,,,,,,,,,,,,,,,,,,,,,,,,,,,,,,,,642.3674910999835,643.3854496001732,641.0748501999769,641.0748501999769,641.0748501999769,641.0748501999769,,old_fruit_16.png,167,2.0,1.2924032998271286,,75,00,2025-06-03_16h03.57.921,Surprise recog test,2023.1.3,59.99185303035607,
167,0,167,0,,,,,,,,,,,,,,,,,,,,,,,,,,,,,,,,,,644.8092845000792,645.8192549999803,643.3854496001732,643.3854496001732,643.3854496001732,643.3854496001732,,old_sceneIn_19.png,168,3.0,1.4171706000342965,,75,00,2025-06-03_16h03.57.921,Surprise recog test,2023.1.3,59.99185303035607,
168,0,168,0,,,,,,,,,,,,,,,,,,,,,,,,,,,,,,,,,,646.6353272001725,647.6497037000954,645.8192549999803,645.8192549999803,645.8192549999803,645.8192549999803,,old_sceneOut_2.png,169,4.0,0.8164540999568999,,75,00,2025-06-03_16h03.57.921,Surprise recog test,2023.1.3,59.99185303035607,
169,0,169,0,,,,,,,,,,,,,,,,,,,,,,,,,,,,,,,,,,648.5167871001177,649.5341978000943,647.6497037000954,647.6497037000954,647.6497037000954,647.6497037000954,,old_sceneIn_50.png,170,4.0,0.8646331001073122,,75,00,2025-06-03_16h03.57.921,Surprise recog test,2023.1.3,59.99185303035607,
170,0,170,0,,,,,,,,,,,,,,,,,,,,,,,,,,,,,,,,,,650.6059082001448,651.6196884000674,649.5341978000943,649.5341978000943,649.5341978000943,649.5341978000943,,new_fruit_46.png,171,3.0,1.068013699958101,,75,00,2025-06-03_16h03.57.921,Surprise recog test,2023.1.3,59.99185303035607,
171,0,171,0,,,,,,,,,,,,,,,,,,,,,,,,,,,,,,,,,,652.6191106999759,,651.6196884000674,651.6196884000674,651.6196884000674,651.6196884000674,,old_fruit_24.png,172,3.0,0.9963529999367893,,75,00,2025-06-03_16h03.57.921,Surprise recog test,2023.1.3,59.99185303035607,
172,0,172,0,,,,,,,,,,,,,,,,,,,,,,,,,,,,,,,,,,655.6995139000937,656.7110476000234,653.646911200136,653.646911200136,653.646911200136,653.646911200136,,old_sceneIn_10.png,173,3.0,2.0542829998303205,,75,00,2025-06-03_16h03.57.921,Surprise recog test,2023.1.3,59.99185303035607,
173,0,173,0,,,,,,,,,,,,,,,,,,,,,,,,,,,,,,,,,,658.1976674001198,659.2208614000119,656.7110476000234,656.7110476000234,656.7110476000234,656.7110476000234,,old_sceneOut_31.png,174,4.0,1.4802645999006927,,75,00,2025-06-03_16h03.57.921,Surprise recog test,2023.1.3,59.99185303035607,
174,0,174,0,,,,,,,,,,,,,,,,,,,,,,,,,,,,,,,,,,660.0624134000391,661.0792725000065,659.2208614000119,659.2208614000119,659.2208614000119,659.2208614000119,,new_sceneIn_47.png,175,4.0,0.8440419998951256,,75,00,2025-06-03_16h03.57.921,Surprise recog test,2023.1.3,59.99185303035607,
175,0,175,0,,,,,,,,,,,,,,,,,,,,,,,,,,,,,,,,,,661.7734130001627,662.78056380013,661.0792725000065,661.0792725000065,661.0792725000065,661.0792725000065,,old_sceneIn_15.png,176,4.0,0.6850044000893831,,75,00,2025-06-03_16h03.57.921,Surprise recog test,2023.1.3,59.99185303035607,
176,0,176,0,,,,,,,,,,,,,,,,,,,,,,,,,,,,,,,,,,664.2254376001656,665.2338764001615,662.78056380013,662.78056380013,662.78056380013,662.78056380013,,new_fruit_39.png,177,3.0,1.4385174999479204,,75,00,2025-06-03_16h03.57.921,Surprise recog test,2023.1.3,59.99185303035607,
177,0,177,0,,,,,,,,,,,,,,,,,,,,,,,,,,,,,,,,,,666.137871199986,667.1509329001419,665.2338764001615,665.2338764001615,665.2338764001615,665.2338764001615,,new_sceneOut_29.png,178,4.0,0.8960800999775529,,75,00,2025-06-03_16h03.57.921,Surprise recog test,2023.1.3,59.99185303035607,
178,0,178,0,,,,,,,,,,,,,,,,,,,,,,,,,,,,,,,,,,668.0577935001347,669.0866797000635,667.1509329001419,667.1509329001419,667.1509329001419,667.1509329001419,,old_stationery_18.png,179,4.0,0.902197299990803,,75,00,2025-06-03_16h03.57.921,Surprise recog test,2023.1.3,59.99185303035607,
179,0,179,0,,,,,,,,,,,,,,,,,,,,,,,,,,,,,,,,,,670.3185260000173,671.3449556000996,669.0866797000635,669.0866797000635,669.0866797000635,669.0866797000635,,old_fruit_12.png,180,2.0,1.236616900190711,,75,00,2025-06-03_16h03.57.921,Surprise recog test,2023.1.3,59.99185303035607,
180,0,180,0,,,,,,,,,,,,,,,,,,,,,,,,,,,,,,,,,,672.8914463000838,673.9073936999775,671.3449556000996,671.3449556000996,671.3449556000996,671.3449556000996,,old_stationery_47.png,181,3.0,1.5480721001513302,,75,00,2025-06-03_16h03.57.921,Surprise recog test,2023.1.3,59.99185303035607,
181,0,181,0,,,,,,,,,,,,,,,,,,,,,,,,,,,,,,,,,,675.3912019000854,676.420288000023,673.9073936999775,673.9073936999775,673.9073936999775,673.9073936999775,,old_fruit_5.png,182,3.0,1.4787981999106705,,75,00,2025-06-03_16h03.57.921,Surprise recog test,2023.1.3,59.99185303035607,
182,0,182,0,,,,,,,,,,,,,,,,,,,,,,,,,,,,,,,,,,677.5810084000695,678.607508999994,676.420288000023,676.420288000023,676.420288000023,676.420288000023,,old_sceneOut_39.png,183,4.0,1.1619808999821544,,75,00,2025-06-03_16h03.57.921,Surprise recog test,2023.1.3,59.99185303035607,
183,0,183,0,,,,,,,,,,,,,,,,,,,,,,,,,,,,,,,,,,680.4507432000246,681.4764435000252,678.607508999994,678.607508999994,678.607508999994,678.607508999994,,old_fruit_19.png,184,1.0,1.844025099882856,,75,00,2025-06-03_16h03.57.921,Surprise recog test,2023.1.3,59.99185303035607,
184,0,184,0,,,,,,,,,,,,,,,,,,,,,,,,,,,,,,,,,,682.5559247001074,683.5617395001464,681.4764435000252,681.4764435000252,681.4764435000252,681.4764435000252,,new_sceneIn_16.png,185,4.0,1.0794363000895828,,75,00,2025-06-03_16h03.57.921,Surprise recog test,2023.1.3,59.99185303035607,
185,0,185,0,,,,,,,,,,,,,,,,,,,,,,,,,,,,,,,,,,685.1366960001178,686.1578037000727,683.5617395001464,683.5617395001464,683.5617395001464,683.5617395001464,,new_sceneOut_2.png,186,4.0,1.5686916999984533,,75,00,2025-06-03_16h03.57.921,Surprise recog test,2023.1.3,59.99185303035607,
186,0,186,0,,,,,,,,,,,,,,,,,,,,,,,,,,,,,,,,,,687.4331845000852,688.4648669001181,686.1578037000727,686.1578037000727,686.1578037000727,686.1578037000727,,old_fruit_46.png,187,2.0,1.2773146000690758,,75,00,2025-06-03_16h03.57.921,Surprise recog test,2023.1.3,59.99185303035607,
187,0,187,0,,,,,,,,,,,,,,,,,,,,,,,,,,,,,,,,,,689.7133214999922,690.7217681000475,688.4648669001181,688.4648669001181,688.4648669001181,688.4648669001181,,new_sceneIn_7.png,188,4.0,1.2449668999761343,,75,00,2025-06-03_16h03.57.921,Surprise recog test,2023.1.3,59.99185303035607,
188,0,188,0,,,,,,,,,,,,,,,,,,,,,,,,,,,,,,,,,,691.680510800099,692.6882162999827,690.7217681000475,690.7217681000475,690.7217681000475,690.7217681000475,,old_sceneIn_41.png,189,4.0,0.9542666000779718,,75,00,2025-06-03_16h03.57.921,Surprise recog test,2023.1.3,59.99185303035607,
189,0,189,0,,,,,,,,,,,,,,,,,,,,,,,,,,,,,,,,,,694.4249976000283,695.4483786001801,692.6882162999827,692.6882162999827,692.6882162999827,692.6882162999827,,new_stationery_29.png,190,4.0,1.7303352998569608,,75,00,2025-06-03_16h03.57.921,Surprise recog test,2023.1.3,59.99185303035607,
190,0,190,0,,,,,,,,,,,,,,,,,,,,,,,,,,,,,,,,,,697.0233404000755,,695.4483786001801,695.4483786001801,695.4483786001801,695.4483786001801,,old_fruit_29.png,191,2.0,1.5718151999171823,,75,00,2025-06-03_16h03.57.921,Surprise recog test,2023.1.3,59.99185303035607,
191,0,191,0,,,,,,,,,,,,,,,,,,,,,,,,,,,,,,,,,,699.1939285001718,700.2130423001945,698.0450087001082,698.0450087001082,698.0450087001082,698.0450087001082,,old_stationery_13.png,192,4.0,1.14437420014292,,75,00,2025-06-03_16h03.57.921,Surprise recog test,2023.1.3,59.99185303035607,
192,0,192,0,,,,,,,,,,,,,,,,,,,,,,,,,,,,,,,,,,701.9225976001471,702.9316513000522,700.2130423001945,700.2130423001945,700.2130423001945,700.2130423001945,,old_stationery_17.png,193,4.0,1.7042202001903206,,75,00,2025-06-03_16h03.57.921,Surprise recog test,2023.1.3,59.99185303035607,
193,0,193,0,,,,,,,,,,,,,,,,,,,,,,,,,,,,,,,,,,703.7956730001606,,702.9316513000522,702.9316513000522,702.9316513000522,702.9316513000522,,new_sceneIn_18.png,194,4.0,0.86030020006001,,75,00,2025-06-03_16h03.57.921,Surprise recog test,2023.1.3,59.99185303035607,
194,0,194,0,,,,,,,,,,,,,,,,,,,,,,,,,,,,,,,,,,706.7105771000497,707.7239182000048,704.8129823000636,704.8129823000636,704.8129823000636,704.8129823000636,,new_sceneOut_31.png,195,4.0,1.8937181001529098,,75,00,2025-06-03_16h03.57.921,Surprise recog test,2023.1.3,59.99185303035607,
195,0,195,0,,,,,,,,,,,,,,,,,,,,,,,,,,,,,,,,,,710.4314030001406,711.4401155000087,707.7239182000048,707.7239182000048,707.7239182000048,707.7239182000048,,old_stationery_2.png,196,4.0,2.708931599976495,,75,00,2025-06-03_16h03.57.921,Surprise recog test,2023.1.3,59.99185303035607,
196,0,196,0,,,,,,,,,,,,,,,,,,,,,,,,,,,,,,,,,,713.1255171000957,714.151979500195,711.4401155000087,711.4401155000087,711.4401155000087,711.4401155000087,,new_fruit_16.png,197,2.0,1.6849815999157727,,75,00,2025-06-03_16h03.57.921,Surprise recog test,2023.1.3,59.99185303035607,
197,0,197,0,,,,,,,,,,,,,,,,,,,,,,,,,,,,,,,,,,719.0544227000792,720.0772336001974,714.151979500195,714.151979500195,714.151979500195,714.151979500195,,old_stationery_32.png,198,4.0,4.901854800060391,,75,00,2025-06-03_16h03.57.921,Surprise recog test,2023.1.3,59.99185303035607,
198,0,198,0,,,,,,,,,,,,,,,,,,,,,,,,,,,,,,,,,,721.4430158999749,,720.0772336001974,720.0772336001974,720.0772336001974,720.0772336001974,,new_fruit_44.png,199,2.0,1.3682931999210268,,75,00,2025-06-03_16h03.57.921,Surprise recog test,2023.1.3,59.99185303035607,
199,0,199,0,,,,,,,,,,,,,,,,,,,,,,,,,,,,,,,,,,723.7118597000372,,722.4753791000694,722.4753791000694,722.4753791000694,722.4753791000694,,old_fruit_30.png,200,2.0,1.2385945001151413,,75,00,2025-06-03_16h03.57.921,Surprise recog test,2023.1.3,59.99185303035607,
200,0,200,0,,,,,,,,,,,,,,,,,,,,,,,,,,,,,,,,,,726.1856067001354,727.202619299991,724.7412163000554,724.7412163000554,724.7412163000554,724.7412163000554,,old_stationery_34.png,201,4.0,1.4445804001297802,,75,00,2025-06-03_16h03.57.921,Surprise recog test,2023.1.3,59.99185303035607,
201,0,201,0,,,,,,,,,,,,,,,,,,,,,,,,,,,,,,,,,,728.5331219001673,,727.202619299991,727.202619299991,727.202619299991,727.202619299991,,old_stationery_27.png,202,4.0,1.3266924999188632,,75,00,2025-06-03_16h03.57.921,Surprise recog test,2023.1.3,59.99185303035607,
202,0,202,0,,,,,,,,,,,,,,,,,,,,,,,,,,,,,,,,,,731.7811581001151,732.8031740000006,729.5660608999897,729.5660608999897,729.5660608999897,729.5660608999897,,old_stationery_10.png,203,3.0,2.2171419002115726,,75,00,2025-06-03_16h03.57.921,Surprise recog test,2023.1.3,59.99185303035607,
203,0,203,0,,,,,,,,,,,,,,,,,,,,,,,,,,,,,,,,,,735.1486229000147,736.1595515999943,732.8031740000006,732.8031740000006,732.8031740000006,732.8031740000006,,old_fruit_6.png,204,2.0,2.3481497999746352,,75,00,2025-06-03_16h03.57.921,Surprise recog test,2023.1.3,59.99185303035607,
204,0,204,0,,,,,,,,,,,,,,,,,,,,,,,,,,,,,,,,,,737.566526300041,738.578563200077,736.1595515999943,736.1595515999943,736.1595515999943,736.1595515999943,,new_stationery_6.png,205,4.0,1.4030561000108719,,75,00,2025-06-03_16h03.57.921,Surprise recog test,2023.1.3,59.99185303035607,
205,0,205,0,,,,,,,,,,,,,,,,,,,,,,,,,,,,,,,,,,740.1151402001269,741.1515458000358,738.578563200077,738.578563200077,738.578563200077,738.578563200077,,new_sceneOut_30.png,206,4.0,1.5327337000053376,,75,00,2025-06-03_16h03.57.921,Surprise recog test,2023.1.3,59.99185303035607,
206,0,206,0,,,,,,,,,,,,,,,,,,,,,,,,,,,,,,,,,,742.6436829001177,,741.1515458000358,741.1515458000358,741.1515458000358,741.1515458000358,,old_fruit_23.png,207,2.0,1.4978996000718325,,75,00,2025-06-03_16h03.57.921,Surprise recog test,2023.1.3,59.99185303035607,
207,0,207,0,,,,,,,,,,,,,,,,,,,,,,,,,,,,,,,,,,745.203407100169,746.2304322000127,743.6784461999778,743.6784461999778,743.6784461999778,743.6784461999778,,new_sceneOut_46.png,208,4.0,1.5284281999338418,,75,00,2025-06-03_16h03.57.921,Surprise recog test,2023.1.3,59.99185303035607,
208,0,208,0,,,,,,,,,,,,,,,,,,,,,,,,,,,,,,,,,,748.0784502001479,749.0979318001773,746.2304322000127,746.2304322000127,746.2304322000127,746.2304322000127,,old_sceneIn_42.png,209,3.0,1.848113999934867,,75,00,2025-06-03_16h03.57.921,Surprise recog test,2023.1.3,59.99185303035607,
209,0,209,0,,,,,,,,,,,,,,,,,,,,,,,,,,,,,,,,,,750.4207544000819,751.4497397001833,749.0979318001773,749.0979318001773,749.0979318001773,749.0979318001773,,old_sceneIn_30.png,210,4.0,1.3243360000196844,,75,00,2025-06-03_16h03.57.921,Surprise recog test,2023.1.3,59.99185303035607,
210,0,210,0,,,,,,,,,,,,,,,,,,,,,,,,,,,,,,,,,,752.9180660001002,,751.4497397001833,751.4497397001833,751.4497397001833,751.4497397001833,,old_sceneOut_46.png,211,3.0,1.4684902001172304,,75,00,2025-06-03_16h03.57.921,Surprise recog test,2023.1.3,59.99185303035607,
211,0,211,0,,,,,,,,,,,,,,,,,,,,,,,,,,,,,,,,,,755.5580595000647,756.5934139001183,753.940246600192,753.940246600192,753.940246600192,753.940246600192,,new_fruit_20.png,212,3.0,1.6127156000584364,,75,00,2025-06-03_16h03.57.921,Surprise recog test,2023.1.3,59.99185303035607,
212,0,212,0,,,,,,,,,,,,,,,,,,,,,,,,,,,,,,,,,,757.6108898001257,758.636685000034,756.5934139001183,756.5934139001183,756.5934139001183,756.5934139001183,,new_sceneIn_4.png,213,4.0,1.0221897999290377,,75,00,2025-06-03_16h03.57.921,Surprise recog test,2023.1.3,59.99185303035607,
213,0,213,0,,,,,,,,,,,,,,,,,,,,,,,,,,,,,,,,,,759.9812525999732,760.9934001001529,758.636685000034,758.636685000034,758.636685000034,758.636685000034,,new_sceneOut_15.png,214,3.0,1.3462651001755148,,75,00,2025-06-03_16h03.57.921,Surprise recog test,2023.1.3,59.99185303035607,
214,0,214,0,,,,,,,,,,,,,,,,,,,,,,,,,,,,,,,,,,762.4829863000195,763.4969397000968,760.9934001001529,760.9934001001529,760.9934001001529,760.9934001001529,,new_fruit_11.png,215,3.0,1.4856159999035299,,75,00,2025-06-03_16h03.57.921,Surprise recog test,2023.1.3,59.99185303035607,
215,0,215,0,,,,,,,,,,,,,,,,,,,,,,,,,,,,,,,,,,764.8757729001809,765.8812140000518,763.4969397000968,763.4969397000968,763.4969397000968,763.4969397000968,,new_stationery_32.png,216,3.0,1.3695718999952078,,75,00,2025-06-03_16h03.57.921,Surprise recog test,2023.1.3,59.99185303035607,
216,0,216,0,,,,,,,,,,,,,,,,,,,,,,,,,,,,,,,,,,766.9947042001877,767.998076000018,765.8812140000518,765.8812140000518,765.8812140000518,765.8812140000518,,old_sceneOut_4.png,217,4.0,1.1102843000553548,,75,00,2025-06-03_16h03.57.921,Surprise recog test,2023.1.3,59.99185303035607,
217,0,217,0,,,,,,,,,,,,,,,,,,,,,,,,,,,,,,,,,,769.17929440015,770.1837133001536,767.998076000018,767.998076000018,767.998076000018,767.998076000018,,new_fruit_24.png,218,4.0,1.173210599925369,,75,00,2025-06-03_16h03.57.921,Surprise recog test,2023.1.3,59.99185303035607,
218,0,218,0,,,,,,,,,,,,,,,,,,,,,,,,,,,,,,,,,,771.948172000004,772.9540587000083,770.1837133001536,770.1837133001536,770.1837133001536,770.1837133001536,,new_stationery_2.png,219,3.0,1.7572218999266624,,75,00,2025-06-03_16h03.57.921,Surprise recog test,2023.1.3,59.99185303035607,
219,0,219,0,,,,,,,,,,,,,,,,,,,,,,,,,,,,,,,,,,774.0332767001819,775.0376201001927,772.9540587000083,772.9540587000083,772.9540587000083,772.9540587000083,,new_stationery_24.png,220,3.0,1.07321389997378,,75,00,2025-06-03_16h03.57.921,Surprise recog test,2023.1.3,59.99185303035607,
220,0,220,0,,,,,,,,,,,,,,,,,,,,,,,,,,,,,,,,,,776.835643999977,777.8402672000229,775.0376201001927,775.0376201001927,775.0376201001927,775.0376201001927,,new_stationery_10.png,221,4.0,1.7874187999404967,,75,00,2025-06-03_16h03.57.921,Surprise recog test,2023.1.3,59.99185303035607,
221,0,221,0,,,,,,,,,,,,,,,,,,,,,,,,,,,,,,,,,,779.554598600138,780.5594460000284,777.8402672000229,777.8402672000229,777.8402672000229,777.8402672000229,,old_fruit_43.png,222,1.0,1.7039478002116084,,75,00,2025-06-03_16h03.57.921,Surprise recog test,2023.1.3,59.99185303035607,
222,0,222,0,,,,,,,,,,,,,,,,,,,,,,,,,,,,,,,,,,781.6396210000385,782.6441101999953,780.5594460000284,780.5594460000284,780.5594460000284,780.5594460000284,,new_sceneIn_9.png,223,4.0,1.0701174000278115,,75,00,2025-06-03_16h03.57.921,Surprise recog test,2023.1.3,59.99185303035607,
223,0,223,0,,,,,,,,,,,,,,,,,,,,,,,,,,,,,,,,,,784.0749610001221,785.079914300004,782.6441101999953,782.6441101999953,782.6441101999953,782.6441101999953,,new_stationery_19.png,224,3.0,1.4202986001037061,,75,00,2025-06-03_16h03.57.921,Surprise recog test,2023.1.3,59.99185303035607,
224,0,224,0,,,,,,,,,,,,,,,,,,,,,,,,,,,,,,,,,,786.1934886001982,787.1981477001682,785.079914300004,785.079914300004,785.079914300004,785.079914300004,,old_sceneIn_45.png,225,3.0,1.1047205000650138,,75,00,2025-06-03_16h03.57.921,Surprise recog test,2023.1.3,59.99185303035607,
225,0,225,0,,,,,,,,,,,,,,,,,,,,,,,,,,,,,,,,,,788.1450137000065,789.1497695001308,787.1981477001682,787.1981477001682,787.1981477001682,787.1981477001682,,new_sceneOut_19.png,226,4.0,0.9369292000774294,,75,00,2025-06-03_16h03.57.921,Surprise recog test,2023.1.3,59.99185303035607,
226,0,226,0,,,,,,,,,,,,,,,,,,,,,,,,,,,,,,,,,,789.9632033000235,790.9680910001043,789.1497695001308,789.1497695001308,789.1497695001308,789.1497695001308,,new_sceneOut_18.png,227,4.0,0.8050997999962419,,75,00,2025-06-03_16h03.57.921,Surprise recog test,2023.1.3,59.99185303035607,
227,0,227,0,,,,,,,,,,,,,,,,,,,,,,,,,,,,,,,,,,791.7647611000575,792.7696158001199,790.9680910001043,790.9680910001043,790.9680910001043,790.9680910001043,,new_sceneOut_20.png,228,4.0,0.786579400068149,,75,00,2025-06-03_16h03.57.921,Surprise recog test,2023.1.3,59.99185303035607,
228,0,228,0,,,,,,,,,,,,,,,,,,,,,,,,,,,,,,,,,,794.0832701001782,795.0883278001565,792.7696158001199,792.7696158001199,792.7696158001199,792.7696158001199,,new_fruit_26.png,229,2.0,1.3040561000816524,,75,00,2025-06-03_16h03.57.921,Surprise recog test,2023.1.3,59.99185303035607,
229,0,229,0,,,,,,,,,,,,,,,,,,,,,,,,,,,,,,,,,,795.8681928000879,796.87407790008,795.0883278001565,795.0883278001565,795.0883278001565,795.0883278001565,,old_fruit_35.png,230,2.0,0.7712631998583674,,75,00,2025-06-03_16h03.57.921,Surprise recog test,2023.1.3,59.99185303035607,
230,0,230,0,,,,,,,,,,,,,,,,,,,,,,,,,,,,,,,,,,798.1200097000692,799.1248954001348,796.87407790008,796.87407790008,796.87407790008,796.87407790008,,old_sceneIn_26.png,231,4.0,1.2382219000719488,,75,00,2025-06-03_16h03.57.921,Surprise recog test,2023.1.3,59.99185303035607,
231,0,231,0,,,,,,,,,,,,,,,,,,,,,,,,,,,,,,,,,,799.904980600113,800.9096590001136,799.1248954001348,799.1248954001348,799.1248954001348,799.1248954001348,,old_sceneIn_1.png,232,4.0,0.7724381999578327,,75,00,2025-06-03_16h03.57.921,Surprise recog test,2023.1.3,59.99185303035607,
232,0,232,0,,,,,,,,,,,,,,,,,,,,,,,,,,,,,,,,,,802.1901974000502,803.1944528000895,800.9096590001136,800.9096590001136,800.9096590001136,800.9096590001136,,old_fruit_32.png,233,2.0,1.2704766998067498,,75,00,2025-06-03_16h03.57.921,Surprise recog test,2023.1.3,59.99185303035607,
233,0,233,0,,,,,,,,,,,,,,,,,,,,,,,,,,,,,,,,,,804.3084515000228,805.3130227001384,803.1944528000895,803.1944528000895,803.1944528000895,803.1944528000895,,new_sceneIn_41.png,234,4.0,1.103766200132668,,75,00,2025-06-03_16h03.57.921,Surprise recog test,2023.1.3,59.99185303035607,
234,0,234,0,,,,,,,,,,,,,,,,,,,,,,,,,,,,,,,,,,806.4436616001185,807.4488063000608,805.3130227001384,805.3130227001384,805.3130227001384,805.3130227001384,,old_fruit_27.png,235,2.0,1.1202310000080615,,75,00,2025-06-03_16h03.57.921,Surprise recog test,2023.1.3,59.99185303035607,
235,0,235,0,,,,,,,,,,,,,,,,,,,,,,,,,,,,,,,,,,808.6288017001934,809.6347187000792,807.4488063000608,807.4488063000608,807.4488063000608,807.4488063000608,,old_sceneIn_31.png,236,4.0,1.170499200001359,,75,00,2025-06-03_16h03.57.921,Surprise recog test,2023.1.3,59.99185303035607,
236,0,236,0,,,,,,,,,,,,,,,,,,,,,,,,,,,,,,,,,,810.5311212001834,811.5384978000075,809.6347187000792,809.6347187000792,809.6347187000792,809.6347187000792,,old_sceneOut_27.png,237,4.0,0.8869807000737637,,75,00,2025-06-03_16h03.57.921,Surprise recog test,2023.1.3,59.99185303035607,
237,0,237,0,,,,,,,,,,,,,,,,,,,,,,,,,,,,,,,,,,812.3651932000648,813.3702891001012,811.5384978000075,811.5384978000075,811.5384978000075,811.5384978000075,,new_sceneOut_24.png,238,4.0,0.8195801000110805,,75,00,2025-06-03_16h03.57.921,Surprise recog test,2023.1.3,59.99185303035607,
238,0,238,0,,,,,,,,,,,,,,,,,,,,,,,,,,,,,,,,,,814.2438304000534,815.2694964001421,813.3702891001012,813.3702891001012,813.3702891001012,813.3702891001012,,new_sceneIn_27.png,239,4.0,0.8668094000313431,,75,00,2025-06-03_16h03.57.921,Surprise recog test,2023.1.3,59.99185303035607,
239,0,239,0,,,,,,,,,,,,,,,,,,,,,,,,,,,,,,,,,,816.3405098000076,817.3689983000513,815.2694964001421,815.2694964001421,815.2694964001421,815.2694964001421,,old_fruit_15.png,240,2.0,1.0732601000927389,,75,00,2025-06-03_16h03.57.921,Surprise recog test,2023.1.3,59.99185303035607,
240,0,240,0,,,,,,,,,,,,,,,,,,,,,,,,,,,,,,,,,,818.7206280000973,819.7279988001101,817.3689983000513,817.3689983000513,817.3689983000513,817.3689983000513,,new_sceneIn_19.png,241,4.0,1.3466822002083063,,75,00,2025-06-03_16h03.57.921,Surprise recog test,2023.1.3,59.99185303035607,
241,0,241,0,,,,,,,,,,,,,,,,,,,,,,,,,,,,,,,,,,820.5314963001292,821.5449524000287,819.7279988001101,819.7279988001101,819.7279988001101,819.7279988001101,,new_sceneIn_39.png,242,4.0,0.8013264001347125,,75,00,2025-06-03_16h03.57.921,Surprise recog test,2023.1.3,59.99185303035607,
242,0,242,0,,,,,,,,,,,,,,,,,,,,,,,,,,,,,,,,,,822.4954506000504,823.5208974999841,821.5449524000287,821.5449524000287,821.5449524000287,821.5449524000287,,new_sceneIn_28.png,243,4.0,0.9474269000347704,,75,00,2025-06-03_16h03.57.921,Surprise recog test,2023.1.3,59.99185303035607,
243,0,243,0,,,,,,,,,,,,,,,,,,,,,,,,,,,,,,,,,,825.8910642000847,826.9065800001845,823.5208974999841,823.5208974999841,823.5208974999841,823.5208974999841,,old_fruit_36.png,244,2.0,2.3684429998975247,,75,00,2025-06-03_16h03.57.921,Surprise recog test,2023.1.3,59.99185303035607,
244,0,244,0,,,,,,,,,,,,,,,,,,,,,,,,,,,,,,,,,,827.9871580000035,829.0061466000043,826.9065800001845,826.9065800001845,826.9065800001845,826.9065800001845,,old_sceneIn_13.png,245,4.0,1.0816254999954253,,75,00,2025-06-03_16h03.57.921,Surprise recog test,2023.1.3,59.99185303035607,
245,0,245,0,,,,,,,,,,,,,,,,,,,,,,,,,,,,,,,,,,830.3084231000394,831.3183300001547,829.0061466000043,829.0061466000043,829.0061466000043,829.0061466000043,,old_sceneOut_48.png,246,4.0,1.301222699927166,,75,00,2025-06-03_16h03.57.921,Surprise recog test,2023.1.3,59.99185303035607,
246,0,246,0,,,,,,,,,,,,,,,,,,,,,,,,,,,,,,,,,,833.4712690999731,834.5007590001915,831.3183300001547,831.3183300001547,831.3183300001547,831.3183300001547,,old_sceneOut_5.png,247,2.0,2.147014700109139,,75,00,2025-06-03_16h03.57.921,Surprise recog test,2023.1.3,59.99185303035607,
247,0,247,0,,,,,,,,,,,,,,,,,,,,,,,,,,,,,,,,,,835.7160777000245,836.726334300125,834.5007590001915,834.5007590001915,834.5007590001915,834.5007590001915,,old_stationery_26.png,248,3.0,1.2167782001197338,,75,00,2025-06-03_16h03.57.921,Surprise recog test,2023.1.3,59.99185303035607,
248,0,248,0,,,,,,,,,,,,,,,,,,,,,,,,,,,,,,,,,,838.2140087999869,839.23345900001,836.726334300125,836.726334300125,836.726334300125,836.726334300125,,old_fruit_39.png,249,1.0,1.4835092998109758,,75,00,2025-06-03_16h03.57.921,Surprise recog test,2023.1.3,59.99185303035607,
249,0,249,0,,,,,,,,,,,,,,,,,,,,,,,,,,,,,,,,,,840.7139527001418,841.7393485000357,839.23345900001,839.23345900001,839.23345900001,839.23345900001,,new_sceneIn_26.png,250,3.0,1.481372799957171,,75,00,2025-06-03_16h03.57.921,Surprise recog test,2023.1.3,59.99185303035607,
250,0,250,0,,,,,,,,,,,,,,,,,,,,,,,,,,,,,,,,,,842.9801402001176,844.009306400083,841.7393485000357,841.7393485000357,841.7393485000357,841.7393485000357,,new_stationery_25.png,251,4.0,1.243189400061965,,75,00,2025-06-03_16h03.57.921,Surprise recog test,2023.1.3,59.99185303035607,
251,0,251,0,,,,,,,,,,,,,,,,,,,,,,,,,,,,,,,,,,844.7756270000245,845.7893551001325,844.009306400083,844.009306400083,844.009306400083,844.009306400083,,new_sceneOut_21.png,252,4.0,0.7631742001976818,,75,00,2025-06-03_16h03.57.921,Surprise recog test,2023.1.3,59.99185303035607,
252,0,252,0,,,,,,,,,,,,,,,,,,,,,,,,,,,,,,,,,,847.503325600177,848.5300412999932,845.7893551001325,845.7893551001325,845.7893551001325,845.7893551001325,,old_fruit_25.png,253,2.0,1.7154981999192387,,75,00,2025-06-03_16h03.57.921,Surprise recog test,2023.1.3,59.99185303035607,
253,0,253,0,,,,,,,,,,,,,,,,,,,,,,,,,,,,,,,,,,849.6430921000428,850.6644975000527,848.5300412999932,848.5300412999932,848.5300412999932,848.5300412999932,,old_sceneIn_8.png,254,4.0,1.1139366999268532,,75,00,2025-06-03_16h03.57.921,Surprise recog test,2023.1.3,59.99185303035607,
254,0,254,0,,,,,,,,,,,,,,,,,,,,,,,,,,,,,,,,,,851.514766999986,852.5351424000692,850.6644975000527,850.6644975000527,850.6644975000527,850.6644975000527,,old_sceneIn_34.png,255,4.0,0.8476509999018162,,75,00,2025-06-03_16h03.57.921,Surprise recog test,2023.1.3,59.99185303035607,
255,0,255,0,,,,,,,,,,,,,,,,,,,,,,,,,,,,,,,,,,854.6566620999947,855.6750789000653,852.5351424000692,852.5351424000692,852.5351424000692,852.5351424000692,,new_sceneOut_50.png,256,3.0,2.121904900064692,,75,00,2025-06-03_16h03.57.921,Surprise recog test,2023.1.3,59.99185303035607,
256,0,256,0,,,,,,,,,,,,,,,,,,,,,,,,,,,,,,,,,,856.4572323001921,857.4813719000667,855.6750789000653,855.6750789000653,855.6750789000653,855.6750789000653,,old_sceneIn_29.png,257,4.0,0.7779980001505464,,75,00,2025-06-03_16h03.57.921,Surprise recog test,2023.1.3,59.99185303035607,
257,0,257,0,,,,,,,,,,,,,,,,,,,,,,,,,,,,,,,,,,858.5382054999936,859.5561303000432,857.4813719000667,857.4813719000667,857.4813719000667,857.4813719000667,,old_stationery_9.png,258,3.0,1.0572017999365926,,75,00,2025-06-03_16h03.57.921,Surprise recog test,2023.1.3,59.99185303035607,
258,0,258,0,,,,,,,,,,,,,,,,,,,,,,,,,,,,,,,,,,860.7511632000096,861.7755387001671,859.5561303000432,859.5561303000432,859.5561303000432,859.5561303000432,,old_stationery_40.png,259,4.0,1.1965717999264598,,75,00,2025-06-03_16h03.57.921,Surprise recog test,2023.1.3,59.99185303035607,
259,0,259,0,,,,,,,,,,,,,,,,,,,,,,,,,,,,,,,,,,862.8432503000367,,861.7755387001671,861.7755387001671,861.7755387001671,861.7755387001671,,new_stationery_36.png,260,3.0,1.0680689001455903,,75,00,2025-06-03_16h03.57.921,Surprise recog test,2023.1.3,59.99185303035607,
260,0,260,0,,,,,,,,,,,,,,,,,,,,,,,,,,,,,,,,,,866.2762409001589,867.2815313001629,863.8734354001936,863.8734354001936,863.8734354001936,863.8734354001936,,new_fruit_28.png,261,2.0,2.40322560002096,,75,00,2025-06-03_16h03.57.921,Surprise recog test,2023.1.3,59.99185303035607,
261,0,261,0,,,,,,,,,,,,,,,,,,,,,,,,,,,,,,,,,,869.0957679999992,870.121705800062,867.2815313001629,867.2815313001629,867.2815313001629,867.2815313001629,,old_sceneOut_36.png,262,4.0,1.8035379000939429,,75,00,2025-06-03_16h03.57.921,Surprise recog test,2023.1.3,59.99185303035607,
262,0,262,0,,,,,,,,,,,,,,,,,,,,,,,,,,,,,,,,,,871.6375651000999,872.661116000032,870.121705800062,870.121705800062,870.121705800062,870.121705800062,,new_stationery_7.png,263,4.0,1.519675699993968,,75,00,2025-06-03_16h03.57.921,Surprise recog test,2023.1.3,59.99185303035607,
263,0,263,0,,,,,,,,,,,,,,,,,,,,,,,,,,,,,,,,,,874.1070244000293,875.1362013001926,872.661116000032,872.661116000032,872.661116000032,872.661116000032,,old_fruit_18.png,264,1.0,1.447234199848026,,75,00,2025-06-03_16h03.57.921,Surprise recog test,2023.1.3,59.99185303035607,
264,0,264,0,,,,,,,,,,,,,,,,,,,,,,,,,,,,,,,,,,875.9869080001954,,875.1362013001926,875.1362013001926,875.1362013001926,875.1362013001926,,new_sceneIn_15.png,265,4.0,0.8540137999225408,,75,00,2025-06-03_16h03.57.921,Surprise recog test,2023.1.3,59.99185303035607,
265,0,265,0,,,,,,,,,,,,,,,,,,,,,,,,,,,,,,,,,,877.9101546001621,878.9258990001399,877.013982700184,877.013982700184,877.013982700184,877.013982700184,,new_stationery_49.png,266,4.0,0.8963655000552535,,75,00,2025-06-03_16h03.57.921,Surprise recog test,2023.1.3,59.99185303035607,
266,0,266,0,,,,,,,,,,,,,,,,,,,,,,,,,,,,,,,,,,880.0456555001438,881.0671548000537,878.9258990001399,878.9258990001399,878.9258990001399,878.9258990001399,,new_sceneOut_1.png,267,3.0,1.1173346999567002,,75,00,2025-06-03_16h03.57.921,Surprise recog test,2023.1.3,59.99185303035607,
267,0,267,0,,,,,,,,,,,,,,,,,,,,,,,,,,,,,,,,,,881.9908036000561,882.9960006000474,881.0671548000537,881.0671548000537,881.0671548000537,881.0671548000537,,new_stationery_18.png,268,4.0,0.9241907999385148,,75,00,2025-06-03_16h03.57.921,Surprise recog test,2023.1.3,59.99185303035607,
268,0,268,0,,,,,,,,,,,,,,,,,,,,,,,,,,,,,,,,,,883.6879129000008,884.6977371000685,882.9960006000474,882.9960006000474,882.9960006000474,882.9960006000474,,old_sceneOut_23.png,269,4.0,0.6893583000637591,,75,00,2025-06-03_16h03.57.921,Surprise recog test,2023.1.3,59.99185303035607,
269,0,269,0,,,,,,,,,,,,,,,,,,,,,,,,,,,,,,,,,,885.689278600039,886.7081758000422,884.6977371000685,884.6977371000685,884.6977371000685,884.6977371000685,,new_stationery_23.png,270,3.0,0.9835113000590354,,75,00,2025-06-03_16h03.57.921,Surprise recog test,2023.1.3,59.99185303035607,
270,0,270,0,,,,,,,,,,,,,,,,,,,,,,,,,,,,,,,,,,887.4860376999713,888.4999542001169,886.7081758000422,886.7081758000422,886.7081758000422,886.7081758000422,,old_stationery_29.png,271,4.0,0.7793923001736403,,75,00,2025-06-03_16h03.57.921,Surprise recog test,2023.1.3,59.99185303035607,
271,0,271,0,,,,,,,,,,,,,,,,,,,,,,,,,,,,,,,,,,889.8130111000501,890.8187246001326,888.4999542001169,888.4999542001169,888.4999542001169,888.4999542001169,,old_fruit_13.png,272,1.0,1.3047707001678646,,75,00,2025-06-03_16h03.57.921,Surprise recog test,2023.1.3,59.99185303035607,
272,0,272,0,,,,,,,,,,,,,,,,,,,,,,,,,,,,,,,,,,892.6492480000015,893.6680617001839,890.8187246001326,890.8187246001326,890.8187246001326,890.8187246001326,,new_sceneIn_13.png,273,5.0,1.8266082000918686,,75,00,2025-06-03_16h03.57.921,Surprise recog test,2023.1.3,59.99185303035607,
273,0,273,0,,,,,,,,,,,,,,,,,,,,,,,,,,,,,,,,,,895.1277447000612,896.1427131001838,893.6680617001839,893.6680617001839,893.6680617001839,893.6680617001839,,old_sceneIn_12.png,274,3.0,1.4599859002046287,,75,00,2025-06-03_16h03.57.921,Surprise recog test,2023.1.3,59.99185303035607,
274,0,274,0,,,,,,,,,,,,,,,,,,,,,,,,,,,,,,,,,,896.9848671001382,897.9986978999805,896.1427131001838,896.1427131001838,896.1427131001838,896.1427131001838,,old_sceneOut_12.png,275,4.0,0.8379964998457581,,75,00,2025-06-03_16h03.57.921,Surprise recog test,2023.1.3,59.99185303035607,
275,0,275,0,,,,,,,,,,,,,,,,,,,,,,,,,,,,,,,,,,899.1698410999961,900.1828089000192,897.9986978999805,897.9986978999805,897.9986978999805,897.9986978999805,,new_stationery_46.png,276,3.0,1.167222699848935,,75,00,2025-06-03_16h03.57.921,Surprise recog test,2023.1.3,59.99185303035607,
276,0,276,0,,,,,,,,,,,,,,,,,,,,,,,,,,,,,,,,,,901.365196299972,902.3919305000454,900.1828089000192,900.1828089000192,900.1828089000192,900.1828089000192,,new_sceneOut_22.png,277,4.0,1.1825880000833422,,75,00,2025-06-03_16h03.57.921,Surprise recog test,2023.1.3,59.99185303035607,
277,0,277,0,,,,,,,,,,,,,,,,,,,,,,,,,,,,,,,,,,903.2908922000788,904.3080716000404,902.3919305000454,902.3919305000454,902.3919305000454,902.3919305000454,,new_sceneIn_14.png,278,4.0,0.8989032998215407,,75,00,2025-06-03_16h03.57.921,Surprise recog test,2023.1.3,59.99185303035607,
278,0,278,0,,,,,,,,,,,,,,,,,,,,,,,,,,,,,,,,,,905.624971400015,906.6413594000041,904.3080716000404,904.3080716000404,904.3080716000404,904.3080716000404,,old_stationery_36.png,279,3.0,1.3169456999748945,,75,00,2025-06-03_16h03.57.921,Surprise recog test,2023.1.3,59.99185303035607,
279,0,279,0,,,,,,,,,,,,,,,,,,,,,,,,,,,,,,,,,,907.9799409999978,,906.6413594000041,906.6413594000041,906.6413594000041,906.6413594000041,,new_stationery_8.png,280,4.0,1.3406424999702722,,75,00,2025-06-03_16h03.57.921,Surprise recog test,2023.1.3,59.99185303035607,
280,0,280,0,,,,,,,,,,,,,,,,,,,,,,,,,,,,,,,,,,910.2551955000963,911.2712032001,909.0154760000296,909.0154760000296,909.0154760000296,909.0154760000296,,old_fruit_2.png,281,1.0,1.2408432001248002,,75,00,2025-06-03_16h03.57.921,Surprise recog test,2023.1.3,59.99185303035607,
281,0,281,0,,,,,,,,,,,,,,,,,,,,,,,,,,,,,,,,,,912.4456659001298,913.4694465000648,911.2712032001,911.2712032001,911.2712032001,911.2712032001,,old_sceneOut_25.png,282,3.0,1.1704035000875592,,75,00,2025-06-03_16h03.57.921,Surprise recog test,2023.1.3,59.99185303035607,
282,0,282,0,,,,,,,,,,,,,,,,,,,,,,,,,,,,,,,,,,914.4426498000976,915.4581059999764,913.4694465000648,913.4694465000648,913.4694465000648,913.4694465000648,,old_stationery_22.png,283,4.0,0.9758001998998225,,75,00,2025-06-03_16h03.57.921,Surprise recog test,2023.1.3,59.99185303035607,
283,0,283,0,,,,,,,,,,,,,,,,,,,,,,,,,,,,,,,,,,916.2556464001536,,915.4581059999764,915.4581059999764,915.4581059999764,915.4581059999764,,new_sceneIn_46.png,284,4.0,0.7932448000647128,,75,00,2025-06-03_16h03.57.921,Surprise recog test,2023.1.3,59.99185303035607,
284,0,284,0,,,,,,,,,,,,,,,,,,,,,,,,,,,,,,,,,,918.0411529999692,919.0725518001709,917.2884097001515,917.2884097001515,917.2884097001515,917.2884097001515,,old_sceneIn_35.png,285,4.0,0.7541636999230832,,75,00,2025-06-03_16h03.57.921,Surprise recog test,2023.1.3,59.99185303035607,
285,0,285,0,,,,,,,,,,,,,,,,,,,,,,,,,,,,,,,,,,920.1881807001773,921.2087040999904,919.0725518001709,919.0725518001709,919.0725518001709,919.0725518001709,,new_fruit_7.png,286,2.0,1.1115376998204738,,75,00,2025-06-03_16h03.57.921,Surprise recog test,2023.1.3,59.99185303035607,
286,0,286,0,,,,,,,,,,,,,,,,,,,,,,,,,,,,,,,,,,922.156533200061,923.1828377000056,921.2087040999904,921.2087040999904,921.2087040999904,921.2087040999904,,new_sceneOut_12.png,287,3.0,0.9457435999065638,,75,00,2025-06-03_16h03.57.921,Surprise recog test,2023.1.3,59.99185303035607,
287,0,287,0,,,,,,,,,,,,,,,,,,,,,,,,,,,,,,,,,,924.0554653001018,925.0676597000565,923.1828377000056,923.1828377000056,923.1828377000056,923.1828377000056,,old_stationery_12.png,288,4.0,0.8758753000292927,,75,00,2025-06-03_16h03.57.921,Surprise recog test,2023.1.3,59.99185303035607,
288,0,288,0,,,,,,,,,,,,,,,,,,,,,,,,,,,,,,,,,,926.2561117999721,927.2778374000918,925.0676597000565,925.0676597000565,925.0676597000565,925.0676597000565,,new_stationery_35.png,289,3.0,1.186065300134942,,75,00,2025-06-03_16h03.57.921,Surprise recog test,2023.1.3,59.99185303035607,
289,0,289,0,,,,,,,,,,,,,,,,,,,,,,,,,,,,,,,,,,928.3316589000169,,927.2778374000918,927.2778374000918,927.2778374000918,927.2778374000918,,old_sceneIn_32.png,290,3.0,1.054149999981746,,75,00,2025-06-03_16h03.57.921,Surprise recog test,2023.1.3,59.99185303035607,
290,0,290,0,,,,,,,,,,,,,,,,,,,,,,,,,,,,,,,,,,930.2799876001664,931.293795700185,929.3609596001916,929.3609596001916,929.3609596001916,929.3609596001916,,old_sceneOut_18.png,291,4.0,0.9135612999089062,,75,00,2025-06-03_16h03.57.921,Surprise recog test,2023.1.3,59.99185303035607,
291,0,291,0,,,,,,,,,,,,,,,,,,,,,,,,,,,,,,,,,,932.0863853001501,933.1131669001188,931.293795700185,931.293795700185,931.293795700185,931.293795700185,,new_sceneIn_37.png,292,4.0,0.7937652000691742,,75,00,2025-06-03_16h03.57.921,Surprise recog test,2023.1.3,59.99185303035607,
292,0,292,0,,,,,,,,,,,,,,,,,,,,,,,,,,,,,,,,,,933.8464836999774,934.8649290001485,933.1131669001188,933.1131669001188,933.1131669001188,933.1131669001188,,new_sceneOut_34.png,293,4.0,0.7351730999071151,,75,00,2025-06-03_16h03.57.921,Surprise recog test,2023.1.3,59.99185303035607,
293,0,293,0,,,,,,,,,,,,,,,,,,,,,,,,,,,,,,,,,,936.2342319001909,937.2475711000152,934.8649290001485,934.8649290001485,934.8649290001485,934.8649290001485,,old_fruit_41.png,294,1.0,1.371294200187549,,75,00,2025-06-03_16h03.57.921,Surprise recog test,2023.1.3,59.99185303035607,
294,0,294,0,,,,,,,,,,,,,,,,,,,,,,,,,,,,,,,,,,938.4326896001585,939.4460656000301,937.2475711000152,937.2475711000152,937.2475711000152,937.2475711000152,,new_stationery_13.png,295,3.0,1.1850686999969184,,75,00,2025-06-03_16h03.57.921,Surprise recog test,2023.1.3,59.99185303035607,
295,0,295,0,,,,,,,,,,,,,,,,,,,,,,,,,,,,,,,,,,940.7297502001747,941.7563918000087,939.4460656000301,939.4460656000301,939.4460656000301,939.4460656000301,,old_stationery_8.png,296,3.0,1.281482799910009,,75,00,2025-06-03_16h03.57.921,Surprise recog test,2023.1.3,59.99185303035607,
296,0,296,0,,,,,,,,,,,,,,,,,,,,,,,,,,,,,,,,,,942.9127611999866,943.9445560001768,941.7563918000087,941.7563918000087,941.7563918000087,941.7563918000087,,old_sceneIn_7.png,297,4.0,1.157676399918273,,75,00,2025-06-03_16h03.57.921,Surprise recog test,2023.1.3,59.99185303035607,
297,0,297,0,,,,,,,,,,,,,,,,,,,,,,,,,,,,,,,,,,944.747255400056,945.7645794001874,943.9445560001768,943.9445560001768,943.9445560001768,943.9445560001768,,new_stationery_47.png,298,4.0,0.8058017999865115,,75,00,2025-06-03_16h03.57.921,Surprise recog test,2023.1.3,59.99185303035607,
298,0,298,0,,,,,,,,,,,,,,,,,,,,,,,,,,,,,,,,,,946.4677707001101,947.5008223000914,945.7645794001874,945.7645794001874,945.7645794001874,945.7645794001874,,new_stationery_42.png,299,4.0,0.6970867000054568,,75,00,2025-06-03_16h03.57.921,Surprise recog test,2023.1.3,59.99185303035607,
299,0,299,0,,,,,,,,,,,,,,,,,,,,,,,,,,,,,,,,,,948.978817500174,950.0018808001187,947.5008223000914,947.5008223000914,947.5008223000914,947.5008223000914,,new_fruit_48.png,300,2.0,1.4817831998225302,,75,00,2025-06-03_16h03.57.921,Surprise recog test,2023.1.3,59.99185303035607,
300,0,300,0,,,,,,,,,,,,,,,,,,,,,,,,,,,,,,,,,,953.5957323000766,954.6166247001383,950.0018808001187,950.0018808001187,950.0018808001187,950.0018808001187,,old_sceneOut_8.png,301,2.0,3.596416800050065,,75,00,2025-06-03_16h03.57.921,Surprise recog test,2023.1.3,59.99185303035607,
301,0,301,0,,,,,,,,,,,,,,,,,,,,,,,,,,,,,,,,,,955.7912039000075,956.8211749000475,954.6166247001383,954.6166247001383,954.6166247001383,954.6166247001383,,new_stationery_17.png,302,3.0,1.1751455999910831,,75,00,2025-06-03_16h03.57.921,Surprise recog test,2023.1.3,59.99185303035607,
302,0,302,0,,,,,,,,,,,,,,,,,,,,,,,,,,,,,,,,,,958.0872548001353,959.0941579001956,956.8211749000475,956.8211749000475,956.8211749000475,956.8211749000475,,old_fruit_47.png,303,1.0,1.2680923999287188,,75,00,2025-06-03_16h03.57.921,Surprise recog test,2023.1.3,59.99185303035607,
303,0,303,0,,,,,,,,,,,,,,,,,,,,,,,,,,,,,,,,,,960.0213642001618,961.0443367001135,959.0941579001956,959.0941579001956,959.0941579001956,959.0941579001956,,old_sceneOut_33.png,304,4.0,0.9165666999761015,,75,00,2025-06-03_16h03.57.921,Surprise recog test,2023.1.3,59.99185303035607,
304,0,304,0,,,,,,,,,,,,,,,,,,,,,,,,,,,,,,,,,,962.2876761001535,963.2981505000498,961.0443367001135,961.0443367001135,961.0443367001135,961.0443367001135,,new_stationery_9.png,305,4.0,1.2445183000527322,,75,00,2025-06-03_16h03.57.921,Surprise recog test,2023.1.3,59.99185303035607,
305,0,305,0,,,,,,,,,,,,,,,,,,,,,,,,,,,,,,,,,,965.0899228001945,966.1147129000165,963.2981505000498,963.2981505000498,963.2981505000498,963.2981505000498,,new_fruit_30.png,306,2.0,1.7848291001282632,,75,00,2025-06-03_16h03.57.921,Surprise recog test,2023.1.3,59.99185303035607,
306,0,306,0,,,,,,,,,,,,,,,,,,,,,,,,,,,,,,,,,,966.9249442000873,967.9450028000865,966.1147129000165,966.1147129000165,966.1147129000165,966.1147129000165,,new_fruit_45.png,307,2.0,0.8138566000852734,,75,00,2025-06-03_16h03.57.921,Surprise recog test,2023.1.3,59.99185303035607,
307,0,307,0,,,,,,,,,,,,,,,,,,,,,,,,,,,,,,,,,,969.2665629000403,,967.9450028000865,967.9450028000865,967.9450028000865,967.9450028000865,,old_stationery_39.png,308,4.0,1.3208127999678254,,75,00,2025-06-03_16h03.57.921,Surprise recog test,2023.1.3,59.99185303035607,
308,0,308,0,,,,,,,,,,,,,,,,,,,,,,,,,,,,,,,,,,971.6276830001734,972.6517322000582,970.3024367999751,970.3024367999751,970.3024367999751,970.3024367999751,,old_fruit_40.png,309,2.0,1.3294412000104785,,75,00,2025-06-03_16h03.57.921,Surprise recog test,2023.1.3,59.99185303035607,
309,0,309,0,,,,,,,,,,,,,,,,,,,,,,,,,,,,,,,,,,974.1140068001114,975.1308625000529,972.6517322000582,972.6517322000582,972.6517322000582,972.6517322000582,,new_sceneIn_40.png,310,4.0,1.46129470015876,,75,00,2025-06-03_16h03.57.921,Surprise recog test,2023.1.3,59.99185303035607,
310,0,310,0,,,,,,,,,,,,,,,,,,,,,,,,,,,,,,,,,,977.9265852000099,978.9435850000009,975.1308625000529,975.1308625000529,975.1308625000529,975.1308625000529,,new_sceneOut_25.png,311,4.0,2.7947261999361217,,75,00,2025-06-03_16h03.57.921,Surprise recog test,2023.1.3,59.99185303035607,
311,0,311,0,,,,,,,,,,,,,,,,,,,,,,,,,,,,,,,,,,980.5551045001484,981.5680392000359,978.9435850000009,978.9435850000009,978.9435850000009,978.9435850000009,,new_fruit_6.png,312,2.0,1.6036682000849396,,75,00,2025-06-03_16h03.57.921,Surprise recog test,2023.1.3,59.99185303035607,
312,0,312,0,,,,,,,,,,,,,,,,,,,,,,,,,,,,,,,,,,982.7999433001969,983.8161572001409,981.5680392000359,981.5680392000359,981.5680392000359,981.5680392000359,,new_sceneOut_5.png,313,4.0,1.2318945000879467,,75,00,2025-06-03_16h03.57.921,Surprise recog test,2023.1.3,59.99185303035607,
313,0,313,0,,,,,,,,,,,,,,,,,,,,,,,,,,,,,,,,,,985.2847232001368,986.3100823001005,983.8161572001409,983.8161572001409,983.8161572001409,983.8161572001409,,old_fruit_37.png,314,2.0,1.4617626999970526,,75,00,2025-06-03_16h03.57.921,Surprise recog test,2023.1.3,59.99185303035607,
314,0,314,0,,,,,,,,,,,,,,,,,,,,,,,,,,,,,,,,,,988.4742280000355,989.5063551000785,986.3100823001005,986.3100823001005,986.3100823001005,986.3100823001005,,old_sceneIn_22.png,315,3.0,2.1653949001338333,,75,00,2025-06-03_16h03.57.921,Surprise recog test,2023.1.3,59.99185303035607,
315,0,315,0,,,,,,,,,,,,,,,,,,,,,,,,,,,,,,,,,,990.5476012001745,991.5651339001488,989.5063551000785,989.5063551000785,989.5063551000785,989.5063551000785,,new_fruit_36.png,316,2.0,1.0454456000588834,,75,00,2025-06-03_16h03.57.921,Surprise recog test,2023.1.3,59.99185303035607,
316,0,316,0,,,,,,,,,,,,,,,,,,,,,,,,,,,,,,,,,,992.8403688000981,993.8696167001035,991.5651339001488,991.5651339001488,991.5651339001488,991.5651339001488,,new_stationery_31.png,317,4.0,1.2759823000524193,,75,00,2025-06-03_16h03.57.921,Surprise recog test,2023.1.3,59.99185303035607,
317,0,317,0,,,,,,,,,,,,,,,,,,,,,,,,,,,,,,,,,,995.02354319999,996.045657900162,993.8696167001035,993.8696167001035,993.8696167001035,993.8696167001035,,old_fruit_22.png,318,2.0,1.1546030000317842,,75,00,2025-06-03_16h03.57.921,Surprise recog test,2023.1.3,59.99185303035607,
318,0,318,0,,,,,,,,,,,,,,,,,,,,,,,,,,,,,,,,,,997.3925061000045,998.4241069001146,996.045657900162,996.045657900162,996.045657900162,996.045657900162,,new_fruit_2.png,319,2.0,1.3465692999307066,,75,00,2025-06-03_16h03.57.921,Surprise recog test,2023.1.3,59.99185303035607,
319,0,319,0,,,,,,,,,,,,,,,,,,,,,,,,,,,,,,,,,,1000.0136782000773,1001.0294276999775,998.4241069001146,998.4241069001146,998.4241069001146,998.4241069001146,,new_sceneOut_37.png,320,4.0,1.5927407001145184,,75,00,2025-06-03_16h03.57.921,Surprise recog test,2023.1.3,59.99185303035607,
320,0,320,0,,,,,,,,,,,,,,,,,,,,,,,,,,,,,,,,,,1002.582763900049,1003.6053025000729,1001.0294276999775,1001.0294276999775,1001.0294276999775,1001.0294276999775,,old_fruit_34.png,321,2.0,1.546898900065571,,75,00,2025-06-03_16h03.57.921,Surprise recog test,2023.1.3,59.99185303035607,
321,0,321,0,,,,,,,,,,,,,,,,,,,,,,,,,,,,,,,,,,1008.5991199000273,,1003.6053025000729,1003.6053025000729,1003.6053025000729,1003.6053025000729,1008.5799667001702,old_sceneIn_47.png,322,None,None,,75,00,2025-06-03_16h03.57.921,Surprise recog test,2023.1.3,59.99185303035607,
322,0,322,0,,,,,,,,,,,,,,,,,,,,,,,,,,,,,,,,,,1010.3816774000879,1011.3887009001337,1009.6122601001989,1009.6122601001989,1009.6122601001989,1009.6122601001989,,new_stationery_11.png,323,4.0,0.7695992002263665,,75,00,2025-06-03_16h03.57.921,Surprise recog test,2023.1.3,59.99185303035607,
323,0,323,0,,,,,,,,,,,,,,,,,,,,,,,,,,,,,,,,,,1012.4329155001324,1013.4398937001824,1011.3887009001337,1011.3887009001337,1011.3887009001337,1011.3887009001337,,new_sceneIn_42.png,324,4.0,1.0389653998427093,,75,00,2025-06-03_16h03.57.921,Surprise recog test,2023.1.3,59.99185303035607,
324,0,324,0,,,,,,,,,,,,,,,,,,,,,,,,,,,,,,,,,,1015.6827225000598,1016.7094323001802,1013.4398937001824,1013.4398937001824,1013.4398937001824,1013.4398937001824,,new_sceneOut_41.png,325,4.0,2.237914400175214,,75,00,2025-06-03_16h03.57.921,Surprise recog test,2023.1.3,59.99185303035607,
325,0,325,0,,,,,,,,,,,,,,,,,,,,,,,,,,,,,,,,,,1017.5545119000599,1018.5713577000424,1016.7094323001802,1016.7094323001802,1016.7094323001802,1016.7094323001802,,new_sceneIn_17.png,326,4.0,0.8493554999586195,,75,00,2025-06-03_16h03.57.921,Surprise recog test,2023.1.3,59.99185303035607,
326,0,326,0,,,,,,,,,,,,,,,,,,,,,,,,,,,,,,,,,,1020.2910888001788,,1018.5713577000424,1018.5713577000424,1018.5713577000424,1018.5713577000424,,old_fruit_48.png,327,2.0,1.718622999964282,,75,00,2025-06-03_16h03.57.921,Surprise recog test,2023.1.3,59.99185303035607,
327,0,327,0,,,,,,,,,,,,,,,,,,,,,,,,,,,,,,,,,,1022.6506116001401,1023.6693992000073,1021.3205025000498,1021.3205025000498,1021.3205025000498,1021.3205025000498,,new_stationery_21.png,328,4.0,1.3283875999040902,,75,00,2025-06-03_16h03.57.921,Surprise recog test,2023.1.3,59.99185303035607,
328,0,328,0,,,,,,,,,,,,,,,,,,,,,,,,,,,,,,,,,,1024.9671300000045,1025.9814591000322,1023.6693992000073,1023.6693992000073,1023.6693992000073,1023.6693992000073,,new_fruit_41.png,329,3.0,1.2940130999777466,,75,00,2025-06-03_16h03.57.921,Surprise recog test,2023.1.3,59.99185303035607,
329,0,329,0,,,,,,,,,,,,,,,,,,,,,,,,,,,,,,,,,,1027.3240851000883,1028.3403221000917,1025.9814591000322,1025.9814591000322,1025.9814591000322,1025.9814591000322,,new_stationery_20.png,330,4.0,1.339767900062725,,75,00,2025-06-03_16h03.57.921,Surprise recog test,2023.1.3,59.99185303035607,
330,0,330,0,,,,,,,,,,,,,,,,,,,,,,,,,,,,,,,,,,1029.1266833001282,1030.1504506000783,1028.3403221000917,1028.3403221000917,1028.3403221000917,1028.3403221000917,,old_stationery_42.png,331,4.0,0.785440000006929,,75,00,2025-06-03_16h03.57.921,Surprise recog test,2023.1.3,59.99185303035607,
331,0,331,0,,,,,,,,,,,,,,,,,,,,,,,,,,,,,,,,,,1031.225027000066,1032.2458405999932,1030.1504506000783,1030.1504506000783,1030.1504506000783,1030.1504506000783,,old_sceneIn_16.png,332,4.0,1.076376099837944,,75,00,2025-06-03_16h03.57.921,Surprise recog test,2023.1.3,59.99185303035607,
332,0,332,0,,,,,,,,,,,,,,,,,,,,,,,,,,,,,,,,,,1033.0831379001029,1034.1025960000698,1032.2458405999932,1032.2458405999932,1032.2458405999932,1032.2458405999932,,old_sceneIn_21.png,333,4.0,0.8393366001546383,,75,00,2025-06-03_16h03.57.921,Surprise recog test,2023.1.3,59.99185303035607,
333,0,333,0,,,,,,,,,,,,,,,,,,,,,,,,,,,,,,,,,,1035.6175465001725,1036.6328673001844,1034.1025960000698,1034.1025960000698,1034.1025960000698,1034.1025960000698,,new_fruit_29.png,334,4.0,1.5111416999716312,,75,00,2025-06-03_16h03.57.921,Surprise recog test,2023.1.3,59.99185303035607,
334,0,334,0,,,,,,,,,,,,,,,,,,,,,,,,,,,,,,,,,,1037.5362001999747,1038.5528897000477,1036.6328673001844,1036.6328673001844,1036.6328673001844,1036.6328673001844,,old_stationery_5.png,335,4.0,0.9044876999687403,,75,00,2025-06-03_16h03.57.921,Surprise recog test,2023.1.3,59.99185303035607,
335,0,335,0,,,,,,,,,,,,,,,,,,,,,,,,,,,,,,,,,,1040.0334249001462,1041.0466958000325,1038.5528897000477,1038.5528897000477,1038.5528897000477,1038.5528897000477,,old_fruit_7.png,336,2.0,1.4802244999445975,,75,00,2025-06-03_16h03.57.921,Surprise recog test,2023.1.3,59.99185303035607,
336,0,336,0,,,,,,,,,,,,,,,,,,,,,,,,,,,,,,,,,,1042.906980900094,1043.9277737000957,1041.0466958000325,1041.0466958000325,1041.0466958000325,1041.0466958000325,,new_sceneOut_23.png,337,4.0,1.849596800049767,,75,00,2025-06-03_16h03.57.921,Surprise recog test,2023.1.3,59.99185303035607,
337,0,337,0,,,,,,,,,,,,,,,,,,,,,,,,,,,,,,,,,,1045.0995822001714,1046.11405510013,1043.9277737000957,1043.9277737000957,1043.9277737000957,1043.9277737000957,,old_sceneIn_2.png,338,4.0,1.1748472000472248,,75,00,2025-06-03_16h03.57.921,Surprise recog test,2023.1.3,59.99185303035607,
338,0,338,0,,,,,,,,,,,,,,,,,,,,,,,,,,,,,,,,,,1047.4641372000333,,1046.11405510013,1046.11405510013,1046.11405510013,1046.11405510013,,old_fruit_21.png,339,1.0,1.3464166999328882,,75,00,2025-06-03_16h03.57.921,Surprise recog test,2023.1.3,59.99185303035607,
339,0,339,0,,,,,,,,,,,,,,,,,,,,,,,,,,,,,,,,,,1050.484119700035,,1048.4952185000293,1048.4952185000293,1048.4952185000293,1048.4952185000293,,new_sceneOut_27.png,340,4.0,1.991088599897921,,75,00,2025-06-03_16h03.57.921,Surprise recog test,2023.1.3,59.99185303035607,
340,0,340,0,,,,,,,,,,,,,,,,,,,,,,,,,,,,,,,,,,1052.9551181001589,1053.978827800136,1051.5048120000865,1051.5048120000865,1051.5048120000865,1051.5048120000865,,new_sceneIn_1.png,341,4.0,1.4441829998977482,,75,00,2025-06-03_16h03.57.921,Surprise recog test,2023.1.3,59.99185303035607,
341,0,341,0,,,,,,,,,,,,,,,,,,,,,,,,,,,,,,,,,,1055.3266494001728,1056.3524294001982,1053.978827800136,1053.978827800136,1053.978827800136,1053.978827800136,,old_stationery_45.png,342,4.0,1.344461499946192,,75,00,2025-06-03_16h03.57.921,Surprise recog test,2023.1.3,59.99185303035607,
342,0,342,0,,,,,,,,,,,,,,,,,,,,,,,,,,,,,,,,,,1057.9586569000967,1058.98782759998,1056.3524294001982,1056.3524294001982,1056.3524294001982,1056.3524294001982,,old_fruit_28.png,343,2.0,1.6039652000181377,,75,00,2025-06-03_16h03.57.921,Surprise recog test,2023.1.3,59.99185303035607,
343,0,343,0,,,,,,,,,,,,,,,,,,,,,,,,,,,,,,,,,,1060.185275200056,1061.2025399999693,1058.98782759998,1058.98782759998,1058.98782759998,1058.98782759998,,old_sceneOut_34.png,344,3.0,1.199179100105539,,75,00,2025-06-03_16h03.57.921,Surprise recog test,2023.1.3,59.99185303035607,
344,0,344,0,,,,,,,,,,,,,,,,,,,,,,,,,,,,,,,,,,1062.7624107999727,1063.7926090999972,1061.2025399999693,1061.2025399999693,1061.2025399999693,1061.2025399999693,,new_stationery_37.png,345,4.0,1.5593784998636693,,75,00,2025-06-03_16h03.57.921,Surprise recog test,2023.1.3,59.99185303035607,
345,0,345,0,,,,,,,,,,,,,,,,,,,,,,,,,,,,,,,,,,1064.7042125000153,1065.7283432001714,1063.7926090999972,1063.7926090999972,1063.7926090999972,1063.7926090999972,,new_sceneIn_49.png,346,4.0,0.9141420000232756,,75,00,2025-06-03_16h03.57.921,Surprise recog test,2023.1.3,59.99185303035607,
346,0,346,0,,,,,,,,,,,,,,,,,,,,,,,,,,,,,,,,,,1066.9472004000563,,1065.7283432001714,1065.7283432001714,1065.7283432001714,1065.7283432001714,,new_sceneIn_33.png,347,4.0,1.220193900167942,,75,00,2025-06-03_16h03.57.921,Surprise recog test,2023.1.3,59.99185303035607,
347,0,347,0,,,,,,,,,,,,,,,,,,,,,,,,,,,,,,,,,,1068.8228931999765,1069.8369206001516,1067.968377900077,1067.968377900077,1067.968377900077,1067.968377900077,,old_sceneOut_22.png,348,4.0,0.8491519000381231,,75,00,2025-06-03_16h03.57.921,Surprise recog test,2023.1.3,59.99185303035607,
348,0,348,0,,,,,,,,,,,,,,,,,,,,,,,,,,,,,,,,,,1071.4477977000643,1072.4540866999887,1069.8369206001516,1069.8369206001516,1069.8369206001516,1069.8369206001516,,old_stationery_30.png,349,4.0,1.6056409999728203,,75,00,2025-06-03_16h03.57.921,Surprise recog test,2023.1.3,59.99185303035607,
349,0,349,0,,,,,,,,,,,,,,,,,,,,,,,,,,,,,,,,,,1073.9277127999812,1074.9616430001333,1072.4540866999887,1072.4540866999887,1072.4540866999887,1072.4540866999887,,old_fruit_50.png,350,2.0,1.4709212000016123,,75,00,2025-06-03_16h03.57.921,Surprise recog test,2023.1.3,59.99185303035607,
350,0,350,0,,,,,,,,,,,,,,,,,,,,,,,,,,,,,,,,,,1076.7571211000904,1077.775399300037,1074.9616430001333,1074.9616430001333,1074.9616430001333,1074.9616430001333,,new_sceneIn_22.png,351,4.0,1.7980902001727372,,75,00,2025-06-03_16h03.57.921,Surprise recog test,2023.1.3,59.99185303035607,
351,0,351,0,,,,,,,,,,,,,,,,,,,,,,,,,,,,,,,,,,1080.2570543000475,,1077.775399300037,1077.775399300037,1077.775399300037,1077.775399300037,,new_fruit_3.png,352,4.0,2.4807096000295132,,75,00,2025-06-03_16h03.57.921,Surprise recog test,2023.1.3,59.99185303035607,
352,0,352,0,,,,,,,,,,,,,,,,,,,,,,,,,,,,,,,,,,1082.499831699999,1083.5210629000794,1081.2859174001496,1081.2859174001496,1081.2859174001496,1081.2859174001496,,new_sceneIn_50.png,353,4.0,1.2149122999981046,,75,00,2025-06-03_16h03.57.921,Surprise recog test,2023.1.3,59.99185303035607,
353,0,353,0,,,,,,,,,,,,,,,,,,,,,,,,,,,,,,,,,,1086.1053742000367,1087.1309438999742,1083.5210629000794,1083.5210629000794,1083.5210629000794,1083.5210629000794,,old_sceneOut_28.png,354,2.0,2.585297100013122,,75,00,2025-06-03_16h03.57.921,Surprise recog test,2023.1.3,59.99185303035607,
