trial_loop.thisRepN,trial_loop.thisTrialN,trial_loop.thisN,trial_loop.thisIndex,VAS_slider.started,VAS_text.started,VAS_notstressed_text.started,VAS_stressed_text.started,continue_input.started,continue_text.started,label0.started,label10.started,label20.started,label30.started,label40.started,label50.started,label60.started,label70.started,label80.started,label90.started,label100.started,VAS_slider.response,VAS_slider.rt,VAS_slider.history,Answer_VAS,continue_input.keys,instruction_text.started,continue_text_2.started,continue_input_2.started,continue_input_2.keys,continue_input_2.rt,continue_input_2.duration,example_text.started,example_slider_2.started,example_image.started,example_slider_2.response,example_slider_2.rt,fixcross.started,fixcross.stopped,front_square.started,stim_images.started,trial_inst_images.started,slider_images.started,thisImg,trial_count,slider_images.response,slider_images.rt,slider_images.stopped,outro.started,participant,condition,date,expName,psychopyVersion,frameRate,
,,,,108.53282140009105,108.53282140009105,108.53282140009105,108.53282140009105,108.53282140009105,108.53282140009105,108.53282140009105,108.53282140009105,108.53282140009105,108.53282140009105,108.53282140009105,108.53282140009105,108.53282140009105,108.53282140009105,108.53282140009105,108.53282140009105,108.53282140009105,1.983333333333333,7.4489302998408675,"[(1.983333333333333, 7.4489302998408675)]",1.983333333333333,None,,,,,,,,,,,,,,,,,,,,,,,,id011,1,2024-10-18_14h01.51.259,Surprise recog test,2023.1.3,59.92153879538237,
,,,,,,,,,,,,,,,,,,,,,,,,,,116.00715690013021,116.00715690013021,116.00715690013021,space,22.53082689992152,None,,,,,,,,,,,,,,,,,,id011,1,2024-10-18_14h01.51.259,Surprise recog test,2023.1.3,59.92153879538237,
0,0,0,0,,,,,,,,,,,,,,,,,,,,,,,,,,,,,138.68379559996538,138.68379559996538,138.68379559996538,5.0,3.0601917998865247,145.29889039997943,146.31471020006575,142.68878430011682,142.68878430011682,142.68878430011682,142.68878430011682,old_fruit_25.png,1,2.0,2.6171172000467777,,,id011,1,2024-10-18_14h01.51.259,Surprise recog test,2023.1.3,59.92153879538237,
1,0,1,0,,,,,,,,,,,,,,,,,,,,,,,,,,,,,,,,,,148.4233856999781,,146.31471020006575,146.31471020006575,146.31471020006575,146.31471020006575,new_fruit_43.png,2,4.0,2.1089866999536753,,,id011,1,2024-10-18_14h01.51.259,Surprise recog test,2023.1.3,59.92153879538237,
2,0,2,0,,,,,,,,,,,,,,,,,,,,,,,,,,,,,,,,,,151.74954940006137,152.76332399994135,149.4473135001026,149.4473135001026,149.4473135001026,149.4473135001026,old_sceneIn_31.png,3,4.0,2.303232900099829,,,id011,1,2024-10-18_14h01.51.259,Surprise recog test,2023.1.3,59.92153879538237,
3,0,3,0,,,,,,,,,,,,,,,,,,,,,,,,,,,,,,,,,,154.34550189995207,,152.76332399994135,152.76332399994135,152.76332399994135,152.76332399994135,new_stationery_12.png,4,1.0,1.5786377000622451,,,id011,1,2024-10-18_14h01.51.259,Surprise recog test,2023.1.3,59.92153879538237,
4,0,4,0,,,,,,,,,,,,,,,,,,,,,,,,,,,,,,,,,,156.66218500002287,,155.37222189991735,155.37222189991735,155.37222189991735,155.37222189991735,new_sceneIn_23.png,5,1.0,1.2894995000679046,,,id011,1,2024-10-18_14h01.51.259,Surprise recog test,2023.1.3,59.92153879538237,
5,0,5,0,,,,,,,,,,,,,,,,,,,,,,,,,,,,,,,,,,159.27932909992523,160.29886300000362,157.68288860004395,157.68288860004395,157.68288860004395,157.68288860004395,old_sceneOut_24.png,6,2.0,1.5938138999044895,,,id011,1,2024-10-18_14h01.51.259,Surprise recog test,2023.1.3,59.92153879538237,
6,0,6,0,,,,,,,,,,,,,,,,,,,,,,,,,,,,,,,,,,162.29243019991554,163.31005530012771,160.29886300000362,160.29886300000362,160.29886300000362,160.29886300000362,old_stationery_32.png,7,3.0,1.9949430001433939,,,id011,1,2024-10-18_14h01.51.259,Surprise recog test,2023.1.3,59.92153879538237,
7,0,7,0,,,,,,,,,,,,,,,,,,,,,,,,,,,,,,,,,,165.20054340013303,166.20983149996027,163.31005530012771,163.31005530012771,163.31005530012771,163.31005530012771,new_stationery_8.png,8,5.0,1.8905877000652254,,,id011,1,2024-10-18_14h01.51.259,Surprise recog test,2023.1.3,59.92153879538237,
8,0,8,0,,,,,,,,,,,,,,,,,,,,,,,,,,,,,,,,,,168.2781452999916,169.2928796999622,166.20983149996027,166.20983149996027,166.20983149996027,166.20983149996027,new_stationery_7.png,9,1.0,2.0652079000137746,,,id011,1,2024-10-18_14h01.51.259,Surprise recog test,2023.1.3,59.92153879538237,
9,0,9,0,,,,,,,,,,,,,,,,,,,,,,,,,,,,,,,,,,171.00580259994604,172.01234339992516,169.2928796999622,169.2928796999622,169.2928796999622,169.2928796999622,new_fruit_14.png,10,2.0,1.7034519000444561,,,id011,1,2024-10-18_14h01.51.259,Surprise recog test,2023.1.3,59.92153879538237,
10,0,10,0,,,,,,,,,,,,,,,,,,,,,,,,,,,,,,,,,,174.97543069999665,175.98204530007206,172.01234339992516,172.01234339992516,172.01234339992516,172.01234339992516,new_sceneOut_8.png,11,3.0,2.9571302998811007,,,id011,1,2024-10-18_14h01.51.259,Surprise recog test,2023.1.3,59.92153879538237,
11,0,11,0,,,,,,,,,,,,,,,,,,,,,,,,,,,,,,,,,,179.4123734999448,180.4197972000111,175.98204530007206,175.98204530007206,175.98204530007206,175.98204530007206,new_sceneIn_13.png,12,3.0,3.426668200176209,,,id011,1,2024-10-18_14h01.51.259,Surprise recog test,2023.1.3,59.92153879538237,
12,0,12,0,,,,,,,,,,,,,,,,,,,,,,,,,,,,,,,,,,181.7985283001326,182.80301259993576,180.4197972000111,180.4197972000111,180.4197972000111,180.4197972000111,new_sceneIn_3.png,13,3.0,1.3742170999757946,,,id011,1,2024-10-18_14h01.51.259,Surprise recog test,2023.1.3,59.92153879538237,
13,0,13,0,,,,,,,,,,,,,,,,,,,,,,,,,,,,,,,,,,185.58100070012733,186.59023689990863,182.80301259993576,182.80301259993576,182.80301259993576,182.80301259993576,new_fruit_38.png,14,2.0,2.7718990000430495,,,id011,1,2024-10-18_14h01.51.259,Surprise recog test,2023.1.3,59.92153879538237,
14,0,14,0,,,,,,,,,,,,,,,,,,,,,,,,,,,,,,,,,,189.01425960008055,190.03601939999498,186.59023689990863,186.59023689990863,186.59023689990863,186.59023689990863,new_sceneIn_8.png,15,3.0,2.419020100031048,,,id011,1,2024-10-18_14h01.51.259,Surprise recog test,2023.1.3,59.92153879538237,
15,0,15,0,,,,,,,,,,,,,,,,,,,,,,,,,,,,,,,,,,191.2067172001116,192.22631369996816,190.03601939999498,190.03601939999498,190.03601939999498,190.03601939999498,new_sceneIn_43.png,16,1.0,1.1675375001505017,,,id011,1,2024-10-18_14h01.51.259,Surprise recog test,2023.1.3,59.92153879538237,
16,0,16,0,,,,,,,,,,,,,,,,,,,,,,,,,,,,,,,,,,193.6715468999464,194.6941436000634,192.22631369996816,192.22631369996816,192.22631369996816,192.22631369996816,new_stationery_40.png,17,4.0,1.4455738000106066,,,id011,1,2024-10-18_14h01.51.259,Surprise recog test,2023.1.3,59.92153879538237,
17,0,17,0,,,,,,,,,,,,,,,,,,,,,,,,,,,,,,,,,,196.36790359998122,197.40027410001494,194.6941436000634,194.6941436000634,194.6941436000634,194.6941436000634,old_sceneIn_22.png,18,4.0,1.6757704999763519,,,id011,1,2024-10-18_14h01.51.259,Surprise recog test,2023.1.3,59.92153879538237,
18,0,18,0,,,,,,,,,,,,,,,,,,,,,,,,,,,,,,,,,,199.96813810011372,201.00141640007496,197.40027410001494,197.40027410001494,197.40027410001494,197.40027410001494,new_sceneOut_39.png,19,3.0,2.571440399857238,,,id011,1,2024-10-18_14h01.51.259,Surprise recog test,2023.1.3,59.92153879538237,
19,0,19,0,,,,,,,,,,,,,,,,,,,,,,,,,,,,,,,,,,202.39692019997165,203.41732720006257,201.00141640007496,201.00141640007496,201.00141640007496,201.00141640007496,new_sceneOut_15.png,20,3.0,1.3963510000612587,,,id011,1,2024-10-18_14h01.51.259,Surprise recog test,2023.1.3,59.92153879538237,
20,0,20,0,,,,,,,,,,,,,,,,,,,,,,,,,,,,,,,,,,204.09358919993974,205.12210380006582,203.41732720006257,203.41732720006257,203.41732720006257,203.41732720006257,old_sceneOut_48.png,21,3.0,0.6780445000622422,,,id011,1,2024-10-18_14h01.51.259,Surprise recog test,2023.1.3,59.92153879538237,
21,0,21,0,,,,,,,,,,,,,,,,,,,,,,,,,,,,,,,,,,205.53594209998846,206.55229760007933,205.12210380006582,205.12210380006582,205.12210380006582,205.12210380006582,old_sceneOut_28.png,22,3.0,0.4175897999666631,,,id011,1,2024-10-18_14h01.51.259,Surprise recog test,2023.1.3,59.92153879538237,
22,0,22,0,,,,,,,,,,,,,,,,,,,,,,,,,,,,,,,,,,207.53272380004637,208.54672529990785,206.55229760007933,206.55229760007933,206.55229760007933,206.55229760007933,old_stationery_6.png,23,2.0,0.9805354999843985,,,id011,1,2024-10-18_14h01.51.259,Surprise recog test,2023.1.3,59.92153879538237,
23,0,23,0,,,,,,,,,,,,,,,,,,,,,,,,,,,,,,,,,,209.24002150003798,,208.54672529990785,208.54672529990785,208.54672529990785,208.54672529990785,new_fruit_34.png,24,1.0,0.6900252001360059,,,id011,1,2024-10-18_14h01.51.259,Surprise recog test,2023.1.3,59.92153879538237,
24,0,24,0,,,,,,,,,,,,,,,,,,,,,,,,,,,,,,,,,,211.41387320007198,212.43348310003057,210.27322470000945,210.27322470000945,210.27322470000945,210.27322470000945,old_sceneIn_18.png,25,4.0,1.1424097002018243,,,id011,1,2024-10-18_14h01.51.259,Surprise recog test,2023.1.3,59.92153879538237,
25,0,25,0,,,,,,,,,,,,,,,,,,,,,,,,,,,,,,,,,,214.65355259994976,215.6803584001027,212.43348310003057,212.43348310003057,212.43348310003057,212.43348310003057,new_sceneOut_31.png,26,3.0,2.21579849999398,,,id011,1,2024-10-18_14h01.51.259,Surprise recog test,2023.1.3,59.92153879538237,
26,0,26,0,,,,,,,,,,,,,,,,,,,,,,,,,,,,,,,,,,215.9921707001049,217.017963899998,215.6803584001027,215.6803584001027,215.6803584001027,215.6803584001027,old_stationery_21.png,27,3.0,0.3118263999931514,,,id011,1,2024-10-18_14h01.51.259,Surprise recog test,2023.1.3,59.92153879538237,
27,0,27,0,,,,,,,,,,,,,,,,,,,,,,,,,,,,,,,,,,217.11123659997247,218.11921650008298,217.017963899998,217.017963899998,217.017963899998,217.017963899998,old_fruit_10.png,28,3.0,0.09867790015414357,,,id011,1,2024-10-18_14h01.51.259,Surprise recog test,2023.1.3,59.92153879538237,
28,0,28,0,,,,,,,,,,,,,,,,,,,,,,,,,,,,,,,,,,219.17885920009576,220.19377060001716,218.11921650008298,218.11921650008298,218.11921650008298,218.11921650008298,new_stationery_4.png,29,2.0,1.0488279999699444,,,id011,1,2024-10-18_14h01.51.259,Surprise recog test,2023.1.3,59.92153879538237,
29,0,29,0,,,,,,,,,,,,,,,,,,,,,,,,,,,,,,,,,,221.32489049993455,222.34494689991698,220.19377060001716,220.19377060001716,220.19377060001716,220.19377060001716,new_stationery_35.png,30,2.0,1.1300276999827474,,,id011,1,2024-10-18_14h01.51.259,Surprise recog test,2023.1.3,59.92153879538237,
30,0,30,0,,,,,,,,,,,,,,,,,,,,,,,,,,,,,,,,,,223.20863000000827,224.22918069991283,222.34494689991698,222.34494689991698,222.34494689991698,222.34494689991698,old_sceneOut_20.png,31,3.0,0.8625925998203456,,,id011,1,2024-10-18_14h01.51.259,Surprise recog test,2023.1.3,59.92153879538237,
31,0,31,0,,,,,,,,,,,,,,,,,,,,,,,,,,,,,,,,,,225.4674702999182,226.47328840009868,224.22918069991283,224.22918069991283,224.22918069991283,224.22918069991283,new_stationery_26.png,32,3.0,1.2279298000503331,,,id011,1,2024-10-18_14h01.51.259,Surprise recog test,2023.1.3,59.92153879538237,
32,0,32,0,,,,,,,,,,,,,,,,,,,,,,,,,,,,,,,,,,227.67630059993826,228.69514760002494,226.47328840009868,226.47328840009868,226.47328840009868,226.47328840009868,new_sceneOut_5.png,33,4.0,1.2000600001774728,,,id011,1,2024-10-18_14h01.51.259,Surprise recog test,2023.1.3,59.92153879538237,
33,0,33,0,,,,,,,,,,,,,,,,,,,,,,,,,,,,,,,,,,230.5896068001166,231.59819800010882,228.69514760002494,228.69514760002494,228.69514760002494,228.69514760002494,old_sceneIn_44.png,34,2.0,1.8909730999730527,,,id011,1,2024-10-18_14h01.51.259,Surprise recog test,2023.1.3,59.92153879538237,
34,0,34,0,,,,,,,,,,,,,,,,,,,,,,,,,,,,,,,,,,232.54143609991297,233.5506744000595,231.59819800010882,231.59819800010882,231.59819800010882,231.59819800010882,new_sceneOut_10.png,35,3.0,0.9407788999378681,,,id011,1,2024-10-18_14h01.51.259,Surprise recog test,2023.1.3,59.92153879538237,
35,0,35,0,,,,,,,,,,,,,,,,,,,,,,,,,,,,,,,,,,233.67435860005207,234.69384899991564,233.5506744000595,233.5506744000595,233.5506744000595,233.5506744000595,new_fruit_46.png,36,3.0,0.11797470017336309,,,id011,1,2024-10-18_14h01.51.259,Surprise recog test,2023.1.3,59.92153879538237,
36,0,36,0,,,,,,,,,,,,,,,,,,,,,,,,,,,,,,,,,,235.8606221000664,236.87921519996598,234.69384899991564,234.69384899991564,234.69384899991564,234.69384899991564,old_fruit_7.png,37,1.0,1.167844200041145,,,id011,1,2024-10-18_14h01.51.259,Surprise recog test,2023.1.3,59.92153879538237,
37,0,37,0,,,,,,,,,,,,,,,,,,,,,,,,,,,,,,,,,,239.07330920011736,240.09867440001108,236.87921519996598,236.87921519996598,236.87921519996598,236.87921519996598,new_sceneIn_1.png,38,4.0,2.195057899923995,,,id011,1,2024-10-18_14h01.51.259,Surprise recog test,2023.1.3,59.92153879538237,
38,0,38,0,,,,,,,,,,,,,,,,,,,,,,,,,,,,,,,,,,243.69363250001334,244.72146179992706,240.09867440001108,240.09867440001108,240.09867440001108,240.09867440001108,old_fruit_2.png,39,4.0,3.59676679992117,,,id011,1,2024-10-18_14h01.51.259,Surprise recog test,2023.1.3,59.92153879538237,
39,0,39,0,,,,,,,,,,,,,,,,,,,,,,,,,,,,,,,,,,245.6511306001339,246.67339879996143,244.72146179992706,244.72146179992706,244.72146179992706,244.72146179992706,new_sceneOut_38.png,40,3.0,0.9269008999690413,,,id011,1,2024-10-18_14h01.51.259,Surprise recog test,2023.1.3,59.92153879538237,
40,0,40,0,,,,,,,,,,,,,,,,,,,,,,,,,,,,,,,,,,247.81806909991428,248.84188439999707,246.67339879996143,246.67339879996143,246.67339879996143,246.67339879996143,old_sceneIn_41.png,41,3.0,1.1474050998222083,,,id011,1,2024-10-18_14h01.51.259,Surprise recog test,2023.1.3,59.92153879538237,
41,0,41,0,,,,,,,,,,,,,,,,,,,,,,,,,,,,,,,,,,250.02903309999965,251.04553760006092,248.84188439999707,248.84188439999707,248.84188439999707,248.84188439999707,new_sceneIn_20.png,42,2.0,1.1870003000367433,,,id011,1,2024-10-18_14h01.51.259,Surprise recog test,2023.1.3,59.92153879538237,
42,0,42,0,,,,,,,,,,,,,,,,,,,,,,,,,,,,,,,,,,252.80754090007395,253.81568050011992,251.04553760006092,251.04553760006092,251.04553760006092,251.04553760006092,new_stationery_32.png,43,3.0,1.7530155000276864,,,id011,1,2024-10-18_14h01.51.259,Surprise recog test,2023.1.3,59.92153879538237,
43,0,43,0,,,,,,,,,,,,,,,,,,,,,,,,,,,,,,,,,,255.01900209998712,256.03331009997055,253.81568050011992,253.81568050011992,253.81568050011992,253.81568050011992,old_sceneOut_17.png,44,4.0,1.197053899988532,,,id011,1,2024-10-18_14h01.51.259,Surprise recog test,2023.1.3,59.92153879538237,
44,0,44,0,,,,,,,,,,,,,,,,,,,,,,,,,,,,,,,,,,257.3078908000607,258.3308433999773,256.03331009997055,256.03331009997055,256.03331009997055,256.03331009997055,old_stationery_1.png,45,1.0,1.2696899001020938,,,id011,1,2024-10-18_14h01.51.259,Surprise recog test,2023.1.3,59.92153879538237,
45,0,45,0,,,,,,,,,,,,,,,,,,,,,,,,,,,,,,,,,,259.8810441000387,260.9004429001361,258.3308433999773,258.3308433999773,258.3308433999773,258.3308433999773,old_sceneOut_50.png,46,3.0,1.5503191000316292,,,id011,1,2024-10-18_14h01.51.259,Surprise recog test,2023.1.3,59.92153879538237,
46,0,46,0,,,,,,,,,,,,,,,,,,,,,,,,,,,,,,,,,,262.21506870002486,263.22378140012734,260.9004429001361,260.9004429001361,260.9004429001361,260.9004429001361,old_stationery_9.png,47,4.0,1.3163250999059528,,,id011,1,2024-10-18_14h01.51.259,Surprise recog test,2023.1.3,59.92153879538237,
47,0,47,0,,,,,,,,,,,,,,,,,,,,,,,,,,,,,,,,,,264.5946156999562,265.6205180999823,263.22378140012734,263.22378140012734,263.22378140012734,263.22378140012734,old_sceneIn_17.png,48,4.0,1.3658672999590635,,,id011,1,2024-10-18_14h01.51.259,Surprise recog test,2023.1.3,59.92153879538237,
48,0,48,0,,,,,,,,,,,,,,,,,,,,,,,,,,,,,,,,,,265.905585099943,,265.6205180999823,265.6205180999823,265.6205180999823,265.6205180999823,old_sceneOut_10.png,49,3.0,0.28057869989424944,,,id011,1,2024-10-18_14h01.51.259,Surprise recog test,2023.1.3,59.92153879538237,
49,0,49,0,,,,,,,,,,,,,,,,,,,,,,,,,,,,,,,,,,267.4190645001363,268.43340219999664,266.93558169994503,266.93558169994503,266.93558169994503,266.93558169994503,new_sceneOut_26.png,50,2.0,0.4793156001251191,,,id011,1,2024-10-18_14h01.51.259,Surprise recog test,2023.1.3,59.92153879538237,
50,0,50,0,,,,,,,,,,,,,,,,,,,,,,,,,,,,,,,,,,268.7693795999512,269.7918950000312,268.43340219999664,268.43340219999664,268.43340219999664,268.43340219999664,old_fruit_28.png,51,3.0,0.3348538998980075,,,id011,1,2024-10-18_14h01.51.259,Surprise recog test,2023.1.3,59.92153879538237,
51,0,51,0,,,,,,,,,,,,,,,,,,,,,,,,,,,,,,,,,,271.98717770003714,273.0060245001223,269.7918950000312,269.7918950000312,269.7918950000312,269.7918950000312,old_stationery_19.png,52,2.0,2.197898600017652,,,id011,1,2024-10-18_14h01.51.259,Surprise recog test,2023.1.3,59.92153879538237,
52,0,52,0,,,,,,,,,,,,,,,,,,,,,,,,,,,,,,,,,,274.2793614999391,,273.0060245001223,273.0060245001223,273.0060245001223,273.0060245001223,new_sceneOut_20.png,53,3.0,1.270945900119841,,,id011,1,2024-10-18_14h01.51.259,Surprise recog test,2023.1.3,59.92153879538237,
53,0,53,0,,,,,,,,,,,,,,,,,,,,,,,,,,,,,,,,,,279.6539553999901,280.6788474000059,275.31183749996126,275.31183749996126,275.31183749996126,275.31183749996126,new_stationery_11.png,54,3.0,4.343915999867022,,,id011,1,2024-10-18_14h01.51.259,Surprise recog test,2023.1.3,59.92153879538237,
54,0,54,0,,,,,,,,,,,,,,,,,,,,,,,,,,,,,,,,,,283.06584649998695,284.07885940000415,280.6788474000059,280.6788474000059,280.6788474000059,280.6788474000059,new_stationery_6.png,55,4.0,2.385970399947837,,,id011,1,2024-10-18_14h01.51.259,Surprise recog test,2023.1.3,59.92153879538237,
55,0,55,0,,,,,,,,,,,,,,,,,,,,,,,,,,,,,,,,,,285.10478839999996,,284.07885940000415,284.07885940000415,284.07885940000415,284.07885940000415,old_sceneOut_42.png,56,2.0,1.0267645998392254,,,id011,1,2024-10-18_14h01.51.259,Surprise recog test,2023.1.3,59.92153879538237,
56,0,56,0,,,,,,,,,,,,,,,,,,,,,,,,,,,,,,,,,,287.26892599998973,288.28794519999065,286.1359061000403,286.1359061000403,286.1359061000403,286.1359061000403,new_sceneOut_44.png,57,3.0,1.1300701000727713,,,id011,1,2024-10-18_14h01.51.259,Surprise recog test,2023.1.3,59.92153879538237,
57,0,57,0,,,,,,,,,,,,,,,,,,,,,,,,,,,,,,,,,,289.15055419993587,290.1671356000006,288.28794519999065,288.28794519999065,288.28794519999065,288.28794519999065,old_fruit_9.png,58,1.0,0.8651352000888437,,,id011,1,2024-10-18_14h01.51.259,Surprise recog test,2023.1.3,59.92153879538237,
58,0,58,0,,,,,,,,,,,,,,,,,,,,,,,,,,,,,,,,,,290.6073998999782,,290.1671356000006,290.1671356000006,290.1671356000006,290.1671356000006,old_sceneIn_33.png,59,3.0,0.4414689000695944,,,id011,1,2024-10-18_14h01.51.259,Surprise recog test,2023.1.3,59.92153879538237,
59,0,59,0,,,,,,,,,,,,,,,,,,,,,,,,,,,,,,,,,,292.84035039995797,293.86156300012954,291.6359955999069,291.6359955999069,291.6359955999069,291.6359955999069,new_sceneOut_7.png,60,4.0,1.2052527000196278,,,id011,1,2024-10-18_14h01.51.259,Surprise recog test,2023.1.3,59.92153879538237,
60,0,60,0,,,,,,,,,,,,,,,,,,,,,,,,,,,,,,,,,,295.8389387000352,296.8508001000155,293.86156300012954,293.86156300012954,293.86156300012954,293.86156300012954,new_fruit_47.png,61,4.0,1.9800674000289291,,,id011,1,2024-10-18_14h01.51.259,Surprise recog test,2023.1.3,59.92153879538237,
61,0,61,0,,,,,,,,,,,,,,,,,,,,,,,,,,,,,,,,,,298.05519270012155,299.06823560013436,296.8508001000155,296.8508001000155,296.8508001000155,296.8508001000155,old_fruit_38.png,62,1.0,1.2002481000963598,,,id011,1,2024-10-18_14h01.51.259,Surprise recog test,2023.1.3,59.92153879538237,
62,0,62,0,,,,,,,,,,,,,,,,,,,,,,,,,,,,,,,,,,300.24165050010197,301.2665405999869,299.06823560013436,299.06823560013436,299.06823560013436,299.06823560013436,new_sceneIn_46.png,63,3.0,1.1671460999641567,,,id011,1,2024-10-18_14h01.51.259,Surprise recog test,2023.1.3,59.92153879538237,
63,0,63,0,,,,,,,,,,,,,,,,,,,,,,,,,,,,,,,,,,302.3760468000546,303.3901402000338,301.2665405999869,301.2665405999869,301.2665405999869,301.2665405999869,new_sceneIn_5.png,64,3.0,1.1114401000086218,,,id011,1,2024-10-18_14h01.51.259,Surprise recog test,2023.1.3,59.92153879538237,
64,0,64,0,,,,,,,,,,,,,,,,,,,,,,,,,,,,,,,,,,304.81884600012563,,303.3901402000338,303.3901402000338,303.3901402000338,303.3901402000338,old_sceneIn_50.png,65,2.0,1.4244758000131696,,,id011,1,2024-10-18_14h01.51.259,Surprise recog test,2023.1.3,59.92153879538237,
65,0,65,0,,,,,,,,,,,,,,,,,,,,,,,,,,,,,,,,,,307.73760999995284,308.7574245999567,305.84561510011554,305.84561510011554,305.84561510011554,305.84561510011554,new_sceneOut_33.png,66,2.0,1.8892720001749694,,,id011,1,2024-10-18_14h01.51.259,Surprise recog test,2023.1.3,59.92153879538237,
66,0,66,0,,,,,,,,,,,,,,,,,,,,,,,,,,,,,,,,,,310.9694678999949,311.9929400999099,308.7574245999567,308.7574245999567,308.7574245999567,308.7574245999567,new_fruit_16.png,67,4.0,2.212625099811703,,,id011,1,2024-10-18_14h01.51.259,Surprise recog test,2023.1.3,59.92153879538237,
67,0,67,0,,,,,,,,,,,,,,,,,,,,,,,,,,,,,,,,,,313.38131999992765,314.41114190011285,311.9929400999099,311.9929400999099,311.9929400999099,311.9929400999099,old_sceneIn_32.png,68,3.0,1.3882285000290722,,,id011,1,2024-10-18_14h01.51.259,Surprise recog test,2023.1.3,59.92153879538237,
68,0,68,0,,,,,,,,,,,,,,,,,,,,,,,,,,,,,,,,,,315.30488559999503,316.3170606000349,314.41114190011285,314.41114190011285,314.41114190011285,314.41114190011285,old_sceneIn_11.png,69,2.0,0.8935336000286043,,,id011,1,2024-10-18_14h01.51.259,Surprise recog test,2023.1.3,59.92153879538237,
69,0,69,0,,,,,,,,,,,,,,,,,,,,,,,,,,,,,,,,,,317.2293126001023,,316.3170606000349,316.3170606000349,316.3170606000349,316.3170606000349,old_sceneOut_43.png,70,3.0,0.9074305000249296,,,id011,1,2024-10-18_14h01.51.259,Surprise recog test,2023.1.3,59.92153879538237,
70,0,70,0,,,,,,,,,,,,,,,,,,,,,,,,,,,,,,,,,,319.8180313000921,320.8586263000034,318.2658446999267,318.2658446999267,318.2658446999267,318.2658446999267,old_fruit_46.png,71,1.0,1.555501600028947,,,id011,1,2024-10-18_14h01.51.259,Surprise recog test,2023.1.3,59.92153879538237,
71,0,71,0,,,,,,,,,,,,,,,,,,,,,,,,,,,,,,,,,,322.4239147999324,323.44924159999937,320.8586263000034,320.8586263000034,320.8586263000034,320.8586263000034,old_fruit_1.png,72,1.0,1.5665889999363571,,,id011,1,2024-10-18_14h01.51.259,Surprise recog test,2023.1.3,59.92153879538237,
72,0,72,0,,,,,,,,,,,,,,,,,,,,,,,,,,,,,,,,,,325.24265359994024,326.2595846999902,323.44924159999937,323.44924159999937,323.44924159999937,323.44924159999937,old_sceneIn_1.png,73,2.0,1.7939893999136984,,,id011,1,2024-10-18_14h01.51.259,Surprise recog test,2023.1.3,59.92153879538237,
73,0,73,0,,,,,,,,,,,,,,,,,,,,,,,,,,,,,,,,,,327.45256339991465,328.4578295999672,326.2595846999902,326.2595846999902,326.2595846999902,326.2595846999902,old_sceneIn_30.png,74,4.0,1.188617399893701,,,id011,1,2024-10-18_14h01.51.259,Surprise recog test,2023.1.3,59.92153879538237,
74,0,74,0,,,,,,,,,,,,,,,,,,,,,,,,,,,,,,,,,,330.2148060000036,331.240298199933,328.4578295999672,328.4578295999672,328.4578295999672,328.4578295999672,new_sceneIn_9.png,75,4.0,1.753876600181684,,,id011,1,2024-10-18_14h01.51.259,Surprise recog test,2023.1.3,59.92153879538237,
75,0,75,0,,,,,,,,,,,,,,,,,,,,,,,,,,,,,,,,,,332.2232214000542,333.23084120010026,331.240298199933,331.240298199933,331.240298199933,331.240298199933,new_sceneOut_22.png,76,3.0,0.9835253001656383,,,id011,1,2024-10-18_14h01.51.259,Surprise recog test,2023.1.3,59.92153879538237,
76,0,76,0,,,,,,,,,,,,,,,,,,,,,,,,,,,,,,,,,,334.28192460001446,335.3132845000364,333.23084120010026,333.23084120010026,333.23084120010026,333.23084120010026,new_stationery_5.png,77,2.0,1.0463101000059396,,,id011,1,2024-10-18_14h01.51.259,Surprise recog test,2023.1.3,59.92153879538237,
77,0,77,0,,,,,,,,,,,,,,,,,,,,,,,,,,,,,,,,,,338.4332981000189,339.4684272999875,335.3132845000364,335.3132845000364,335.3132845000364,335.3132845000364,new_stationery_17.png,78,1.0,3.1230500999372452,,,id011,1,2024-10-18_14h01.51.259,Surprise recog test,2023.1.3,59.92153879538237,
78,0,78,0,,,,,,,,,,,,,,,,,,,,,,,,,,,,,,,,,,341.8665255000815,,339.4684272999875,339.4684272999875,339.4684272999875,339.4684272999875,new_fruit_15.png,79,4.0,2.400198199786246,,,id011,1,2024-10-18_14h01.51.259,Surprise recog test,2023.1.3,59.92153879538237,
79,0,79,0,,,,,,,,,,,,,,,,,,,,,,,,,,,,,,,,,,344.26723439991474,345.28631910006516,342.8880956999492,342.8880956999492,342.8880956999492,342.8880956999492,old_fruit_12.png,80,1.0,1.374929000157863,,,id011,1,2024-10-18_14h01.51.259,Surprise recog test,2023.1.3,59.92153879538237,
80,0,80,0,,,,,,,,,,,,,,,,,,,,,,,,,,,,,,,,,,347.84304310008883,348.87039820011705,345.28631910006516,345.28631910006516,345.28631910006516,345.28631910006516,old_stationery_10.png,81,5.0,2.5591488999780267,,,id011,1,2024-10-18_14h01.51.259,Surprise recog test,2023.1.3,59.92153879538237,
81,0,81,0,,,,,,,,,,,,,,,,,,,,,,,,,,,,,,,,,,349.94764059991576,350.9699454999063,348.87039820011705,348.87039820011705,348.87039820011705,348.87039820011705,old_sceneOut_32.png,82,3.0,1.078288600081578,,,id011,1,2024-10-18_14h01.51.259,Surprise recog test,2023.1.3,59.92153879538237,
82,0,82,0,,,,,,,,,,,,,,,,,,,,,,,,,,,,,,,,,,352.17322050011717,353.19502540002577,350.9699454999063,350.9699454999063,350.9699454999063,350.9699454999063,new_stationery_1.png,83,2.0,1.2055591999087483,,,id011,1,2024-10-18_14h01.51.259,Surprise recog test,2023.1.3,59.92153879538237,
83,0,83,0,,,,,,,,,,,,,,,,,,,,,,,,,,,,,,,,,,354.90977189992554,355.9240188000258,353.19502540002577,353.19502540002577,353.19502540002577,353.19502540002577,old_fruit_26.png,84,1.0,1.714975800132379,,,id011,1,2024-10-18_14h01.51.259,Surprise recog test,2023.1.3,59.92153879538237,
84,0,84,0,,,,,,,,,,,,,,,,,,,,,,,,,,,,,,,,,,356.8565358000342,357.88151179999113,355.9240188000258,355.9240188000258,355.9240188000258,355.9240188000258,new_sceneOut_30.png,85,3.0,0.9333171001635492,,,id011,1,2024-10-18_14h01.51.259,Surprise recog test,2023.1.3,59.92153879538237,
85,0,85,0,,,,,,,,,,,,,,,,,,,,,,,,,,,,,,,,,,359.759992999956,360.7833470001351,357.88151179999113,357.88151179999113,357.88151179999113,357.88151179999113,new_sceneIn_45.png,86,3.0,1.8806012999266386,,,id011,1,2024-10-18_14h01.51.259,Surprise recog test,2023.1.3,59.92153879538237,
86,0,86,0,,,,,,,,,,,,,,,,,,,,,,,,,,,,,,,,,,362.6212961000856,363.6404478000477,360.7833470001351,360.7833470001351,360.7833470001351,360.7833470001351,old_stationery_7.png,87,4.0,1.8396391000133008,,,id011,1,2024-10-18_14h01.51.259,Surprise recog test,2023.1.3,59.92153879538237,
87,0,87,0,,,,,,,,,,,,,,,,,,,,,,,,,,,,,,,,,,365.0393948000856,366.07111619994976,363.6404478000477,363.6404478000477,363.6404478000477,363.6404478000477,new_fruit_33.png,88,1.0,1.3951328999828547,,,id011,1,2024-10-18_14h01.51.259,Surprise recog test,2023.1.3,59.92153879538237,
88,0,88,0,,,,,,,,,,,,,,,,,,,,,,,,,,,,,,,,,,368.07504580006935,369.0941620999947,366.07111619994976,366.07111619994976,366.07111619994976,366.07111619994976,new_sceneOut_37.png,89,3.0,2.006774300010875,,,id011,1,2024-10-18_14h01.51.259,Surprise recog test,2023.1.3,59.92153879538237,
89,0,89,0,,,,,,,,,,,,,,,,,,,,,,,,,,,,,,,,,,370.38121109991334,371.4066250999458,369.0941620999947,369.0941620999947,369.0941620999947,369.0941620999947,new_sceneIn_38.png,90,4.0,1.2819908000528812,,,id011,1,2024-10-18_14h01.51.259,Surprise recog test,2023.1.3,59.92153879538237,
90,0,90,0,,,,,,,,,,,,,,,,,,,,,,,,,,,,,,,,,,373.4905735999346,374.5110633999575,371.4066250999458,371.4066250999458,371.4066250999458,371.4066250999458,old_sceneIn_24.png,91,3.0,2.08332490012981,,,id011,1,2024-10-18_14h01.51.259,Surprise recog test,2023.1.3,59.92153879538237,
91,0,91,0,,,,,,,,,,,,,,,,,,,,,,,,,,,,,,,,,,375.480289200088,376.496951200068,374.5110633999575,374.5110633999575,374.5110633999575,374.5110633999575,new_sceneOut_18.png,92,3.0,0.9709228000137955,,,id011,1,2024-10-18_14h01.51.259,Surprise recog test,2023.1.3,59.92153879538237,
92,0,92,0,,,,,,,,,,,,,,,,,,,,,,,,,,,,,,,,,,378.19437630008906,379.21339759998955,376.496951200068,376.496951200068,376.496951200068,376.496951200068,old_stationery_47.png,93,4.0,1.6916237999685109,,,id011,1,2024-10-18_14h01.51.259,Surprise recog test,2023.1.3,59.92153879538237,
93,0,93,0,,,,,,,,,,,,,,,,,,,,,,,,,,,,,,,,,,380.2039121000562,381.2372024001088,379.21339759998955,379.21339759998955,379.21339759998955,379.21339759998955,old_sceneOut_29.png,94,3.0,0.9878814001567662,,,id011,1,2024-10-18_14h01.51.259,Surprise recog test,2023.1.3,59.92153879538237,
94,0,94,0,,,,,,,,,,,,,,,,,,,,,,,,,,,,,,,,,,382.10117550008,,381.2372024001088,381.2372024001088,381.2372024001088,381.2372024001088,old_sceneOut_34.png,95,3.0,0.8674319998826832,,,id011,1,2024-10-18_14h01.51.259,Surprise recog test,2023.1.3,59.92153879538237,
95,0,95,0,,,,,,,,,,,,,,,,,,,,,,,,,,,,,,,,,,384.7374929001089,,383.12223410001025,383.12223410001025,383.12223410001025,383.12223410001025,old_stationery_44.png,96,2.0,1.6091110999695957,,,id011,1,2024-10-18_14h01.51.259,Surprise recog test,2023.1.3,59.92153879538237,
96,0,96,0,,,,,,,,,,,,,,,,,,,,,,,,,,,,,,,,,,387.3206118999515,,385.7579226999078,385.7579226999078,385.7579226999078,385.7579226999078,new_fruit_35.png,97,1.0,1.5575921998824924,,,id011,1,2024-10-18_14h01.51.259,Surprise recog test,2023.1.3,59.92153879538237,
97,0,97,0,,,,,,,,,,,,,,,,,,,,,,,,,,,,,,,,,,389.71617870009504,390.7400857000612,388.34037919994444,388.34037919994444,388.34037919994444,388.34037919994444,new_fruit_10.png,98,4.0,1.3715455001220107,,,id011,1,2024-10-18_14h01.51.259,Surprise recog test,2023.1.3,59.92153879538237,
98,0,98,0,,,,,,,,,,,,,,,,,,,,,,,,,,,,,,,,,,391.78439210006036,392.7981154001318,390.7400857000612,390.7400857000612,390.7400857000612,390.7400857000612,old_sceneOut_22.png,99,2.0,1.046109199989587,,,id011,1,2024-10-18_14h01.51.259,Surprise recog test,2023.1.3,59.92153879538237,
99,0,99,0,,,,,,,,,,,,,,,,,,,,,,,,,,,,,,,,,,393.18862119992264,394.19883539993316,392.7981154001318,392.7981154001318,392.7981154001318,392.7981154001318,new_fruit_20.png,100,3.0,0.3870619998779148,,,id011,1,2024-10-18_14h01.51.259,Surprise recog test,2023.1.3,59.92153879538237,
100,0,100,0,,,,,,,,,,,,,,,,,,,,,,,,,,,,,,,,,,394.68055619997904,395.7100164000876,394.19883539993316,394.19883539993316,394.19883539993316,394.19883539993316,new_sceneIn_7.png,101,1.0,0.47800219990313053,,,id011,1,2024-10-18_14h01.51.259,Surprise recog test,2023.1.3,59.92153879538237,
101,0,101,0,,,,,,,,,,,,,,,,,,,,,,,,,,,,,,,,,,396.435507300077,397.4623269001022,395.7100164000876,395.7100164000876,395.7100164000876,395.7100164000876,old_sceneIn_38.png,102,3.0,0.7266472999472171,,,id011,1,2024-10-18_14h01.51.259,Surprise recog test,2023.1.3,59.92153879538237,
102,0,102,0,,,,,,,,,,,,,,,,,,,,,,,,,,,,,,,,,,399.03080880013295,,397.4623269001022,397.4623269001022,397.4623269001022,397.4623269001022,old_sceneIn_10.png,103,2.0,1.567481900099665,,,id011,1,2024-10-18_14h01.51.259,Surprise recog test,2023.1.3,59.92153879538237,
103,0,103,0,,,,,,,,,,,,,,,,,,,,,,,,,,,,,,,,,,401.086765000131,402.1192737000529,400.06648009992205,400.06648009992205,400.06648009992205,400.06648009992205,old_fruit_29.png,104,1.0,1.0232398000080138,,,id011,1,2024-10-18_14h01.51.259,Surprise recog test,2023.1.3,59.92153879538237,
104,0,104,0,,,,,,,,,,,,,,,,,,,,,,,,,,,,,,,,,,402.62768519995734,403.64230399997905,402.1192737000529,402.1192737000529,402.1192737000529,402.1192737000529,old_sceneIn_14.png,105,3.0,0.5088319000788033,,,id011,1,2024-10-18_14h01.51.259,Surprise recog test,2023.1.3,59.92153879538237,
105,0,105,0,,,,,,,,,,,,,,,,,,,,,,,,,,,,,,,,,,404.62898109992966,405.65369760012254,403.64230399997905,403.64230399997905,403.64230399997905,403.64230399997905,new_sceneIn_27.png,106,2.0,0.9834767000284046,,,id011,1,2024-10-18_14h01.51.259,Surprise recog test,2023.1.3,59.92153879538237,
106,0,106,0,,,,,,,,,,,,,,,,,,,,,,,,,,,,,,,,,,407.06687600002624,408.09115039999597,405.65369760012254,405.65369760012254,405.65369760012254,405.65369760012254,new_sceneIn_25.png,107,4.0,1.4147429999429733,,,id011,1,2024-10-18_14h01.51.259,Surprise recog test,2023.1.3,59.92153879538237,
107,0,107,0,,,,,,,,,,,,,,,,,,,,,,,,,,,,,,,,,,409.2210975999478,410.228143400047,408.09115039999597,408.09115039999597,408.09115039999597,408.09115039999597,new_sceneOut_40.png,108,2.0,1.1333494998980314,,,id011,1,2024-10-18_14h01.51.259,Surprise recog test,2023.1.3,59.92153879538237,
108,0,108,0,,,,,,,,,,,,,,,,,,,,,,,,,,,,,,,,,,411.0434133000672,412.0776078000199,410.228143400047,410.228143400047,410.228143400047,410.228143400047,new_fruit_2.png,109,2.0,0.8122607001569122,,,id011,1,2024-10-18_14h01.51.259,Surprise recog test,2023.1.3,59.92153879538237,
109,0,109,0,,,,,,,,,,,,,,,,,,,,,,,,,,,,,,,,,,414.2343284999952,415.2628872001078,412.0776078000199,412.0776078000199,412.0776078000199,412.0776078000199,new_fruit_27.png,110,5.0,2.160969499964267,,,id011,1,2024-10-18_14h01.51.259,Surprise recog test,2023.1.3,59.92153879538237,
110,0,110,0,,,,,,,,,,,,,,,,,,,,,,,,,,,,,,,,,,416.25365999992937,417.27976269996725,415.2628872001078,415.2628872001078,415.2628872001078,415.2628872001078,new_sceneOut_43.png,111,3.0,0.9925147001631558,,,id011,1,2024-10-18_14h01.51.259,Surprise recog test,2023.1.3,59.92153879538237,
111,0,111,0,,,,,,,,,,,,,,,,,,,,,,,,,,,,,,,,,,418.3372947999742,419.36451110010967,417.27976269996725,417.27976269996725,417.27976269996725,417.27976269996725,old_fruit_24.png,112,1.0,1.0598869000095874,,,id011,1,2024-10-18_14h01.51.259,Surprise recog test,2023.1.3,59.92153879538237,
112,0,112,0,,,,,,,,,,,,,,,,,,,,,,,,,,,,,,,,,,420.2379380001221,421.25825139996596,419.36451110010967,419.36451110010967,419.36451110010967,419.36451110010967,new_sceneOut_19.png,113,3.0,0.8751691998913884,,,id011,1,2024-10-18_14h01.51.259,Surprise recog test,2023.1.3,59.92153879538237,
113,0,113,0,,,,,,,,,,,,,,,,,,,,,,,,,,,,,,,,,,422.9879755000584,424.01989210001193,421.25825139996596,421.25825139996596,421.25825139996596,421.25825139996596,old_stationery_3.png,114,1.0,1.7261903998441994,,,id011,1,2024-10-18_14h01.51.259,Surprise recog test,2023.1.3,59.92153879538237,
114,0,114,0,,,,,,,,,,,,,,,,,,,,,,,,,,,,,,,,,,425.37347880005836,426.3923724000342,424.01989210001193,424.01989210001193,424.01989210001193,424.01989210001193,old_stationery_43.png,115,4.0,1.3530878000892699,,,id011,1,2024-10-18_14h01.51.259,Surprise recog test,2023.1.3,59.92153879538237,
115,0,115,0,,,,,,,,,,,,,,,,,,,,,,,,,,,,,,,,,,427.80555439996533,,426.3923724000342,426.3923724000342,426.3923724000342,426.3923724000342,old_sceneOut_12.png,116,3.0,1.4092111999634653,,,id011,1,2024-10-18_14h01.51.259,Surprise recog test,2023.1.3,59.92153879538237,
116,0,116,0,,,,,,,,,,,,,,,,,,,,,,,,,,,,,,,,,,430.26392820011824,431.2915044000838,428.83897930011153,428.83897930011153,428.83897930011153,428.83897930011153,new_stationery_34.png,117,3.0,1.4261513000819832,,,id011,1,2024-10-18_14h01.51.259,Surprise recog test,2023.1.3,59.92153879538237,
117,0,117,0,,,,,,,,,,,,,,,,,,,,,,,,,,,,,,,,,,433.640494100051,434.6617143000476,431.2915044000838,431.2915044000838,431.2915044000838,431.2915044000838,old_stationery_18.png,118,4.0,2.3441910000983626,,,id011,1,2024-10-18_14h01.51.259,Surprise recog test,2023.1.3,59.92153879538237,
118,0,118,0,,,,,,,,,,,,,,,,,,,,,,,,,,,,,,,,,,435.93305190000683,436.94763990002684,434.6617143000476,434.6617143000476,434.6617143000476,434.6617143000476,new_stationery_38.png,119,4.0,1.2741842998657376,,,id011,1,2024-10-18_14h01.51.259,Surprise recog test,2023.1.3,59.92153879538237,
119,0,119,0,,,,,,,,,,,,,,,,,,,,,,,,,,,,,,,,,,438.19431110005826,439.2185241000261,436.94763990002684,436.94763990002684,436.94763990002684,436.94763990002684,new_fruit_6.png,120,1.0,1.2422619999852031,,,id011,1,2024-10-18_14h01.51.259,Surprise recog test,2023.1.3,59.92153879538237,
120,0,120,0,,,,,,,,,,,,,,,,,,,,,,,,,,,,,,,,,,440.93462019995786,441.953268900048,439.2185241000261,439.2185241000261,439.2185241000261,439.2185241000261,old_sceneOut_40.png,121,3.0,1.7185414000414312,,,id011,1,2024-10-18_14h01.51.259,Surprise recog test,2023.1.3,59.92153879538237,
121,0,121,0,,,,,,,,,,,,,,,,,,,,,,,,,,,,,,,,,,443.20504199992865,444.2372534000315,441.953268900048,441.953268900048,441.953268900048,441.953268900048,old_fruit_17.png,122,1.0,1.246846199966967,,,id011,1,2024-10-18_14h01.51.259,Surprise recog test,2023.1.3,59.92153879538237,
122,0,122,0,,,,,,,,,,,,,,,,,,,,,,,,,,,,,,,,,,446.02644150005654,447.04294460010715,444.2372534000315,444.2372534000315,444.2372534000315,444.2372534000315,new_fruit_25.png,123,1.0,1.7912248999346048,,,id011,1,2024-10-18_14h01.51.259,Surprise recog test,2023.1.3,59.92153879538237,
123,0,123,0,,,,,,,,,,,,,,,,,,,,,,,,,,,,,,,,,,450.54546199995093,451.56806720001623,447.04294460010715,447.04294460010715,447.04294460010715,447.04294460010715,old_fruit_5.png,124,2.0,3.4988092000130564,,,id011,1,2024-10-18_14h01.51.259,Surprise recog test,2023.1.3,59.92153879538237,
124,0,124,0,,,,,,,,,,,,,,,,,,,,,,,,,,,,,,,,,,452.5910889999941,453.59487250004895,451.56806720001623,451.56806720001623,451.56806720001623,451.56806720001623,new_sceneOut_35.png,125,3.0,1.0181934998836368,,,id011,1,2024-10-18_14h01.51.259,Surprise recog test,2023.1.3,59.92153879538237,
125,0,125,0,,,,,,,,,,,,,,,,,,,,,,,,,,,,,,,,,,455.73464859998785,456.7498184000142,453.59487250004895,453.59487250004895,453.59487250004895,453.59487250004895,new_stationery_50.png,126,3.0,2.133751700166613,,,id011,1,2024-10-18_14h01.51.259,Surprise recog test,2023.1.3,59.92153879538237,
126,0,126,0,,,,,,,,,,,,,,,,,,,,,,,,,,,,,,,,,,457.988618100062,459.0029537999071,456.7498184000142,456.7498184000142,456.7498184000142,456.7498184000142,new_sceneIn_21.png,127,3.0,1.2349846998695284,,,id011,1,2024-10-18_14h01.51.259,Surprise recog test,2023.1.3,59.92153879538237,
127,0,127,0,,,,,,,,,,,,,,,,,,,,,,,,,,,,,,,,,,464.0003305999562,465.00773760001175,459.0029537999071,459.0029537999071,459.0029537999071,459.0029537999071,old_sceneIn_28.png,128,3.0,4.972867199918255,463.98033050005324,,id011,1,2024-10-18_14h01.51.259,Surprise recog test,2023.1.3,59.92153879538237,
128,0,128,0,,,,,,,,,,,,,,,,,,,,,,,,,,,,,,,,,,468.54792449995875,469.5693421999458,465.00773760001175,465.00773760001175,465.00773760001175,465.00773760001175,old_sceneIn_45.png,129,3.0,3.5363150001503527,,,id011,1,2024-10-18_14h01.51.259,Surprise recog test,2023.1.3,59.92153879538237,
129,0,129,0,,,,,,,,,,,,,,,,,,,,,,,,,,,,,,,,,,470.8377849000972,471.8478367999196,469.5693421999458,469.5693421999458,469.5693421999458,469.5693421999458,old_sceneOut_16.png,130,3.0,1.2705548000521958,,,id011,1,2024-10-18_14h01.51.259,Surprise recog test,2023.1.3,59.92153879538237,
130,0,130,0,,,,,,,,,,,,,,,,,,,,,,,,,,,,,,,,,,473.34957089996897,474.3753915000707,471.8478367999196,471.8478367999196,471.8478367999196,471.8478367999196,old_sceneIn_8.png,131,1.0,1.4988762000575662,,,id011,1,2024-10-18_14h01.51.259,Surprise recog test,2023.1.3,59.92153879538237,
131,0,131,0,,,,,,,,,,,,,,,,,,,,,,,,,,,,,,,,,,476.20923470007256,477.22890800004825,474.3753915000707,474.3753915000707,474.3753915000707,474.3753915000707,new_fruit_30.png,132,2.0,1.8303527999669313,,,id011,1,2024-10-18_14h01.51.259,Surprise recog test,2023.1.3,59.92153879538237,
132,0,132,0,,,,,,,,,,,,,,,,,,,,,,,,,,,,,,,,,,478.1547495999839,479.1661604999099,477.22890800004825,477.22890800004825,477.22890800004825,477.22890800004825,new_sceneOut_24.png,133,2.0,0.9275603999849409,,,id011,1,2024-10-18_14h01.51.259,Surprise recog test,2023.1.3,59.92153879538237,
133,0,133,0,,,,,,,,,,,,,,,,,,,,,,,,,,,,,,,,,,480.3527661000844,481.3711435000878,479.1661604999099,479.1661604999099,479.1661604999099,479.1661604999099,new_fruit_22.png,134,1.0,1.1810876000672579,,,id011,1,2024-10-18_14h01.51.259,Surprise recog test,2023.1.3,59.92153879538237,
134,0,134,0,,,,,,,,,,,,,,,,,,,,,,,,,,,,,,,,,,483.2678253001068,,481.3711435000878,481.3711435000878,481.3711435000878,481.3711435000878,old_sceneIn_35.png,135,3.0,1.8901853000279516,,,id011,1,2024-10-18_14h01.51.259,Surprise recog test,2023.1.3,59.92153879538237,
135,0,135,0,,,,,,,,,,,,,,,,,,,,,,,,,,,,,,,,,,485.5509991000872,486.56836210004985,484.30283379997127,484.30283379997127,484.30283379997127,484.30283379997127,old_stationery_45.png,136,2.0,1.2524965000338852,,,id011,1,2024-10-18_14h01.51.259,Surprise recog test,2023.1.3,59.92153879538237,
136,0,136,0,,,,,,,,,,,,,,,,,,,,,,,,,,,,,,,,,,488.12989780004136,489.1405045001302,486.56836210004985,486.56836210004985,486.56836210004985,486.56836210004985,new_sceneIn_32.png,137,4.0,1.5630990001372993,,,id011,1,2024-10-18_14h01.51.259,Surprise recog test,2023.1.3,59.92153879538237,
137,0,137,0,,,,,,,,,,,,,,,,,,,,,,,,,,,,,,,,,,490.41154669993557,491.4293913000729,489.1405045001302,489.1405045001302,489.1405045001302,489.1405045001302,old_stationery_4.png,138,3.0,1.2661631000228226,,,id011,1,2024-10-18_14h01.51.259,Surprise recog test,2023.1.3,59.92153879538237,
138,0,138,0,,,,,,,,,,,,,,,,,,,,,,,,,,,,,,,,,,493.53394469991326,494.5632009000983,491.4293913000729,491.4293913000729,491.4293913000729,491.4293913000729,new_fruit_8.png,139,2.0,2.100184899987653,,,id011,1,2024-10-18_14h01.51.259,Surprise recog test,2023.1.3,59.92153879538237,
139,0,139,0,,,,,,,,,,,,,,,,,,,,,,,,,,,,,,,,,,495.7575954000931,496.7781104000751,494.5632009000983,494.5632009000983,494.5632009000983,494.5632009000983,old_fruit_20.png,140,1.0,1.197017899947241,,,id011,1,2024-10-18_14h01.51.259,Surprise recog test,2023.1.3,59.92153879538237,
140,0,140,0,,,,,,,,,,,,,,,,,,,,,,,,,,,,,,,,,,498.4626776999794,499.4802087000571,496.7781104000751,496.7781104000751,496.7781104000751,496.7781104000751,new_stationery_13.png,141,2.0,1.6834292998537421,,,id011,1,2024-10-18_14h01.51.259,Surprise recog test,2023.1.3,59.92153879538237,
141,0,141,0,,,,,,,,,,,,,,,,,,,,,,,,,,,,,,,,,,500.67369790002704,501.6880922000855,499.4802087000571,499.4802087000571,499.4802087000571,499.4802087000571,old_sceneIn_49.png,142,3.0,1.1942388000898063,,,id011,1,2024-10-18_14h01.51.259,Surprise recog test,2023.1.3,59.92153879538237,
142,0,142,0,,,,,,,,,,,,,,,,,,,,,,,,,,,,,,,,,,503.1082931999117,504.1404597000219,501.6880922000855,501.6880922000855,501.6880922000855,501.6880922000855,new_stationery_3.png,143,4.0,1.415672699920833,,,id011,1,2024-10-18_14h01.51.259,Surprise recog test,2023.1.3,59.92153879538237,
143,0,143,0,,,,,,,,,,,,,,,,,,,,,,,,,,,,,,,,,,505.220882399939,,504.1404597000219,504.1404597000219,504.1404597000219,504.1404597000219,old_fruit_18.png,144,1.0,1.0856902999803424,,,id011,1,2024-10-18_14h01.51.259,Surprise recog test,2023.1.3,59.92153879538237,
144,0,144,0,,,,,,,,,,,,,,,,,,,,,,,,,,,,,,,,,,507.2569494000636,508.27579420013353,506.25484220008366,506.25484220008366,506.25484220008366,506.25484220008366,old_sceneOut_44.png,145,3.0,1.0039546999614686,,,id011,1,2024-10-18_14h01.51.259,Surprise recog test,2023.1.3,59.92153879538237,
145,0,145,0,,,,,,,,,,,,,,,,,,,,,,,,,,,,,,,,,,509.3317170001101,510.36057429993525,508.27579420013353,508.27579420013353,508.27579420013353,508.27579420013353,new_sceneOut_4.png,146,3.0,1.0514948999043554,,,id011,1,2024-10-18_14h01.51.259,Surprise recog test,2023.1.3,59.92153879538237,
146,0,146,0,,,,,,,,,,,,,,,,,,,,,,,,,,,,,,,,,,511.6959387001116,512.7249078999739,510.36057429993525,510.36057429993525,510.36057429993525,510.36057429993525,new_stationery_21.png,147,3.0,1.3385228000115603,,,id011,1,2024-10-18_14h01.51.259,Surprise recog test,2023.1.3,59.92153879538237,
147,0,147,0,,,,,,,,,,,,,,,,,,,,,,,,,,,,,,,,,,513.8625433999114,514.8959268000908,512.7249078999739,512.7249078999739,512.7249078999739,512.7249078999739,old_sceneIn_40.png,148,3.0,1.1380701998714358,,,id011,1,2024-10-18_14h01.51.259,Surprise recog test,2023.1.3,59.92153879538237,
148,0,148,0,,,,,,,,,,,,,,,,,,,,,,,,,,,,,,,,,,516.1547103999183,517.1844687999692,514.8959268000908,514.8959268000908,514.8959268000908,514.8959268000908,new_sceneIn_48.png,149,3.0,1.2608842998743057,,,id011,1,2024-10-18_14h01.51.259,Surprise recog test,2023.1.3,59.92153879538237,
149,0,149,0,,,,,,,,,,,,,,,,,,,,,,,,,,,,,,,,,,518.3497637000401,519.3871401001234,517.1844687999692,517.1844687999692,517.1844687999692,517.1844687999692,new_sceneOut_28.png,150,2.0,1.1698329001665115,,,id011,1,2024-10-18_14h01.51.259,Surprise recog test,2023.1.3,59.92153879538237,
150,0,150,0,,,,,,,,,,,,,,,,,,,,,,,,,,,,,,,,,,520.6540900000837,521.6709368000738,519.3871401001234,519.3871401001234,519.3871401001234,519.3871401001234,old_fruit_14.png,151,1.0,1.270275500137359,,,id011,1,2024-10-18_14h01.51.259,Surprise recog test,2023.1.3,59.92153879538237,
151,0,151,0,,,,,,,,,,,,,,,,,,,,,,,,,,,,,,,,,,522.9148931999225,523.9327468001284,521.6709368000738,521.6709368000738,521.6709368000738,521.6709368000738,new_fruit_24.png,152,2.0,1.2396933999843895,,,id011,1,2024-10-18_14h01.51.259,Surprise recog test,2023.1.3,59.92153879538237,
152,0,152,0,,,,,,,,,,,,,,,,,,,,,,,,,,,,,,,,,,524.97002290003,,523.9327468001284,523.9327468001284,523.9327468001284,523.9327468001284,new_stationery_28.png,153,2.0,1.0379993999376893,,,id011,1,2024-10-18_14h01.51.259,Surprise recog test,2023.1.3,59.92153879538237,
153,0,153,0,,,,,,,,,,,,,,,,,,,,,,,,,,,,,,,,,,527.1176676000468,528.1387795000337,526.0043192999437,526.0043192999437,526.0043192999437,526.0043192999437,old_fruit_27.png,154,1.0,1.1120813998859376,,,id011,1,2024-10-18_14h01.51.259,Surprise recog test,2023.1.3,59.92153879538237,
154,0,154,0,,,,,,,,,,,,,,,,,,,,,,,,,,,,,,,,,,529.6924908999354,530.7115710999351,528.1387795000337,528.1387795000337,528.1387795000337,528.1387795000337,old_stationery_20.png,155,4.0,1.554574300069362,,,id011,1,2024-10-18_14h01.51.259,Surprise recog test,2023.1.3,59.92153879538237,
155,0,155,0,,,,,,,,,,,,,,,,,,,,,,,,,,,,,,,,,,531.8639946000185,532.8962868000381,530.7115710999351,530.7115710999351,530.7115710999351,530.7115710999351,old_sceneIn_27.png,156,3.0,1.14866379997693,,,id011,1,2024-10-18_14h01.51.259,Surprise recog test,2023.1.3,59.92153879538237,
156,0,156,0,,,,,,,,,,,,,,,,,,,,,,,,,,,,,,,,,,533.9482688999269,534.966170599917,532.8962868000381,532.8962868000381,532.8962868000381,532.8962868000381,new_fruit_36.png,157,1.0,1.0559688999783248,,,id011,1,2024-10-18_14h01.51.259,Surprise recog test,2023.1.3,59.92153879538237,
157,0,157,0,,,,,,,,,,,,,,,,,,,,,,,,,,,,,,,,,,535.9193760000635,536.9343298000749,534.966170599917,534.966170599917,534.966170599917,534.966170599917,new_sceneIn_47.png,158,3.0,0.9511762000620365,,,id011,1,2024-10-18_14h01.51.259,Surprise recog test,2023.1.3,59.92153879538237,
158,0,158,0,,,,,,,,,,,,,,,,,,,,,,,,,,,,,,,,,,537.9939731999766,539.0141145000234,536.9343298000749,536.9343298000749,536.9343298000749,536.9343298000749,new_fruit_37.png,159,2.0,1.0520746000111103,,,id011,1,2024-10-18_14h01.51.259,Surprise recog test,2023.1.3,59.92153879538237,
159,0,159,0,,,,,,,,,,,,,,,,,,,,,,,,,,,,,,,,,,540.3863609000109,541.4048609000165,539.0141145000234,539.0141145000234,539.0141145000234,539.0141145000234,old_sceneIn_39.png,160,3.0,1.3739073001779616,,,id011,1,2024-10-18_14h01.51.259,Surprise recog test,2023.1.3,59.92153879538237,
160,0,160,0,,,,,,,,,,,,,,,,,,,,,,,,,,,,,,,,,,542.3202693001367,543.3513625999913,541.4048609000165,541.4048609000165,541.4048609000165,541.4048609000165,old_sceneOut_11.png,161,3.0,0.9115498999599367,,,id011,1,2024-10-18_14h01.51.259,Surprise recog test,2023.1.3,59.92153879538237,
161,0,161,0,,,,,,,,,,,,,,,,,,,,,,,,,,,,,,,,,,545.6461952999234,546.6716181999072,543.3513625999913,543.3513625999913,543.3513625999913,543.3513625999913,old_sceneIn_2.png,162,4.0,2.2965042002033442,,,id011,1,2024-10-18_14h01.51.259,Surprise recog test,2023.1.3,59.92153879538237,
162,0,162,0,,,,,,,,,,,,,,,,,,,,,,,,,,,,,,,,,,548.5821191000286,549.5959989000112,546.6716181999072,546.6716181999072,546.6716181999072,546.6716181999072,new_fruit_7.png,163,1.0,1.913024100009352,,,id011,1,2024-10-18_14h01.51.259,Surprise recog test,2023.1.3,59.92153879538237,
163,0,163,0,,,,,,,,,,,,,,,,,,,,,,,,,,,,,,,,,,550.5099287000485,551.5408880999312,549.5959989000112,549.5959989000112,549.5959989000112,549.5959989000112,old_sceneOut_35.png,164,3.0,0.9092816999182105,,,id011,1,2024-10-18_14h01.51.259,Surprise recog test,2023.1.3,59.92153879538237,
164,0,164,0,,,,,,,,,,,,,,,,,,,,,,,,,,,,,,,,,,554.2628409001045,555.293248699978,551.5408880999312,551.5408880999312,551.5408880999312,551.5408880999312,old_fruit_33.png,165,1.0,2.7218317999504507,,,id011,1,2024-10-18_14h01.51.259,Surprise recog test,2023.1.3,59.92153879538237,
165,0,165,0,,,,,,,,,,,,,,,,,,,,,,,,,,,,,,,,,,557.4434837000445,558.4655240001157,555.293248699978,555.293248699978,555.293248699978,555.293248699978,new_sceneOut_23.png,166,3.0,2.150054099969566,,,id011,1,2024-10-18_14h01.51.259,Surprise recog test,2023.1.3,59.92153879538237,
166,0,166,0,,,,,,,,,,,,,,,,,,,,,,,,,,,,,,,,,,559.6536010000855,560.6810622001067,558.4655240001157,558.4655240001157,558.4655240001157,558.4655240001157,old_fruit_49.png,167,1.0,1.1883305001538247,,,id011,1,2024-10-18_14h01.51.259,Surprise recog test,2023.1.3,59.92153879538237,
167,0,167,0,,,,,,,,,,,,,,,,,,,,,,,,,,,,,,,,,,562.1848206999712,,560.6810622001067,560.6810622001067,560.6810622001067,560.6810622001067,old_sceneOut_21.png,168,3.0,1.5076840999536216,,,id011,1,2024-10-18_14h01.51.259,Surprise recog test,2023.1.3,59.92153879538237,
168,0,168,0,,,,,,,,,,,,,,,,,,,,,,,,,,,,,,,,,,564.3918123000767,565.41972850007,563.2217324001249,563.2217324001249,563.2217324001249,563.2217324001249,old_sceneIn_20.png,169,3.0,1.1744153001345694,,,id011,1,2024-10-18_14h01.51.259,Surprise recog test,2023.1.3,59.92153879538237,
169,0,169,0,,,,,,,,,,,,,,,,,,,,,,,,,,,,,,,,,,566.3201389000751,,565.41972850007,565.41972850007,565.41972850007,565.41972850007,new_fruit_40.png,170,3.0,0.9030092000029981,,,id011,1,2024-10-18_14h01.51.259,Surprise recog test,2023.1.3,59.92153879538237,
170,0,170,0,,,,,,,,,,,,,,,,,,,,,,,,,,,,,,,,,,568.7710251000244,569.7888303000946,567.3436803999357,567.3436803999357,567.3436803999357,567.3436803999357,old_sceneOut_27.png,171,2.0,1.4196033000480384,,,id011,1,2024-10-18_14h01.51.259,Surprise recog test,2023.1.3,59.92153879538237,
171,0,171,0,,,,,,,,,,,,,,,,,,,,,,,,,,,,,,,,,,571.0379701000638,572.0574223001022,569.7888303000946,569.7888303000946,569.7888303000946,569.7888303000946,old_stationery_26.png,172,2.0,1.2478224001824856,,,id011,1,2024-10-18_14h01.51.259,Surprise recog test,2023.1.3,59.92153879538237,
172,0,172,0,,,,,,,,,,,,,,,,,,,,,,,,,,,,,,,,,,573.3297866000794,574.3641969999298,572.0574223001022,572.0574223001022,572.0574223001022,572.0574223001022,old_fruit_35.png,173,1.0,1.2716053000185639,,,id011,1,2024-10-18_14h01.51.259,Surprise recog test,2023.1.3,59.92153879538237,
173,0,173,0,,,,,,,,,,,,,,,,,,,,,,,,,,,,,,,,,,575.8542218999937,576.8673332000617,574.3641969999298,574.3641969999298,574.3641969999298,574.3641969999298,old_stationery_31.png,174,1.0,1.4907931999769062,,,id011,1,2024-10-18_14h01.51.259,Surprise recog test,2023.1.3,59.92153879538237,
174,0,174,0,,,,,,,,,,,,,,,,,,,,,,,,,,,,,,,,,,577.8479806000832,,576.8673332000617,576.8673332000617,576.8673332000617,576.8673332000617,new_sceneOut_17.png,175,4.0,0.9764155999291688,,,id011,1,2024-10-18_14h01.51.259,Surprise recog test,2023.1.3,59.92153879538237,
175,0,175,0,,,,,,,,,,,,,,,,,,,,,,,,,,,,,,,,,,580.2869929000735,581.3042447001208,578.8692199999932,578.8692199999932,578.8692199999932,578.8692199999932,new_fruit_28.png,176,4.0,1.4152282997965813,,,id011,1,2024-10-18_14h01.51.259,Surprise recog test,2023.1.3,59.92153879538237,
176,0,176,0,,,,,,,,,,,,,,,,,,,,,,,,,,,,,,,,,,582.6906079000328,583.71797899995,581.3042447001208,581.3042447001208,581.3042447001208,581.3042447001208,old_fruit_43.png,177,1.0,1.3797318001743406,,,id011,1,2024-10-18_14h01.51.259,Surprise recog test,2023.1.3,59.92153879538237,
177,0,177,0,,,,,,,,,,,,,,,,,,,,,,,,,,,,,,,,,,585.288135800045,586.3232321001124,583.71797899995,583.71797899995,583.71797899995,583.71797899995,new_stationery_46.png,178,2.0,1.572379000019282,,,id011,1,2024-10-18_14h01.51.259,Surprise recog test,2023.1.3,59.92153879538237,
178,0,178,0,,,,,,,,,,,,,,,,,,,,,,,,,,,,,,,,,,587.5350649000611,588.5578240000177,586.3232321001124,586.3232321001124,586.3232321001124,586.3232321001124,old_fruit_23.png,179,1.0,1.209891299949959,,,id011,1,2024-10-18_14h01.51.259,Surprise recog test,2023.1.3,59.92153879538237,
179,0,179,0,,,,,,,,,,,,,,,,,,,,,,,,,,,,,,,,,,590.1325556000229,591.1644735999871,588.5578240000177,588.5578240000177,588.5578240000177,588.5578240000177,new_stationery_37.png,180,4.0,1.5776814999990165,,,id011,1,2024-10-18_14h01.51.259,Surprise recog test,2023.1.3,59.92153879538237,
180,0,180,0,,,,,,,,,,,,,,,,,,,,,,,,,,,,,,,,,,592.4892365999985,593.5096329001244,591.1644735999871,591.1644735999871,591.1644735999871,591.1644735999871,old_stationery_48.png,181,4.0,1.3270062999799848,,,id011,1,2024-10-18_14h01.51.259,Surprise recog test,2023.1.3,59.92153879538237,
181,0,181,0,,,,,,,,,,,,,,,,,,,,,,,,,,,,,,,,,,594.7106469001155,,593.5096329001244,593.5096329001244,593.5096329001244,593.5096329001244,old_stationery_14.png,182,3.0,1.2034798997920007,,,id011,1,2024-10-18_14h01.51.259,Surprise recog test,2023.1.3,59.92153879538237,
182,0,182,0,,,,,,,,,,,,,,,,,,,,,,,,,,,,,,,,,,596.898571100086,597.918353300076,595.7389366000425,595.7389366000425,595.7389366000425,595.7389366000425,new_sceneIn_4.png,183,3.0,1.1588490998838097,,,id011,1,2024-10-18_14h01.51.259,Surprise recog test,2023.1.3,59.92153879538237,
183,0,183,0,,,,,,,,,,,,,,,,,,,,,,,,,,,,,,,,,,599.7285233000293,600.7371950999368,597.918353300076,597.918353300076,597.918353300076,597.918353300076,old_fruit_45.png,184,1.0,1.801493200007826,,,id011,1,2024-10-18_14h01.51.259,Surprise recog test,2023.1.3,59.92153879538237,
184,0,184,0,,,,,,,,,,,,,,,,,,,,,,,,,,,,,,,,,,602.0304511000868,603.0544044000562,600.7371950999368,600.7371950999368,600.7371950999368,600.7371950999368,new_fruit_12.png,185,1.0,1.2844856998417526,,,id011,1,2024-10-18_14h01.51.259,Surprise recog test,2023.1.3,59.92153879538237,
185,0,185,0,,,,,,,,,,,,,,,,,,,,,,,,,,,,,,,,,,605.5861476000864,,603.0544044000562,603.0544044000562,603.0544044000562,603.0544044000562,new_stationery_36.png,186,4.0,2.535548099782318,,,id011,1,2024-10-18_14h01.51.259,Surprise recog test,2023.1.3,59.92153879538237,
186,0,186,0,,,,,,,,,,,,,,,,,,,,,,,,,,,,,,,,,,608.781972900033,609.8007378000766,606.6086015000474,606.6086015000474,606.6086015000474,606.6086015000474,old_sceneIn_26.png,187,3.0,2.1689276001416147,,,id011,1,2024-10-18_14h01.51.259,Surprise recog test,2023.1.3,59.92153879538237,
187,0,187,0,,,,,,,,,,,,,,,,,,,,,,,,,,,,,,,,,,613.4478855000343,614.4822800999973,609.8007378000766,609.8007378000766,609.8007378000766,609.8007378000766,old_sceneOut_37.png,188,2.0,3.648275400046259,,,id011,1,2024-10-18_14h01.51.259,Surprise recog test,2023.1.3,59.92153879538237,
188,0,188,0,,,,,,,,,,,,,,,,,,,,,,,,,,,,,,,,,,615.7989066999871,616.8172335000709,614.4822800999973,614.4822800999973,614.4822800999973,614.4822800999973,new_sceneIn_29.png,189,3.0,1.318370799999684,,,id011,1,2024-10-18_14h01.51.259,Surprise recog test,2023.1.3,59.92153879538237,
189,0,189,0,,,,,,,,,,,,,,,,,,,,,,,,,,,,,,,,,,618.5775017000269,619.5862396999728,616.8172335000709,616.8172335000709,616.8172335000709,616.8172335000709,new_sceneOut_50.png,190,3.0,1.749329000012949,,,id011,1,2024-10-18_14h01.51.259,Surprise recog test,2023.1.3,59.92153879538237,
190,0,190,0,,,,,,,,,,,,,,,,,,,,,,,,,,,,,,,,,,620.9739075000398,621.9881706000306,619.5862396999728,619.5862396999728,619.5862396999728,619.5862396999728,new_sceneIn_33.png,191,4.0,1.3821101000066847,,,id011,1,2024-10-18_14h01.51.259,Surprise recog test,2023.1.3,59.92153879538237,
191,0,191,0,,,,,,,,,,,,,,,,,,,,,,,,,,,,,,,,,,623.4705509999767,624.50362520013,621.9881706000306,621.9881706000306,621.9881706000306,621.9881706000306,new_fruit_42.png,192,1.0,1.4782001001294702,,,id011,1,2024-10-18_14h01.51.259,Surprise recog test,2023.1.3,59.92153879538237,
192,0,192,0,,,,,,,,,,,,,,,,,,,,,,,,,,,,,,,,,,626.6710868000519,,624.50362520013,624.50362520013,624.50362520013,624.50362520013,new_stationery_23.png,193,3.0,2.168935399968177,,,id011,1,2024-10-18_14h01.51.259,Surprise recog test,2023.1.3,59.92153879538237,
193,0,193,0,,,,,,,,,,,,,,,,,,,,,,,,,,,,,,,,,,629.1029539001174,630.1267754000146,627.7085436999332,627.7085436999332,627.7085436999332,627.7085436999332,old_stationery_40.png,194,1.0,1.3968342998996377,,,id011,1,2024-10-18_14h01.51.259,Surprise recog test,2023.1.3,59.92153879538237,
194,0,194,0,,,,,,,,,,,,,,,,,,,,,,,,,,,,,,,,,,631.6818107001018,632.7147910001222,630.1267754000146,630.1267754000146,630.1267754000146,630.1267754000146,old_sceneIn_15.png,195,3.0,1.5565780000761151,,,id011,1,2024-10-18_14h01.51.259,Surprise recog test,2023.1.3,59.92153879538237,
195,0,195,0,,,,,,,,,,,,,,,,,,,,,,,,,,,,,,,,,,633.7747985001188,634.782927500084,632.7147910001222,632.7147910001222,632.7147910001222,632.7147910001222,new_sceneIn_36.png,196,3.0,1.063488199841231,,,id011,1,2024-10-18_14h01.51.259,Surprise recog test,2023.1.3,59.92153879538237,
196,0,196,0,,,,,,,,,,,,,,,,,,,,,,,,,,,,,,,,,,636.2787105001044,,634.782927500084,634.782927500084,634.782927500084,634.782927500084,new_sceneOut_36.png,197,3.0,1.491617500083521,,,id011,1,2024-10-18_14h01.51.259,Surprise recog test,2023.1.3,59.92153879538237,
197,0,197,0,,,,,,,,,,,,,,,,,,,,,,,,,,,,,,,,,,638.3967844999861,,637.2995907000732,637.2995907000732,637.2995907000732,637.2995907000732,new_fruit_19.png,198,1.0,1.092598400078714,,,id011,1,2024-10-18_14h01.51.259,Surprise recog test,2023.1.3,59.92153879538237,
198,0,198,0,,,,,,,,,,,,,,,,,,,,,,,,,,,,,,,,,,640.4711229999084,641.4882692000829,639.4222466000356,639.4222466000356,639.4222466000356,639.4222466000356,old_sceneIn_43.png,199,3.0,1.048437099903822,,,id011,1,2024-10-18_14h01.51.259,Surprise recog test,2023.1.3,59.92153879538237,
199,0,199,0,,,,,,,,,,,,,,,,,,,,,,,,,,,,,,,,,,642.5803775000386,643.6019653999247,641.4882692000829,641.4882692000829,641.4882692000829,641.4882692000829,old_fruit_4.png,200,1.0,1.08645089995116,,,id011,1,2024-10-18_14h01.51.259,Surprise recog test,2023.1.3,59.92153879538237,
200,0,200,0,,,,,,,,,,,,,,,,,,,,,,,,,,,,,,,,,,645.5497642001137,646.5731222999748,643.6019653999247,643.6019653999247,643.6019653999247,643.6019653999247,old_sceneOut_3.png,201,3.0,1.9496790999546647,,,id011,1,2024-10-18_14h01.51.259,Surprise recog test,2023.1.3,59.92153879538237,
201,0,201,0,,,,,,,,,,,,,,,,,,,,,,,,,,,,,,,,,,649.3523665000685,650.3693566999864,646.5731222999748,646.5731222999748,646.5731222999748,646.5731222999748,new_sceneIn_14.png,202,3.0,2.782149499980733,,,id011,1,2024-10-18_14h01.51.259,Surprise recog test,2023.1.3,59.92153879538237,
202,0,202,0,,,,,,,,,,,,,,,,,,,,,,,,,,,,,,,,,,651.9895588001236,652.9972330001183,650.3693566999864,650.3693566999864,650.3693566999864,650.3693566999864,new_sceneOut_11.png,203,3.0,1.618753399932757,,,id011,1,2024-10-18_14h01.51.259,Surprise recog test,2023.1.3,59.92153879538237,
203,0,203,0,,,,,,,,,,,,,,,,,,,,,,,,,,,,,,,,,,654.0555764001328,655.0657462999225,652.9972330001183,652.9972330001183,652.9972330001183,652.9972330001183,new_fruit_49.png,204,1.0,1.050362200010568,,,id011,1,2024-10-18_14h01.51.259,Surprise recog test,2023.1.3,59.92153879538237,
204,0,204,0,,,,,,,,,,,,,,,,,,,,,,,,,,,,,,,,,,656.8477121000178,657.8761207000352,655.0657462999225,655.0657462999225,655.0657462999225,655.0657462999225,old_sceneIn_34.png,205,3.0,1.778443100163713,,,id011,1,2024-10-18_14h01.51.259,Surprise recog test,2023.1.3,59.92153879538237,
205,0,205,0,,,,,,,,,,,,,,,,,,,,,,,,,,,,,,,,,,659.8186109000817,660.8371353999246,657.8761207000352,657.8761207000352,657.8761207000352,657.8761207000352,new_sceneOut_6.png,206,3.0,1.9435672999825329,,,id011,1,2024-10-18_14h01.51.259,Surprise recog test,2023.1.3,59.92153879538237,
206,0,206,0,,,,,,,,,,,,,,,,,,,,,,,,,,,,,,,,,,661.6723512001336,662.7013707000297,660.8371353999246,660.8371353999246,660.8371353999246,660.8371353999246,old_sceneOut_36.png,207,3.0,0.8310938999056816,,,id011,1,2024-10-18_14h01.51.259,Surprise recog test,2023.1.3,59.92153879538237,
207,0,207,0,,,,,,,,,,,,,,,,,,,,,,,,,,,,,,,,,,663.4658284999896,664.485999400029,662.7013707000297,662.7013707000297,662.7013707000297,662.7013707000297,new_sceneIn_40.png,208,3.0,0.7651013000868261,,,id011,1,2024-10-18_14h01.51.259,Surprise recog test,2023.1.3,59.92153879538237,
208,0,208,0,,,,,,,,,,,,,,,,,,,,,,,,,,,,,,,,,,666.0670153000392,667.0711519999895,664.485999400029,664.485999400029,664.485999400029,664.485999400029,old_stationery_28.png,209,1.0,1.5801364001818001,,,id011,1,2024-10-18_14h01.51.259,Surprise recog test,2023.1.3,59.92153879538237,
209,0,209,0,,,,,,,,,,,,,,,,,,,,,,,,,,,,,,,,,,668.1453301000874,669.1703165001236,667.0711519999895,667.0711519999895,667.0711519999895,667.0711519999895,old_fruit_48.png,210,1.0,1.0701603000052273,,,id011,1,2024-10-18_14h01.51.259,Surprise recog test,2023.1.3,59.92153879538237,
210,0,210,0,,,,,,,,,,,,,,,,,,,,,,,,,,,,,,,,,,670.1377099000383,671.1576094999909,669.1703165001236,669.1703165001236,669.1703165001236,669.1703165001236,old_sceneOut_26.png,211,3.0,0.9631279001478106,,,id011,1,2024-10-18_14h01.51.259,Surprise recog test,2023.1.3,59.92153879538237,
211,0,211,0,,,,,,,,,,,,,,,,,,,,,,,,,,,,,,,,,,673.2196116000414,674.2448029001243,671.1576094999909,671.1576094999909,671.1576094999909,671.1576094999909,old_stationery_11.png,212,3.0,2.0635067000985146,,,id011,1,2024-10-18_14h01.51.259,Surprise recog test,2023.1.3,59.92153879538237,
212,0,212,0,,,,,,,,,,,,,,,,,,,,,,,,,,,,,,,,,,675.3979724000674,676.4164086999372,674.2448029001243,674.2448029001243,674.2448029001243,674.2448029001243,new_fruit_39.png,213,1.0,1.1562380001414567,,,id011,1,2024-10-18_14h01.51.259,Surprise recog test,2023.1.3,59.92153879538237,
213,0,213,0,,,,,,,,,,,,,,,,,,,,,,,,,,,,,,,,,,677.6263830999378,678.6476507999469,676.4164086999372,676.4164086999372,676.4164086999372,676.4164086999372,old_stationery_8.png,214,3.0,1.205866999924183,,,id011,1,2024-10-18_14h01.51.259,Surprise recog test,2023.1.3,59.92153879538237,
214,0,214,0,,,,,,,,,,,,,,,,,,,,,,,,,,,,,,,,,,679.697351400042,,678.6476507999469,678.6476507999469,678.6476507999469,678.6476507999469,old_fruit_21.png,215,1.0,1.0519847001414746,,,id011,1,2024-10-18_14h01.51.259,Surprise recog test,2023.1.3,59.92153879538237,
215,0,215,0,,,,,,,,,,,,,,,,,,,,,,,,,,,,,,,,,,682.0043713001069,683.0344841000624,680.7318538001273,680.7318538001273,680.7318538001273,680.7318538001273,old_fruit_34.png,216,1.0,1.2741187000647187,,,id011,1,2024-10-18_14h01.51.259,Surprise recog test,2023.1.3,59.92153879538237,
216,0,216,0,,,,,,,,,,,,,,,,,,,,,,,,,,,,,,,,,,684.6235001001041,685.654890100006,683.0344841000624,683.0344841000624,683.0344841000624,683.0344841000624,new_stationery_10.png,217,4.0,1.5900336999911815,,,id011,1,2024-10-18_14h01.51.259,Surprise recog test,2023.1.3,59.92153879538237,
217,0,217,0,,,,,,,,,,,,,,,,,,,,,,,,,,,,,,,,,,687.2346820000093,688.2558707001153,685.654890100006,685.654890100006,685.654890100006,685.654890100006,old_stationery_12.png,218,2.0,1.5784698999486864,,,id011,1,2024-10-18_14h01.51.259,Surprise recog test,2023.1.3,59.92153879538237,
218,0,218,0,,,,,,,,,,,,,,,,,,,,,,,,,,,,,,,,,,689.3337507001124,690.3519753001165,688.2558707001153,688.2558707001153,688.2558707001153,688.2558707001153,new_sceneIn_37.png,219,3.0,1.0780290998518467,,,id011,1,2024-10-18_14h01.51.259,Surprise recog test,2023.1.3,59.92153879538237,
219,0,219,0,,,,,,,,,,,,,,,,,,,,,,,,,,,,,,,,,,693.4185458000284,694.4474633999635,690.3519753001165,690.3519753001165,690.3519753001165,690.3519753001165,new_sceneIn_16.png,220,2.0,3.068064699880779,,,id011,1,2024-10-18_14h01.51.259,Surprise recog test,2023.1.3,59.92153879538237,
220,0,220,0,,,,,,,,,,,,,,,,,,,,,,,,,,,,,,,,,,696.2284154000226,,694.4474633999635,694.4474633999635,694.4474633999635,694.4474633999635,new_sceneIn_31.png,221,3.0,1.7828135001473129,,,id011,1,2024-10-18_14h01.51.259,Surprise recog test,2023.1.3,59.92153879538237,
221,0,221,0,,,,,,,,,,,,,,,,,,,,,,,,,,,,,,,,,,700.2957649000455,701.3162515999284,697.2635328001343,697.2635328001343,697.2635328001343,697.2635328001343,new_sceneIn_18.png,222,2.0,3.03189260000363,,,id011,1,2024-10-18_14h01.51.259,Surprise recog test,2023.1.3,59.92153879538237,
222,0,222,0,,,,,,,,,,,,,,,,,,,,,,,,,,,,,,,,,,702.998652700102,704.018465399975,701.3162515999284,701.3162515999284,701.3162515999284,701.3162515999284,new_sceneIn_30.png,223,3.0,1.682412400143221,,,id011,1,2024-10-18_14h01.51.259,Surprise recog test,2023.1.3,59.92153879538237,
223,0,223,0,,,,,,,,,,,,,,,,,,,,,,,,,,,,,,,,,,705.2843933999538,706.3036758999806,704.018465399975,704.018465399975,704.018465399975,704.018465399975,new_stationery_41.png,224,3.0,1.2673754000570625,,,id011,1,2024-10-18_14h01.51.259,Surprise recog test,2023.1.3,59.92153879538237,
224,0,224,0,,,,,,,,,,,,,,,,,,,,,,,,,,,,,,,,,,707.7829837000463,708.804908500053,706.3036758999806,706.3036758999806,706.3036758999806,706.3036758999806,new_sceneIn_15.png,225,3.0,1.4808408000972122,,,id011,1,2024-10-18_14h01.51.259,Surprise recog test,2023.1.3,59.92153879538237,
225,0,225,0,,,,,,,,,,,,,,,,,,,,,,,,,,,,,,,,,,710.7954011000693,711.8214018999133,708.804908500053,708.804908500053,708.804908500053,708.804908500053,old_stationery_29.png,226,2.0,1.990587499924004,,,id011,1,2024-10-18_14h01.51.259,Surprise recog test,2023.1.3,59.92153879538237,
226,0,226,0,,,,,,,,,,,,,,,,,,,,,,,,,,,,,,,,,,713.1166711999103,714.1429187001195,711.8214018999133,711.8214018999133,711.8214018999133,711.8214018999133,old_sceneIn_48.png,227,4.0,1.2968705999664962,,,id011,1,2024-10-18_14h01.51.259,Surprise recog test,2023.1.3,59.92153879538237,
227,0,227,0,,,,,,,,,,,,,,,,,,,,,,,,,,,,,,,,,,715.3361881999299,716.3625767000485,714.1429187001195,714.1429187001195,714.1429187001195,714.1429187001195,new_stationery_45.png,228,3.0,1.196326200151816,,,id011,1,2024-10-18_14h01.51.259,Surprise recog test,2023.1.3,59.92153879538237,
228,0,228,0,,,,,,,,,,,,,,,,,,,,,,,,,,,,,,,,,,717.5152630000375,718.5467429000419,716.3625767000485,716.3625767000485,716.3625767000485,716.3625767000485,old_fruit_22.png,229,1.0,1.1552625000476837,,,id011,1,2024-10-18_14h01.51.259,Surprise recog test,2023.1.3,59.92153879538237,
229,0,229,0,,,,,,,,,,,,,,,,,,,,,,,,,,,,,,,,,,719.6699850999285,720.7002960001118,718.5467429000419,718.5467429000419,718.5467429000419,718.5467429000419,new_sceneOut_25.png,230,5.0,1.12484659999609,,,id011,1,2024-10-18_14h01.51.259,Surprise recog test,2023.1.3,59.92153879538237,
230,0,230,0,,,,,,,,,,,,,,,,,,,,,,,,,,,,,,,,,,721.6797225000337,722.6882875999436,720.7002960001118,720.7002960001118,720.7002960001118,720.7002960001118,new_stationery_9.png,231,3.0,0.9785229999106377,,,id011,1,2024-10-18_14h01.51.259,Surprise recog test,2023.1.3,59.92153879538237,
231,0,231,0,,,,,,,,,,,,,,,,,,,,,,,,,,,,,,,,,,724.2337629999965,725.2523541001137,722.6882875999436,722.6882875999436,722.6882875999436,722.6882875999436,old_fruit_41.png,232,1.0,1.5412878000643104,,,id011,1,2024-10-18_14h01.51.259,Surprise recog test,2023.1.3,59.92153879538237,
232,0,232,0,,,,,,,,,,,,,,,,,,,,,,,,,,,,,,,,,,726.2577168999705,727.287802600069,725.2523541001137,725.2523541001137,725.2523541001137,725.2523541001137,new_sceneIn_28.png,233,3.0,1.0075056999921799,,,id011,1,2024-10-18_14h01.51.259,Surprise recog test,2023.1.3,59.92153879538237,
233,0,233,0,,,,,,,,,,,,,,,,,,,,,,,,,,,,,,,,,,728.9335829999764,729.9444625999313,727.287802600069,727.287802600069,727.287802600069,727.287802600069,new_stationery_47.png,234,4.0,1.645893800072372,,,id011,1,2024-10-18_14h01.51.259,Surprise recog test,2023.1.3,59.92153879538237,
234,0,234,0,,,,,,,,,,,,,,,,,,,,,,,,,,,,,,,,,,731.0753788999282,,729.9444625999313,729.9444625999313,729.9444625999313,729.9444625999313,old_sceneOut_49.png,235,3.0,1.1245661999564618,,,id011,1,2024-10-18_14h01.51.259,Surprise recog test,2023.1.3,59.92153879538237,
235,0,235,0,,,,,,,,,,,,,,,,,,,,,,,,,,,,,,,,,,733.8225420999806,734.8464720000047,732.1089598999824,732.1089598999824,732.1089598999824,732.1089598999824,new_fruit_3.png,236,2.0,1.7163027001079172,,,id011,1,2024-10-18_14h01.51.259,Surprise recog test,2023.1.3,59.92153879538237,
236,0,236,0,,,,,,,,,,,,,,,,,,,,,,,,,,,,,,,,,,736.5633056000806,,734.8464720000047,734.8464720000047,734.8464720000047,734.8464720000047,old_sceneIn_29.png,237,3.0,1.7185796999838203,,,id011,1,2024-10-18_14h01.51.259,Surprise recog test,2023.1.3,59.92153879538237,
237,0,237,0,,,,,,,,,,,,,,,,,,,,,,,,,,,,,,,,,,742.1309468001127,743.1511214000639,737.5952761999797,737.5952761999797,737.5952761999797,737.5952761999797,new_sceneIn_35.png,238,3.0,4.534293100005016,,,id011,1,2024-10-18_14h01.51.259,Surprise recog test,2023.1.3,59.92153879538237,
238,0,238,0,,,,,,,,,,,,,,,,,,,,,,,,,,,,,,,,,,744.1837426000275,745.206764300121,743.1511214000639,743.1511214000639,743.1511214000639,743.1511214000639,new_sceneOut_29.png,239,3.0,1.0326749000232667,,,id011,1,2024-10-18_14h01.51.259,Surprise recog test,2023.1.3,59.92153879538237,
239,0,239,0,,,,,,,,,,,,,,,,,,,,,,,,,,,,,,,,,,746.9964858000167,748.0090314999688,745.206764300121,745.206764300121,745.206764300121,745.206764300121,new_stationery_29.png,240,2.0,1.795133699895814,,,id011,1,2024-10-18_14h01.51.259,Surprise recog test,2023.1.3,59.92153879538237,
240,0,240,0,,,,,,,,,,,,,,,,,,,,,,,,,,,,,,,,,,749.1600349999499,750.1780497999862,748.0090314999688,748.0090314999688,748.0090314999688,748.0090314999688,old_stationery_46.png,241,4.0,1.1474229998420924,,,id011,1,2024-10-18_14h01.51.259,Surprise recog test,2023.1.3,59.92153879538237,
241,0,241,0,,,,,,,,,,,,,,,,,,,,,,,,,,,,,,,,,,751.434397400124,752.450515100034,750.1780497999862,750.1780497999862,750.1780497999862,750.1780497999862,new_fruit_21.png,242,1.0,1.2491975999437273,,,id011,1,2024-10-18_14h01.51.259,Surprise recog test,2023.1.3,59.92153879538237,
242,0,242,0,,,,,,,,,,,,,,,,,,,,,,,,,,,,,,,,,,753.6041518999264,754.6309863000643,752.450515100034,752.450515100034,752.450515100034,752.450515100034,new_fruit_17.png,243,1.0,1.154201699886471,,,id011,1,2024-10-18_14h01.51.259,Surprise recog test,2023.1.3,59.92153879538237,
243,0,243,0,,,,,,,,,,,,,,,,,,,,,,,,,,,,,,,,,,755.7536530001089,756.7786465000827,754.6309863000643,754.6309863000643,754.6309863000643,754.6309863000643,new_fruit_11.png,244,1.0,1.1255783999804407,,,id011,1,2024-10-18_14h01.51.259,Surprise recog test,2023.1.3,59.92153879538237,
244,0,244,0,,,,,,,,,,,,,,,,,,,,,,,,,,,,,,,,,,757.7925521000288,758.8063972000964,756.7786465000827,756.7786465000827,756.7786465000827,756.7786465000827,old_fruit_47.png,245,1.0,1.0155102000571787,,,id011,1,2024-10-18_14h01.51.259,Surprise recog test,2023.1.3,59.92153879538237,
245,0,245,0,,,,,,,,,,,,,,,,,,,,,,,,,,,,,,,,,,760.1845915000886,761.2179316999391,758.8063972000964,758.8063972000964,758.8063972000964,758.8063972000964,old_sceneIn_5.png,246,4.0,1.378458899911493,,,id011,1,2024-10-18_14h01.51.259,Surprise recog test,2023.1.3,59.92153879538237,
246,0,246,0,,,,,,,,,,,,,,,,,,,,,,,,,,,,,,,,,,762.3970761999954,763.4023776000831,761.2179316999391,761.2179316999391,761.2179316999391,761.2179316999391,old_stationery_50.png,247,4.0,1.1746680000796914,,,id011,1,2024-10-18_14h01.51.259,Surprise recog test,2023.1.3,59.92153879538237,
247,0,247,0,,,,,,,,,,,,,,,,,,,,,,,,,,,,,,,,,,765.8333113000263,766.8382489001378,763.4023776000831,763.4023776000831,763.4023776000831,763.4023776000831,old_sceneIn_3.png,248,4.0,2.4214683999307454,,,id011,1,2024-10-18_14h01.51.259,Surprise recog test,2023.1.3,59.92153879538237,
248,0,248,0,,,,,,,,,,,,,,,,,,,,,,,,,,,,,,,,,,769.1860096000601,770.1916783999186,766.8382489001378,766.8382489001378,766.8382489001378,766.8382489001378,new_sceneOut_32.png,249,4.0,2.337994599947706,,,id011,1,2024-10-18_14h01.51.259,Surprise recog test,2023.1.3,59.92153879538237,
249,0,249,0,,,,,,,,,,,,,,,,,,,,,,,,,,,,,,,,,,771.3044120001141,772.3091182000935,770.1916783999186,770.1916783999186,770.1916783999186,770.1916783999186,old_fruit_42.png,250,1.0,1.1045873002149165,,,id011,1,2024-10-18_14h01.51.259,Surprise recog test,2023.1.3,59.92153879538237,
250,0,250,0,,,,,,,,,,,,,,,,,,,,,,,,,,,,,,,,,,773.6229852000251,774.6288829999976,772.3091182000935,772.3091182000935,772.3091182000935,772.3091182000935,old_fruit_40.png,251,1.0,1.30361820012331,,,id011,1,2024-10-18_14h01.51.259,Surprise recog test,2023.1.3,59.92153879538237,
251,0,251,0,,,,,,,,,,,,,,,,,,,,,,,,,,,,,,,,,,775.9082710000221,776.9135199000593,774.6288829999976,774.6288829999976,774.6288829999976,774.6288829999976,new_sceneOut_14.png,252,3.0,1.2697706001345068,,,id011,1,2024-10-18_14h01.51.259,Surprise recog test,2023.1.3,59.92153879538237,
252,0,252,0,,,,,,,,,,,,,,,,,,,,,,,,,,,,,,,,,,778.1267919000238,779.1318455000874,776.9135199000593,776.9135199000593,776.9135199000593,776.9135199000593,old_stationery_23.png,253,3.0,1.203870400087908,,,id011,1,2024-10-18_14h01.51.259,Surprise recog test,2023.1.3,59.92153879538237,
253,0,253,0,,,,,,,,,,,,,,,,,,,,,,,,,,,,,,,,,,780.9791586999781,781.9833289000671,779.1318455000874,779.1318455000874,779.1318455000874,779.1318455000874,old_fruit_37.png,254,1.0,1.8370514998678118,,,id011,1,2024-10-18_14h01.51.259,Surprise recog test,2023.1.3,59.92153879538237,
254,0,254,0,,,,,,,,,,,,,,,,,,,,,,,,,,,,,,,,,,783.5979830999859,784.6031096999068,781.9833289000671,781.9833289000671,781.9833289000671,781.9833289000671,new_stationery_43.png,255,3.0,1.603514099959284,,,id011,1,2024-10-18_14h01.51.259,Surprise recog test,2023.1.3,59.92153879538237,
255,0,255,0,,,,,,,,,,,,,,,,,,,,,,,,,,,,,,,,,,786.5837795999832,787.5885701000225,784.6031096999068,784.6031096999068,784.6031096999068,784.6031096999068,old_stationery_16.png,256,3.0,1.970786500023678,,,id011,1,2024-10-18_14h01.51.259,Surprise recog test,2023.1.3,59.92153879538237,
256,0,256,0,,,,,,,,,,,,,,,,,,,,,,,,,,,,,,,,,,789.9199049000163,790.9248122000135,787.5885701000225,787.5885701000225,787.5885701000225,787.5885701000225,old_stationery_24.png,257,2.0,2.3209963999688625,,,id011,1,2024-10-18_14h01.51.259,Surprise recog test,2023.1.3,59.92153879538237,
257,0,257,0,,,,,,,,,,,,,,,,,,,,,,,,,,,,,,,,,,794.5571002999786,795.5618563001044,790.9248122000135,790.9248122000135,790.9248122000135,790.9248122000135,new_sceneOut_45.png,258,3.0,3.623417600058019,,,id011,1,2024-10-18_14h01.51.259,Surprise recog test,2023.1.3,59.92153879538237,
258,0,258,0,,,,,,,,,,,,,,,,,,,,,,,,,,,,,,,,,,796.8422817001119,797.8469549999572,795.5618563001044,795.5618563001044,795.5618563001044,795.5618563001044,old_fruit_6.png,259,1.0,1.2708729000296444,,,id011,1,2024-10-18_14h01.51.259,Surprise recog test,2023.1.3,59.92153879538237,
259,0,259,0,,,,,,,,,,,,,,,,,,,,,,,,,,,,,,,,,,799.077512799995,800.0823296001181,797.8469549999572,797.8469549999572,797.8469549999572,797.8469549999572,new_sceneIn_49.png,260,3.0,1.2205087000038475,,,id011,1,2024-10-18_14h01.51.259,Surprise recog test,2023.1.3,59.92153879538237,
260,0,260,0,,,,,,,,,,,,,,,,,,,,,,,,,,,,,,,,,,801.713004300138,802.7184061999433,800.0823296001181,800.0823296001181,800.0823296001181,800.0823296001181,new_stationery_25.png,261,3.0,1.6214313998352736,,,id011,1,2024-10-18_14h01.51.259,Surprise recog test,2023.1.3,59.92153879538237,
261,0,261,0,,,,,,,,,,,,,,,,,,,,,,,,,,,,,,,,,,803.9339084001258,,802.7184061999433,802.7184061999433,802.7184061999433,802.7184061999433,new_sceneIn_6.png,262,3.0,1.2110413999762386,,,id011,1,2024-10-18_14h01.51.259,Surprise recog test,2023.1.3,59.92153879538237,
262,0,262,0,,,,,,,,,,,,,,,,,,,,,,,,,,,,,,,,,,805.8064780000132,806.8218610000331,804.9547917000018,804.9547917000018,804.9547917000018,804.9547917000018,new_sceneIn_22.png,263,3.0,0.8469074000604451,,,id011,1,2024-10-18_14h01.51.259,Surprise recog test,2023.1.3,59.92153879538237,
263,0,263,0,,,,,,,,,,,,,,,,,,,,,,,,,,,,,,,,,,808.2354349999223,809.2531884000637,806.8218610000331,806.8218610000331,806.8218610000331,806.8218610000331,old_sceneIn_13.png,264,2.0,1.405318200122565,,,id011,1,2024-10-18_14h01.51.259,Surprise recog test,2023.1.3,59.92153879538237,
264,0,264,0,,,,,,,,,,,,,,,,,,,,,,,,,,,,,,,,,,810.2734129000455,,809.2531884000637,809.2531884000637,809.2531884000637,809.2531884000637,old_sceneIn_19.png,265,2.0,1.0208501999732107,,,id011,1,2024-10-18_14h01.51.259,Surprise recog test,2023.1.3,59.92153879538237,
265,0,265,0,,,,,,,,,,,,,,,,,,,,,,,,,,,,,,,,,,812.5180303999223,813.5386898999568,811.2950069000944,811.2950069000944,811.2950069000944,811.2950069000944,new_sceneOut_21.png,266,3.0,1.218629099894315,,,id011,1,2024-10-18_14h01.51.259,Surprise recog test,2023.1.3,59.92153879538237,
266,0,266,0,,,,,,,,,,,,,,,,,,,,,,,,,,,,,,,,,,814.7477843000088,815.7650967000518,813.5386898999568,813.5386898999568,813.5386898999568,813.5386898999568,new_sceneOut_1.png,267,2.0,1.2120988999959081,,,id011,1,2024-10-18_14h01.51.259,Surprise recog test,2023.1.3,59.92153879538237,
267,0,267,0,,,,,,,,,,,,,,,,,,,,,,,,,,,,,,,,,,816.9497465000022,817.9679185999557,815.7650967000518,815.7650967000518,815.7650967000518,815.7650967000518,new_sceneOut_3.png,268,2.0,1.1815675999969244,,,id011,1,2024-10-18_14h01.51.259,Surprise recog test,2023.1.3,59.92153879538237,
268,0,268,0,,,,,,,,,,,,,,,,,,,,,,,,,,,,,,,,,,819.36756230006,820.3952550000977,817.9679185999557,817.9679185999557,817.9679185999557,817.9679185999557,new_sceneOut_41.png,269,3.0,1.3960986000020057,,,id011,1,2024-10-18_14h01.51.259,Surprise recog test,2023.1.3,59.92153879538237,
269,0,269,0,,,,,,,,,,,,,,,,,,,,,,,,,,,,,,,,,,821.8836471000686,,820.3952550000977,820.3952550000977,820.3952550000977,820.3952550000977,new_stationery_19.png,270,4.0,1.4913038001395762,,,id011,1,2024-10-18_14h01.51.259,Surprise recog test,2023.1.3,59.92153879538237,
270,0,270,0,,,,,,,,,,,,,,,,,,,,,,,,,,,,,,,,,,824.0706611000933,825.0903034000657,822.912004099926,822.912004099926,822.912004099926,822.912004099926,old_fruit_16.png,271,1.0,1.159369400003925,,,id011,1,2024-10-18_14h01.51.259,Surprise recog test,2023.1.3,59.92153879538237,
271,0,271,0,,,,,,,,,,,,,,,,,,,,,,,,,,,,,,,,,,826.5761327999644,827.597495400114,825.0903034000657,825.0903034000657,825.0903034000657,825.0903034000657,old_sceneOut_23.png,272,2.0,1.481314399978146,,,id011,1,2024-10-18_14h01.51.259,Surprise recog test,2023.1.3,59.92153879538237,
272,0,272,0,,,,,,,,,,,,,,,,,,,,,,,,,,,,,,,,,,828.7393749000039,,827.597495400114,827.597495400114,827.597495400114,827.597495400114,old_fruit_32.png,273,1.0,1.1365998000837862,,,id011,1,2024-10-18_14h01.51.259,Surprise recog test,2023.1.3,59.92153879538237,
273,0,273,0,,,,,,,,,,,,,,,,,,,,,,,,,,,,,,,,,,830.6205539000221,831.6290631000884,829.7568258999381,829.7568258999381,829.7568258999381,829.7568258999381,new_sceneOut_34.png,274,3.0,0.8574383999221027,,,id011,1,2024-10-18_14h01.51.259,Surprise recog test,2023.1.3,59.92153879538237,
274,0,274,0,,,,,,,,,,,,,,,,,,,,,,,,,,,,,,,,,,832.798110099975,833.8266815999523,831.6290631000884,831.6290631000884,831.6290631000884,831.6290631000884,old_stationery_33.png,275,3.0,1.1649599999655038,,,id011,1,2024-10-18_14h01.51.259,Surprise recog test,2023.1.3,59.92153879538237,
275,0,275,0,,,,,,,,,,,,,,,,,,,,,,,,,,,,,,,,,,835.8655604999512,836.8961247000843,833.8266815999523,833.8266815999523,833.8266815999523,833.8266815999523,new_fruit_4.png,276,5.0,2.0402995001059026,,,id011,1,2024-10-18_14h01.51.259,Surprise recog test,2023.1.3,59.92153879538237,
276,0,276,0,,,,,,,,,,,,,,,,,,,,,,,,,,,,,,,,,,837.8770513001364,838.8961221000645,836.8961247000843,836.8961247000843,836.8961247000843,836.8961247000843,old_sceneIn_47.png,277,3.0,0.9833834997843951,,,id011,1,2024-10-18_14h01.51.259,Surprise recog test,2023.1.3,59.92153879538237,
277,0,277,0,,,,,,,,,,,,,,,,,,,,,,,,,,,,,,,,,,840.212761899922,841.2316326999571,838.8961221000645,838.8961221000645,838.8961221000645,838.8961221000645,new_sceneOut_47.png,278,4.0,1.318451500032097,,,id011,1,2024-10-18_14h01.51.259,Surprise recog test,2023.1.3,59.92153879538237,
278,0,278,0,,,,,,,,,,,,,,,,,,,,,,,,,,,,,,,,,,843.3468440999277,844.3535533000249,841.2316326999571,841.2316326999571,841.2316326999571,841.2316326999571,new_fruit_31.png,279,3.0,2.115942600183189,,,id011,1,2024-10-18_14h01.51.259,Surprise recog test,2023.1.3,59.92153879538237,
279,0,279,0,,,,,,,,,,,,,,,,,,,,,,,,,,,,,,,,,,845.6580008999445,846.6719837000128,844.3535533000249,844.3535533000249,844.3535533000249,844.3535533000249,old_stationery_25.png,280,4.0,1.3007932000327855,,,id011,1,2024-10-18_14h01.51.259,Surprise recog test,2023.1.3,59.92153879538237,
280,0,280,0,,,,,,,,,,,,,,,,,,,,,,,,,,,,,,,,,,847.9851440999191,848.9931870000437,846.6719837000128,846.6719837000128,846.6719837000128,846.6719837000128,new_sceneIn_12.png,281,3.0,1.3043064998928457,,,id011,1,2024-10-18_14h01.51.259,Surprise recog test,2023.1.3,59.92153879538237,
281,0,281,0,,,,,,,,,,,,,,,,,,,,,,,,,,,,,,,,,,851.2572014001198,,848.9931870000437,848.9931870000437,848.9931870000437,848.9931870000437,new_sceneIn_41.png,282,1.0,2.2598362998105586,,,id011,1,2024-10-18_14h01.51.259,Surprise recog test,2023.1.3,59.92153879538237,
282,0,282,0,,,,,,,,,,,,,,,,,,,,,,,,,,,,,,,,,,855.5914527000859,856.6013088000473,852.289654100081,852.289654100081,852.289654100081,852.289654100081,new_stationery_30.png,283,2.0,3.3025877999607474,,,id011,1,2024-10-18_14h01.51.259,Surprise recog test,2023.1.3,59.92153879538237,
283,0,283,0,,,,,,,,,,,,,,,,,,,,,,,,,,,,,,,,,,858.810610699933,859.8248183000833,856.6013088000473,856.6013088000473,856.6013088000473,856.6013088000473,old_stationery_27.png,284,3.0,2.2066011999268085,,,id011,1,2024-10-18_14h01.51.259,Surprise recog test,2023.1.3,59.92153879538237,
284,0,284,0,,,,,,,,,,,,,,,,,,,,,,,,,,,,,,,,,,861.3365480001085,862.3552981999237,859.8248183000833,859.8248183000833,859.8248183000833,859.8248183000833,new_fruit_9.png,285,1.0,1.5119731000158936,,,id011,1,2024-10-18_14h01.51.259,Surprise recog test,2023.1.3,59.92153879538237,
285,0,285,0,,,,,,,,,,,,,,,,,,,,,,,,,,,,,,,,,,863.4910522999708,864.519376100041,862.3552981999237,862.3552981999237,862.3552981999237,862.3552981999237,old_stationery_13.png,286,2.0,1.130072500091046,,,id011,1,2024-10-18_14h01.51.259,Surprise recog test,2023.1.3,59.92153879538237,
286,0,286,0,,,,,,,,,,,,,,,,,,,,,,,,,,,,,,,,,,865.84816709999,866.8686691001058,864.519376100041,864.519376100041,864.519376100041,864.519376100041,old_sceneIn_21.png,287,3.0,1.3320440000388771,,,id011,1,2024-10-18_14h01.51.259,Surprise recog test,2023.1.3,59.92153879538237,
287,0,287,0,,,,,,,,,,,,,,,,,,,,,,,,,,,,,,,,,,868.3152898000553,869.3319322001189,866.8686691001058,866.8686691001058,866.8686691001058,866.8686691001058,new_stationery_44.png,288,3.0,1.4486402000766248,,,id011,1,2024-10-18_14h01.51.259,Surprise recog test,2023.1.3,59.92153879538237,
288,0,288,0,,,,,,,,,,,,,,,,,,,,,,,,,,,,,,,,,,871.0126195000485,872.0292350000236,869.3319322001189,869.3319322001189,869.3319322001189,869.3319322001189,new_sceneOut_27.png,289,5.0,1.6812424000818282,,,id011,1,2024-10-18_14h01.51.259,Surprise recog test,2023.1.3,59.92153879538237,
289,0,289,0,,,,,,,,,,,,,,,,,,,,,,,,,,,,,,,,,,874.6238273000345,875.6333421000745,872.0292350000236,872.0292350000236,872.0292350000236,872.0292350000236,new_fruit_5.png,290,3.0,2.5832649001386017,,,id011,1,2024-10-18_14h01.51.259,Surprise recog test,2023.1.3,59.92153879538237,
290,0,290,0,,,,,,,,,,,,,,,,,,,,,,,,,,,,,,,,,,877.0091035000514,878.035687699914,875.6333421000745,875.6333421000745,875.6333421000745,875.6333421000745,old_sceneIn_46.png,291,4.0,1.3660001000389457,,,id011,1,2024-10-18_14h01.51.259,Surprise recog test,2023.1.3,59.92153879538237,
291,0,291,0,,,,,,,,,,,,,,,,,,,,,,,,,,,,,,,,,,879.6266266999301,880.6520189999137,878.035687699914,878.035687699914,878.035687699914,878.035687699914,new_sceneOut_2.png,292,4.0,1.5937918999698013,,,id011,1,2024-10-18_14h01.51.259,Surprise recog test,2023.1.3,59.92153879538237,
292,0,292,0,,,,,,,,,,,,,,,,,,,,,,,,,,,,,,,,,,881.6645752999466,882.68414700008,880.6520189999137,880.6520189999137,880.6520189999137,880.6520189999137,old_stationery_36.png,293,3.0,1.017025199951604,,,id011,1,2024-10-18_14h01.51.259,Surprise recog test,2023.1.3,59.92153879538237,
293,0,293,0,,,,,,,,,,,,,,,,,,,,,,,,,,,,,,,,,,884.3420345000923,885.3656419999897,882.68414700008,882.68414700008,882.68414700008,882.68414700008,old_stationery_17.png,294,5.0,1.6593528999947011,,,id011,1,2024-10-18_14h01.51.259,Surprise recog test,2023.1.3,59.92153879538237,
294,0,294,0,,,,,,,,,,,,,,,,,,,,,,,,,,,,,,,,,,887.7205886000302,,885.3656419999897,885.3656419999897,885.3656419999897,885.3656419999897,old_stationery_2.png,295,3.0,2.3547861999832094,,,id011,1,2024-10-18_14h01.51.259,Surprise recog test,2023.1.3,59.92153879538237,
295,0,295,0,,,,,,,,,,,,,,,,,,,,,,,,,,,,,,,,,,889.8830540000927,890.8930460000411,888.7535936001223,888.7535936001223,888.7535936001223,888.7535936001223,new_fruit_23.png,296,1.0,1.131667099893093,,,id011,1,2024-10-18_14h01.51.259,Surprise recog test,2023.1.3,59.92153879538237,
296,0,296,0,,,,,,,,,,,,,,,,,,,,,,,,,,,,,,,,,,892.3740207001101,,890.8930460000411,890.8930460000411,890.8930460000411,890.8930460000411,old_sceneIn_37.png,297,3.0,1.477960899937898,,,id011,1,2024-10-18_14h01.51.259,Surprise recog test,2023.1.3,59.92153879538237,
297,0,297,0,,,,,,,,,,,,,,,,,,,,,,,,,,,,,,,,,,894.3832135000266,895.399532499956,893.4088127000723,893.4088127000723,893.4088127000723,893.4088127000723,old_sceneIn_23.png,298,3.0,0.9762589000165462,,,id011,1,2024-10-18_14h01.51.259,Surprise recog test,2023.1.3,59.92153879538237,
298,0,298,0,,,,,,,,,,,,,,,,,,,,,,,,,,,,,,,,,,896.9582241000608,897.9671563000884,895.399532499956,895.399532499956,895.399532499956,895.399532499956,old_stationery_15.png,299,4.0,1.5561743001453578,,,id011,1,2024-10-18_14h01.51.259,Surprise recog test,2023.1.3,59.92153879538237,
299,0,299,0,,,,,,,,,,,,,,,,,,,,,,,,,,,,,,,,,,899.4322043999564,,897.9671563000884,897.9671563000884,897.9671563000884,897.9671563000884,old_sceneOut_19.png,300,3.0,1.4600982000119984,,,id011,1,2024-10-18_14h01.51.259,Surprise recog test,2023.1.3,59.92153879538237,
300,0,300,0,,,,,,,,,,,,,,,,,,,,,,,,,,,,,,,,,,901.7622142999899,902.7874589001294,900.4521327000111,900.4521327000111,900.4521327000111,900.4521327000111,old_fruit_8.png,301,1.0,1.3060679000336677,,,id011,1,2024-10-18_14h01.51.259,Surprise recog test,2023.1.3,59.92153879538237,
301,0,301,0,,,,,,,,,,,,,,,,,,,,,,,,,,,,,,,,,,905.078356300015,906.0966028999537,902.7874589001294,902.7874589001294,902.7874589001294,902.7874589001294,new_stationery_48.png,302,3.0,2.293218299979344,,,id011,1,2024-10-18_14h01.51.259,Surprise recog test,2023.1.3,59.92153879538237,
302,0,302,0,,,,,,,,,,,,,,,,,,,,,,,,,,,,,,,,,,907.4399737000931,908.4726992999204,906.0966028999537,906.0966028999537,906.0966028999537,906.0966028999537,old_sceneOut_8.png,303,4.0,1.34064060007222,,,id011,1,2024-10-18_14h01.51.259,Surprise recog test,2023.1.3,59.92153879538237,
303,0,303,0,,,,,,,,,,,,,,,,,,,,,,,,,,,,,,,,,,909.6015193001367,910.6152335000224,908.4726992999204,908.4726992999204,908.4726992999204,908.4726992999204,new_sceneIn_50.png,304,2.0,1.1290702000260353,,,id011,1,2024-10-18_14h01.51.259,Surprise recog test,2023.1.3,59.92153879538237,
304,0,304,0,,,,,,,,,,,,,,,,,,,,,,,,,,,,,,,,,,911.6410912999418,,910.6152335000224,910.6152335000224,910.6152335000224,910.6152335000224,old_stationery_41.png,305,2.0,1.0223260000348091,,,id011,1,2024-10-18_14h01.51.259,Surprise recog test,2023.1.3,59.92153879538237,
305,0,305,0,,,,,,,,,,,,,,,,,,,,,,,,,,,,,,,,,,913.9055981999263,914.9152697999962,912.672196000116,912.672196000116,912.672196000116,912.672196000116,new_sceneOut_9.png,306,3.0,1.232909700134769,,,id011,1,2024-10-18_14h01.51.259,Surprise recog test,2023.1.3,59.92153879538237,
306,0,306,0,,,,,,,,,,,,,,,,,,,,,,,,,,,,,,,,,,916.1701428999659,917.1943270999473,914.9152697999962,914.9152697999962,914.9152697999962,914.9152697999962,old_stationery_42.png,307,3.0,1.2506518000736833,,,id011,1,2024-10-18_14h01.51.259,Surprise recog test,2023.1.3,59.92153879538237,
307,0,307,0,,,,,,,,,,,,,,,,,,,,,,,,,,,,,,,,,,918.5664375999477,919.5948266000487,917.1943270999473,917.1943270999473,917.1943270999473,917.1943270999473,old_stationery_38.png,308,4.0,1.3718120998237282,,,id011,1,2024-10-18_14h01.51.259,Surprise recog test,2023.1.3,59.92153879538237,
308,0,308,0,,,,,,,,,,,,,,,,,,,,,,,,,,,,,,,,,,921.431519899983,,919.5948266000487,919.5948266000487,919.5948266000487,919.5948266000487,new_stationery_31.png,309,3.0,1.8389685000292957,,,id011,1,2024-10-18_14h01.51.259,Surprise recog test,2023.1.3,59.92153879538237,
309,0,309,0,,,,,,,,,,,,,,,,,,,,,,,,,,,,,,,,,,924.6866395000834,,922.4532218000386,922.4532218000386,922.4532218000386,922.4532218000386,old_stationery_39.png,310,2.0,2.2281356998719275,,,id011,1,2024-10-18_14h01.51.259,Surprise recog test,2023.1.3,59.92153879538237,
310,0,310,0,,,,,,,,,,,,,,,,,,,,,,,,,,,,,,,,,,927.1340290000662,928.1669080001302,925.714139000047,925.714139000047,925.714139000047,925.714139000047,new_fruit_44.png,311,1.0,1.4120444001164287,,,id011,1,2024-10-18_14h01.51.259,Surprise recog test,2023.1.3,59.92153879538237,
311,0,311,0,,,,,,,,,,,,,,,,,,,,,,,,,,,,,,,,,,929.5808621000033,930.6072315999772,928.1669080001302,928.1669080001302,928.1669080001302,928.1669080001302,new_fruit_32.png,312,1.0,1.4203621000051498,,,id011,1,2024-10-18_14h01.51.259,Surprise recog test,2023.1.3,59.92153879538237,
312,0,312,0,,,,,,,,,,,,,,,,,,,,,,,,,,,,,,,,,,933.0735396000091,934.0917460999917,930.6072315999772,930.6072315999772,930.6072315999772,930.6072315999772,new_fruit_1.png,313,5.0,2.4677345000673085,,,id011,1,2024-10-18_14h01.51.259,Surprise recog test,2023.1.3,59.92153879538237,
313,0,313,0,,,,,,,,,,,,,,,,,,,,,,,,,,,,,,,,,,936.0080661000684,937.0298341000453,934.0917460999917,934.0917460999917,934.0917460999917,934.0917460999917,new_stationery_16.png,314,3.0,1.9119601000566036,,,id011,1,2024-10-18_14h01.51.259,Surprise recog test,2023.1.3,59.92153879538237,
314,0,314,0,,,,,,,,,,,,,,,,,,,,,,,,,,,,,,,,,,938.481733399909,939.4987838999368,937.0298341000453,937.0298341000453,937.0298341000453,937.0298341000453,new_sceneIn_34.png,315,3.0,1.4520274999085814,,,id011,1,2024-10-18_14h01.51.259,Surprise recog test,2023.1.3,59.92153879538237,
315,0,315,0,,,,,,,,,,,,,,,,,,,,,,,,,,,,,,,,,,940.868480199948,941.899262699997,939.4987838999368,939.4987838999368,939.4987838999368,939.4987838999368,old_fruit_50.png,316,1.0,1.3642480999697,,,id011,1,2024-10-18_14h01.51.259,Surprise recog test,2023.1.3,59.92153879538237,
316,0,316,0,,,,,,,,,,,,,,,,,,,,,,,,,,,,,,,,,,943.1833413999993,,941.899262699997,941.899262699997,941.899262699997,941.899262699997,old_sceneIn_9.png,317,2.0,1.2865001999307424,,,id011,1,2024-10-18_14h01.51.259,Surprise recog test,2023.1.3,59.92153879538237,
317,0,317,0,,,,,,,,,,,,,,,,,,,,,,,,,,,,,,,,,,945.2858017000835,,944.2062459001318,944.2062459001318,944.2062459001318,944.2062459001318,new_stationery_33.png,318,3.0,1.076937499921769,,,id011,1,2024-10-18_14h01.51.259,Surprise recog test,2023.1.3,59.92153879538237,
318,0,318,0,,,,,,,,,,,,,,,,,,,,,,,,,,,,,,,,,,947.7265989000443,948.7569973999634,946.3170062000863,946.3170062000863,946.3170062000863,946.3170062000863,old_sceneIn_25.png,319,4.0,1.4089639999438077,,,id011,1,2024-10-18_14h01.51.259,Surprise recog test,2023.1.3,59.92153879538237,
319,0,319,0,,,,,,,,,,,,,,,,,,,,,,,,,,,,,,,,,,949.9707899000496,950.9916954000946,948.7569973999634,948.7569973999634,948.7569973999634,948.7569973999634,old_sceneOut_45.png,320,3.0,1.2177572001237422,,,id011,1,2024-10-18_14h01.51.259,Surprise recog test,2023.1.3,59.92153879538237,
320,0,320,0,,,,,,,,,,,,,,,,,,,,,,,,,,,,,,,,,,952.4217473000754,953.4411581000313,950.9916954000946,950.9916954000946,950.9916954000946,950.9916954000946,old_stationery_22.png,321,1.0,1.4323667997960001,,,id011,1,2024-10-18_14h01.51.259,Surprise recog test,2023.1.3,59.92153879538237,
321,0,321,0,,,,,,,,,,,,,,,,,,,,,,,,,,,,,,,,,,954.7858510001097,955.8148259001318,953.4411581000313,953.4411581000313,953.4411581000313,953.4411581000313,new_sceneOut_48.png,322,4.0,1.346170699922368,,,id011,1,2024-10-18_14h01.51.259,Surprise recog test,2023.1.3,59.92153879538237,
322,0,322,0,,,,,,,,,,,,,,,,,,,,,,,,,,,,,,,,,,957.4158403999172,958.4460686999373,955.8148259001318,955.8148259001318,955.8148259001318,955.8148259001318,old_fruit_11.png,323,1.0,1.6039879000745714,,,id011,1,2024-10-18_14h01.51.259,Surprise recog test,2023.1.3,59.92153879538237,
323,0,323,0,,,,,,,,,,,,,,,,,,,,,,,,,,,,,,,,,,960.2095403000712,961.225417500129,958.4460686999373,958.4460686999373,958.4460686999373,958.4460686999373,old_sceneOut_41.png,324,4.0,1.7638083000201732,,,id011,1,2024-10-18_14h01.51.259,Surprise recog test,2023.1.3,59.92153879538237,
324,0,324,0,,,,,,,,,,,,,,,,,,,,,,,,,,,,,,,,,,962.5801860000938,963.5972446000669,961.225417500129,961.225417500129,961.225417500129,961.225417500129,new_stationery_14.png,325,2.0,1.350568599998951,,,id011,1,2024-10-18_14h01.51.259,Surprise recog test,2023.1.3,59.92153879538237,
325,0,325,0,,,,,,,,,,,,,,,,,,,,,,,,,,,,,,,,,,965.426030300092,966.4479706001002,963.5972446000669,963.5972446000669,963.5972446000669,963.5972446000669,new_sceneIn_17.png,326,3.0,1.8239831000100821,,,id011,1,2024-10-18_14h01.51.259,Surprise recog test,2023.1.3,59.92153879538237,
326,0,326,0,,,,,,,,,,,,,,,,,,,,,,,,,,,,,,,,,,967.33035319997,968.3595360999461,966.4479706001002,966.4479706001002,966.4479706001002,966.4479706001002,old_sceneOut_15.png,327,3.0,0.8815329000353813,,,id011,1,2024-10-18_14h01.51.259,Surprise recog test,2023.1.3,59.92153879538237,
327,0,327,0,,,,,,,,,,,,,,,,,,,,,,,,,,,,,,,,,,969.4746199001092,970.5062297999393,968.3595360999461,968.3595360999461,968.3595360999461,968.3595360999461,new_sceneOut_46.png,328,2.0,1.117674499982968,,,id011,1,2024-10-18_14h01.51.259,Surprise recog test,2023.1.3,59.92153879538237,
328,0,328,0,,,,,,,,,,,,,,,,,,,,,,,,,,,,,,,,,,972.2989038999658,973.3131190999411,970.5062297999393,970.5062297999393,970.5062297999393,970.5062297999393,old_fruit_44.png,329,1.0,1.7926318999379873,,,id011,1,2024-10-18_14h01.51.259,Surprise recog test,2023.1.3,59.92153879538237,
329,0,329,0,,,,,,,,,,,,,,,,,,,,,,,,,,,,,,,,,,974.769863500027,975.7878716001287,973.3131190999411,973.3131190999411,973.3131190999411,973.3131190999411,new_stationery_2.png,330,2.0,1.4529244001023471,,,id011,1,2024-10-18_14h01.51.259,Surprise recog test,2023.1.3,59.92153879538237,
330,0,330,0,,,,,,,,,,,,,,,,,,,,,,,,,,,,,,,,,,977.114439399913,978.1441327999346,975.7878716001287,975.7878716001287,975.7878716001287,975.7878716001287,new_stationery_27.png,331,4.0,1.3272496000863612,,,id011,1,2024-10-18_14h01.51.259,Surprise recog test,2023.1.3,59.92153879538237,
331,0,331,0,,,,,,,,,,,,,,,,,,,,,,,,,,,,,,,,,,979.850917099975,980.8664506000932,978.1441327999346,978.1441327999346,978.1441327999346,978.1441327999346,old_sceneOut_13.png,332,3.0,1.7082428000867367,,,id011,1,2024-10-18_14h01.51.259,Surprise recog test,2023.1.3,59.92153879538237,
332,0,332,0,,,,,,,,,,,,,,,,,,,,,,,,,,,,,,,,,,983.1635823000688,984.1831708000973,980.8664506000932,980.8664506000932,980.8664506000932,980.8664506000932,old_sceneOut_9.png,333,3.0,2.289728800067678,,,id011,1,2024-10-18_14h01.51.259,Surprise recog test,2023.1.3,59.92153879538237,
333,0,333,0,,,,,,,,,,,,,,,,,,,,,,,,,,,,,,,,,,986.9570053000934,987.9768155999482,984.1831708000973,984.1831708000973,984.1831708000973,984.1831708000973,new_sceneIn_10.png,334,2.0,2.77411190001294,,,id011,1,2024-10-18_14h01.51.259,Surprise recog test,2023.1.3,59.92153879538237,
334,0,334,0,,,,,,,,,,,,,,,,,,,,,,,,,,,,,,,,,,989.037858299911,,987.9768155999482,987.9768155999482,987.9768155999482,987.9768155999482,old_sceneOut_1.png,335,3.0,1.0564401999581605,,,id011,1,2024-10-18_14h01.51.259,Surprise recog test,2023.1.3,59.92153879538237,
335,0,335,0,,,,,,,,,,,,,,,,,,,,,,,,,,,,,,,,,,991.1008683000691,992.1122795001138,990.0602500000969,990.0602500000969,990.0602500000969,990.0602500000969,new_sceneIn_26.png,336,4.0,1.033613899955526,,,id011,1,2024-10-18_14h01.51.259,Surprise recog test,2023.1.3,59.92153879538237,
336,0,336,0,,,,,,,,,,,,,,,,,,,,,,,,,,,,,,,,,,994.0791400000453,995.1067347999196,992.1122795001138,992.1122795001138,992.1122795001138,992.1122795001138,old_stationery_30.png,337,4.0,1.9620642000809312,,,id011,1,2024-10-18_14h01.51.259,Surprise recog test,2023.1.3,59.92153879538237,
337,0,337,0,,,,,,,,,,,,,,,,,,,,,,,,,,,,,,,,,,997.6699381999206,998.6843169999775,995.1067347999196,995.1067347999196,995.1067347999196,995.1067347999196,new_sceneIn_24.png,338,2.0,2.562461500056088,,,id011,1,2024-10-18_14h01.51.259,Surprise recog test,2023.1.3,59.92153879538237,
338,0,338,0,,,,,,,,,,,,,,,,,,,,,,,,,,,,,,,,,,1000.8589413000736,1001.8775424000341,998.6843169999775,998.6843169999775,998.6843169999775,998.6843169999775,old_sceneOut_7.png,339,3.0,2.1701149998698384,,,id011,1,2024-10-18_14h01.51.259,Surprise recog test,2023.1.3,59.92153879538237,
339,0,339,0,,,,,,,,,,,,,,,,,,,,,,,,,,,,,,,,,,1003.364048599964,1004.3720486999955,1001.8775424000341,1001.8775424000341,1001.8775424000341,1001.8775424000341,new_fruit_13.png,340,1.0,1.4765238999389112,,,id011,1,2024-10-18_14h01.51.259,Surprise recog test,2023.1.3,59.92153879538237,
340,0,340,0,,,,,,,,,,,,,,,,,,,,,,,,,,,,,,,,,,1006.1717366001103,1007.2012962000445,1004.3720486999955,1004.3720486999955,1004.3720486999955,1004.3720486999955,new_sceneIn_42.png,341,3.0,1.7948090001009405,,,id011,1,2024-10-18_14h01.51.259,Surprise recog test,2023.1.3,59.92153879538237,
341,0,341,0,,,,,,,,,,,,,,,,,,,,,,,,,,,,,,,,,,1009.447686499916,1010.4732262999751,1007.2012962000445,1007.2012962000445,1007.2012962000445,1007.2012962000445,old_stationery_5.png,342,2.0,2.2481767998542637,,,id011,1,2024-10-18_14h01.51.259,Surprise recog test,2023.1.3,59.92153879538237,
342,0,342,0,,,,,,,,,,,,,,,,,,,,,,,,,,,,,,,,,,1013.7637881999835,1014.7920240999665,1010.4732262999751,1010.4732262999751,1010.4732262999751,1010.4732262999751,old_sceneIn_16.png,343,3.0,3.2916330001316965,,,id011,1,2024-10-18_14h01.51.259,Surprise recog test,2023.1.3,59.92153879538237,
343,0,343,0,,,,,,,,,,,,,,,,,,,,,,,,,,,,,,,,,,1016.4085003000218,1017.4139179999474,1014.7920240999665,1014.7920240999665,1014.7920240999665,1014.7920240999665,old_sceneOut_6.png,344,3.0,1.6143235999625176,,,id011,1,2024-10-18_14h01.51.259,Surprise recog test,2023.1.3,59.92153879538237,
344,0,344,0,,,,,,,,,,,,,,,,,,,,,,,,,,,,,,,,,,1021.3313516001217,,1017.4139179999474,1017.4139179999474,1017.4139179999474,1017.4139179999474,old_sceneOut_18.png,345,3.0,3.913205499993637,,,id011,1,2024-10-18_14h01.51.259,Surprise recog test,2023.1.3,59.92153879538237,
345,0,345,0,,,,,,,,,,,,,,,,,,,,,,,,,,,,,,,,,,1024.4733253999148,1025.504131600028,1022.3675462999381,1022.3675462999381,1022.3675462999381,1022.3675462999381,old_fruit_19.png,346,2.0,2.1075557998847216,,,id011,1,2024-10-18_14h01.51.259,Surprise recog test,2023.1.3,59.92153879538237,
346,0,346,0,,,,,,,,,,,,,,,,,,,,,,,,,,,,,,,,,,1027.522429100005,1028.5563397000078,1025.504131600028,1025.504131600028,1025.504131600028,1025.504131600028,new_fruit_41.png,347,2.0,2.0204078999813646,,,id011,1,2024-10-18_14h01.51.259,Surprise recog test,2023.1.3,59.92153879538237,
347,0,347,0,,,,,,,,,,,,,,,,,,,,,,,,,,,,,,,,,,1030.6392415999435,,1028.5563397000078,1028.5563397000078,1028.5563397000078,1028.5563397000078,new_stationery_24.png,348,3.0,2.0836312000174075,,,id011,1,2024-10-18_14h01.51.259,Surprise recog test,2023.1.3,59.92153879538237,
348,0,348,0,,,,,,,,,,,,,,,,,,,,,,,,,,,,,,,,,,1033.8213249000255,1034.84331450006,1031.6738976999186,1031.6738976999186,1031.6738976999186,1031.6738976999186,new_stationery_22.png,349,2.0,2.1463013000320643,,,id011,1,2024-10-18_14h01.51.259,Surprise recog test,2023.1.3,59.92153879538237,
349,0,349,0,,,,,,,,,,,,,,,,,,,,,,,,,,,,,,,,,,1036.0254776999354,1037.0416292001028,1034.84331450006,1034.84331450006,1034.84331450006,1034.84331450006,old_stationery_37.png,350,3.0,1.183771199779585,,,id011,1,2024-10-18_14h01.51.259,Surprise recog test,2023.1.3,59.92153879538237,
350,0,350,0,,,,,,,,,,,,,,,,,,,,,,,,,,,,,,,,,,1041.4176507000811,1042.450381499948,1037.0416292001028,1037.0416292001028,1037.0416292001028,1037.0416292001028,new_sceneIn_11.png,351,3.0,4.374357299879193,,,id011,1,2024-10-18_14h01.51.259,Surprise recog test,2023.1.3,59.92153879538237,
351,0,351,0,,,,,,,,,,,,,,,,,,,,,,,,,,,,,,,,,,1045.71617099992,1046.7385965001304,1042.450381499948,1042.450381499948,1042.450381499948,1042.450381499948,old_sceneIn_6.png,352,3.0,3.261371800210327,,,id011,1,2024-10-18_14h01.51.259,Surprise recog test,2023.1.3,59.92153879538237,
