trial_loop.thisRepN,trial_loop.thisTrialN,trial_loop.thisN,trial_loop.thisIndex,VAS_slider.started,VAS_text.started,VAS_notstressed_text.started,VAS_stressed_text.started,continue_input.started,continue_text.started,label0.started,label10.started,label20.started,label30.started,label40.started,label50.started,label60.started,label70.started,label80.started,label90.started,label100.started,VAS_slider.response,VAS_slider.rt,VAS_slider.history,Answer_VAS,continue_input.keys,instruction_text.started,continue_text_2.started,continue_input_2.started,continue_input_2.keys,continue_input_2.rt,continue_input_2.duration,example_text.started,example_slider_2.started,example_image.started,example_slider_2.response,example_slider_2.rt,fixcross.started,fixcross.stopped,front_square.started,stim_images.started,trial_inst_images.started,slider_images.started,thisImg,trial_count,slider_images.response,slider_images.rt,slider_images.stopped,outro.started,participant,condition,date,expName,psychopyVersion,frameRate,
,,,,28.062434899969958,28.062434899969958,28.062434899969958,28.062434899969958,28.062434899969958,28.062434899969958,28.062434899969958,28.062434899969958,28.062434899969958,28.062434899969958,28.062434899969958,28.062434899969958,28.062434899969958,28.062434899969958,28.062434899969958,28.062434899969958,28.062434899969958,1.7277777777777774,10.477233599987812,"[(1.7277777777777774, 10.477233599987812)]",1.7277777777777774,None,,,,,,,,,,,,,,,,,,,,,,,,ID010,0,2024-10-11_13h58.54.779,Surprise recog test,2023.1.3,60.04145258501814,
,,,,,,,,,,,,,,,,,,,,,,,,,,38.607322399970144,38.607322399970144,38.607322399970144,space,24.741018799948506,None,,,,,,,,,,,,,,,,,,ID010,0,2024-10-11_13h58.54.779,Surprise recog test,2023.1.3,60.04145258501814,
0,0,0,0,,,,,,,,,,,,,,,,,,,,,,,,,,,,,63.482037199893966,63.482037199893966,63.482037199893966,5.0,6.648646399960853,72.47231029998511,73.48749849991873,71.06905439996626,71.06905439996626,71.06905439996626,71.06905439996626,new_sceneOut_8.png,1,1.0,1.402609599987045,,,ID010,0,2024-10-11_13h58.54.779,Surprise recog test,2023.1.3,60.04145258501814,
1,0,1,0,,,,,,,,,,,,,,,,,,,,,,,,,,,,,,,,,,74.51469849993009,75.53509659995325,73.48749849991873,73.48749849991873,73.48749849991873,73.48749849991873,old_fruit_9.png,2,1.0,1.0273116999305785,,,ID010,0,2024-10-11_13h58.54.779,Surprise recog test,2023.1.3,60.04145258501814,
2,0,2,0,,,,,,,,,,,,,,,,,,,,,,,,,,,,,,,,,,76.64633419993334,,75.53509659995325,75.53509659995325,75.53509659995325,75.53509659995325,new_sceneIn_32.png,3,5.0,1.1100611999863759,,,ID010,0,2024-10-11_13h58.54.779,Surprise recog test,2023.1.3,60.04145258501814,
3,0,3,0,,,,,,,,,,,,,,,,,,,,,,,,,,,,,,,,,,79.47301389998756,80.50060549995396,77.66890489996877,77.66890489996877,77.66890489996877,77.66890489996877,old_sceneIn_5.png,4,5.0,1.8007011000299826,,,ID010,0,2024-10-11_13h58.54.779,Surprise recog test,2023.1.3,60.04145258501814,
4,0,4,0,,,,,,,,,,,,,,,,,,,,,,,,,,,,,,,,,,81.82248259999324,82.84522899996955,80.50060549995396,80.50060549995396,80.50060549995396,80.50060549995396,new_sceneOut_42.png,5,1.0,1.3216696999734268,,,ID010,0,2024-10-11_13h58.54.779,Surprise recog test,2023.1.3,60.04145258501814,
5,0,5,0,,,,,,,,,,,,,,,,,,,,,,,,,,,,,,,,,,84.41345969995018,85.42534239997622,82.84522899996955,82.84522899996955,82.84522899996955,82.84522899996955,new_stationery_49.png,6,5.0,1.5687292000511661,,,ID010,0,2024-10-11_13h58.54.779,Surprise recog test,2023.1.3,60.04145258501814,
6,0,6,0,,,,,,,,,,,,,,,,,,,,,,,,,,,,,,,,,,86.50761649990454,87.52801299991552,85.42534239997622,85.42534239997622,85.42534239997622,85.42534239997622,old_sceneOut_48.png,7,1.0,1.0782070000423118,,,ID010,0,2024-10-11_13h58.54.779,Surprise recog test,2023.1.3,60.04145258501814,
7,0,7,0,,,,,,,,,,,,,,,,,,,,,,,,,,,,,,,,,,88.72034549992532,89.7362398999976,87.52801299991552,87.52801299991552,87.52801299991552,87.52801299991552,old_sceneOut_25.png,8,1.0,1.1860064000356942,,,ID010,0,2024-10-11_13h58.54.779,Surprise recog test,2023.1.3,60.04145258501814,
8,0,8,0,,,,,,,,,,,,,,,,,,,,,,,,,,,,,,,,,,91.46352039999329,92.4815677999286,89.7362398999976,89.7362398999976,89.7362398999976,89.7362398999976,old_stationery_25.png,9,5.0,1.727573600015603,,,ID010,0,2024-10-11_13h58.54.779,Surprise recog test,2023.1.3,60.04145258501814,
9,0,9,0,,,,,,,,,,,,,,,,,,,,,,,,,,,,,,,,,,94.39172449999023,95.41124109993689,92.4815677999286,92.4815677999286,92.4815677999286,92.4815677999286,old_fruit_25.png,10,1.0,1.8997853000182658,,,ID010,0,2024-10-11_13h58.54.779,Surprise recog test,2023.1.3,60.04145258501814,
10,0,10,0,,,,,,,,,,,,,,,,,,,,,,,,,,,,,,,,,,97.03283569996711,98.06221909995656,95.41124109993689,95.41124109993689,95.41124109993689,95.41124109993689,old_stationery_13.png,11,4.0,1.6236365999793634,,,ID010,0,2024-10-11_13h58.54.779,Surprise recog test,2023.1.3,60.04145258501814,
11,0,11,0,,,,,,,,,,,,,,,,,,,,,,,,,,,,,,,,,,99.90819519991055,100.91822529991623,98.06221909995656,98.06221909995656,98.06221909995656,98.06221909995656,new_sceneIn_34.png,12,2.0,1.846829800051637,,,ID010,0,2024-10-11_13h58.54.779,Surprise recog test,2023.1.3,60.04145258501814,
12,0,12,0,,,,,,,,,,,,,,,,,,,,,,,,,,,,,,,,,,102.27240109990817,103.30143439990934,100.91822529991623,100.91822529991623,100.91822529991623,100.91822529991623,old_fruit_27.png,13,1.0,1.3507843000115827,,,ID010,0,2024-10-11_13h58.54.779,Surprise recog test,2023.1.3,60.04145258501814,
13,0,13,0,,,,,,,,,,,,,,,,,,,,,,,,,,,,,,,,,,104.56028849992435,105.57246269995812,103.30143439990934,103.30143439990934,103.30143439990934,103.30143439990934,new_fruit_14.png,14,1.0,1.2609438999788836,,,ID010,0,2024-10-11_13h58.54.779,Surprise recog test,2023.1.3,60.04145258501814,
14,0,14,0,,,,,,,,,,,,,,,,,,,,,,,,,,,,,,,,,,107.3909167998936,108.42300839989912,105.57246269995812,105.57246269995812,105.57246269995812,105.57246269995812,new_stationery_3.png,15,5.0,1.8136922999983653,,,ID010,0,2024-10-11_13h58.54.779,Surprise recog test,2023.1.3,60.04145258501814,
15,0,15,0,,,,,,,,,,,,,,,,,,,,,,,,,,,,,,,,,,110.17704839992803,111.20270809996873,108.42300839989912,108.42300839989912,108.42300839989912,108.42300839989912,new_sceneOut_34.png,16,1.0,1.7551052999915555,,,ID010,0,2024-10-11_13h58.54.779,Surprise recog test,2023.1.3,60.04145258501814,
16,0,16,0,,,,,,,,,,,,,,,,,,,,,,,,,,,,,,,,,,112.00901239993982,,111.20270809996873,111.20270809996873,111.20270809996873,111.20270809996873,old_sceneOut_23.png,17,1.0,0.8114436999894679,,,ID010,0,2024-10-11_13h58.54.779,Surprise recog test,2023.1.3,60.04145258501814,
17,0,17,0,,,,,,,,,,,,,,,,,,,,,,,,,,,,,,,,,,114.35892369993962,115.36763809993863,113.04230619990267,113.04230619990267,113.04230619990267,113.04230619990267,old_stationery_12.png,18,5.0,1.3181713999947533,,,ID010,0,2024-10-11_13h58.54.779,Surprise recog test,2023.1.3,60.04145258501814,
18,0,18,0,,,,,,,,,,,,,,,,,,,,,,,,,,,,,,,,,,116.58379329997115,117.60147879994474,115.36763809993863,115.36763809993863,115.36763809993863,115.36763809993863,new_fruit_11.png,19,1.0,1.210306099965237,,,ID010,0,2024-10-11_13h58.54.779,Surprise recog test,2023.1.3,60.04145258501814,
19,0,19,0,,,,,,,,,,,,,,,,,,,,,,,,,,,,,,,,,,118.72742309991736,119.75515679991804,117.60147879994474,117.60147879994474,117.60147879994474,117.60147879994474,new_sceneIn_47.png,20,3.0,1.123321900027804,,,ID010,0,2024-10-11_13h58.54.779,Surprise recog test,2023.1.3,60.04145258501814,
20,0,20,0,,,,,,,,,,,,,,,,,,,,,,,,,,,,,,,,,,120.85671510000248,121.8887628999073,119.75515679991804,119.75515679991804,119.75515679991804,119.75515679991804,old_sceneIn_24.png,21,2.0,1.1048043000046164,,,ID010,0,2024-10-11_13h58.54.779,Surprise recog test,2023.1.3,60.04145258501814,
21,0,21,0,,,,,,,,,,,,,,,,,,,,,,,,,,,,,,,,,,122.58982459991239,123.60810159996618,121.8887628999073,121.8887628999073,121.8887628999073,121.8887628999073,old_sceneOut_1.png,22,1.0,0.7029590999009088,,,ID010,0,2024-10-11_13h58.54.779,Surprise recog test,2023.1.3,60.04145258501814,
22,0,22,0,,,,,,,,,,,,,,,,,,,,,,,,,,,,,,,,,,125.26772419991903,126.28894159989432,123.60810159996618,123.60810159996618,123.60810159996618,123.60810159996618,old_sceneIn_26.png,23,5.0,1.6561917000217363,,,ID010,0,2024-10-11_13h58.54.779,Surprise recog test,2023.1.3,60.04145258501814,
23,0,23,0,,,,,,,,,,,,,,,,,,,,,,,,,,,,,,,,,,127.43623489991296,128.4522636999609,126.28894159989432,126.28894159989432,126.28894159989432,126.28894159989432,new_fruit_9.png,24,1.0,1.150015200022608,,,ID010,0,2024-10-11_13h58.54.779,Surprise recog test,2023.1.3,60.04145258501814,
24,0,24,0,,,,,,,,,,,,,,,,,,,,,,,,,,,,,,,,,,130.02282499999274,131.04150529997423,128.4522636999609,128.4522636999609,128.4522636999609,128.4522636999609,new_fruit_49.png,25,2.0,1.5696972000878304,,,ID010,0,2024-10-11_13h58.54.779,Surprise recog test,2023.1.3,60.04145258501814,
25,0,25,0,,,,,,,,,,,,,,,,,,,,,,,,,,,,,,,,,,132.44440629996825,,131.04150529997423,131.04150529997423,131.04150529997423,131.04150529997423,new_sceneIn_41.png,26,5.0,1.4050211000721902,,,ID010,0,2024-10-11_13h58.54.779,Surprise recog test,2023.1.3,60.04145258501814,
26,0,26,0,,,,,,,,,,,,,,,,,,,,,,,,,,,,,,,,,,135.27243059989996,136.28780109994113,133.47432309994474,133.47432309994474,133.47432309994474,133.47432309994474,new_sceneIn_48.png,27,1.0,1.7993945999769494,,,ID010,0,2024-10-11_13h58.54.779,Surprise recog test,2023.1.3,60.04145258501814,
27,0,27,0,,,,,,,,,,,,,,,,,,,,,,,,,,,,,,,,,,138.12804629991297,139.14914389990736,136.28780109994113,136.28780109994113,136.28780109994113,136.28780109994113,new_stationery_14.png,28,3.0,1.8382626000093296,,,ID010,0,2024-10-11_13h58.54.779,Surprise recog test,2023.1.3,60.04145258501814,
28,0,28,0,,,,,,,,,,,,,,,,,,,,,,,,,,,,,,,,,,140.76394420000724,141.78463549993467,139.14914389990736,139.14914389990736,139.14914389990736,139.14914389990736,old_sceneIn_11.png,29,4.0,1.6174931999994442,,,ID010,0,2024-10-11_13h58.54.779,Surprise recog test,2023.1.3,60.04145258501814,
29,0,29,0,,,,,,,,,,,,,,,,,,,,,,,,,,,,,,,,,,143.6571971999947,144.67379119992256,141.78463549993467,141.78463549993467,141.78463549993467,141.78463549993467,new_sceneOut_21.png,30,4.0,1.8748599999817088,,,ID010,0,2024-10-11_13h58.54.779,Surprise recog test,2023.1.3,60.04145258501814,
30,0,30,0,,,,,,,,,,,,,,,,,,,,,,,,,,,,,,,,,,145.53424489998724,146.54737189994194,144.67379119992256,144.67379119992256,144.67379119992256,144.67379119992256,old_stationery_7.png,31,4.0,0.8526950000086799,,,ID010,0,2024-10-11_13h58.54.779,Surprise recog test,2023.1.3,60.04145258501814,
31,0,31,0,,,,,,,,,,,,,,,,,,,,,,,,,,,,,,,,,,147.68590709997807,148.69136679999065,146.54737189994194,146.54737189994194,146.54737189994194,146.54737189994194,new_fruit_3.png,32,2.0,1.1293028000509366,,,ID010,0,2024-10-11_13h58.54.779,Surprise recog test,2023.1.3,60.04145258501814,
32,0,32,0,,,,,,,,,,,,,,,,,,,,,,,,,,,,,,,,,,149.94662740000058,150.966037999955,148.69136679999065,148.69136679999065,148.69136679999065,148.69136679999065,new_sceneIn_38.png,33,5.0,1.2497378999833018,,,ID010,0,2024-10-11_13h58.54.779,Surprise recog test,2023.1.3,60.04145258501814,
33,0,33,0,,,,,,,,,,,,,,,,,,,,,,,,,,,,,,,,,,152.02614619990345,,150.966037999955,150.966037999955,150.966037999955,150.966037999955,new_fruit_35.png,34,1.0,1.0601446999935433,,,ID010,0,2024-10-11_13h58.54.779,Surprise recog test,2023.1.3,60.04145258501814,
34,0,34,0,,,,,,,,,,,,,,,,,,,,,,,,,,,,,,,,,,154.10432299994864,155.12364159990102,153.05806269997265,153.05806269997265,153.05806269997265,153.05806269997265,old_fruit_7.png,35,1.0,1.0502756000496447,,,ID010,0,2024-10-11_13h58.54.779,Surprise recog test,2023.1.3,60.04145258501814,
35,0,35,0,,,,,,,,,,,,,,,,,,,,,,,,,,,,,,,,,,156.61016399995424,157.63771549996454,155.12364159990102,155.12364159990102,155.12364159990102,155.12364159990102,old_stationery_1.png,36,5.0,1.4830228999489918,,,ID010,0,2024-10-11_13h58.54.779,Surprise recog test,2023.1.3,60.04145258501814,
36,0,36,0,,,,,,,,,,,,,,,,,,,,,,,,,,,,,,,,,,158.7617608999135,159.77960339991841,157.63771549996454,157.63771549996454,157.63771549996454,157.63771549996454,old_stationery_40.png,37,4.0,1.124360300018452,,,ID010,0,2024-10-11_13h58.54.779,Surprise recog test,2023.1.3,60.04145258501814,
37,0,37,0,,,,,,,,,,,,,,,,,,,,,,,,,,,,,,,,,,160.8135718998965,161.83500540000387,159.77960339991841,159.77960339991841,159.77960339991841,159.77960339991841,new_stationery_13.png,38,1.0,1.0281535999383777,,,ID010,0,2024-10-11_13h58.54.779,Surprise recog test,2023.1.3,60.04145258501814,
38,0,38,0,,,,,,,,,,,,,,,,,,,,,,,,,,,,,,,,,,162.92221969994716,163.94061259995215,161.83500540000387,161.83500540000387,161.83500540000387,161.83500540000387,old_stationery_11.png,39,1.0,1.0862966000568122,,,ID010,0,2024-10-11_13h58.54.779,Surprise recog test,2023.1.3,60.04145258501814,
39,0,39,0,,,,,,,,,,,,,,,,,,,,,,,,,,,,,,,,,,165.06711329997052,166.08571459993254,163.94061259995215,163.94061259995215,163.94061259995215,163.94061259995215,old_stationery_41.png,40,1.0,1.1217228999594226,,,ID010,0,2024-10-11_13h58.54.779,Surprise recog test,2023.1.3,60.04145258501814,
40,0,40,0,,,,,,,,,,,,,,,,,,,,,,,,,,,,,,,,,,167.15457459993195,,166.08571459993254,166.08571459993254,166.08571459993254,166.08571459993254,new_sceneIn_46.png,41,5.0,1.0681857999879867,,,ID010,0,2024-10-11_13h58.54.779,Surprise recog test,2023.1.3,60.04145258501814,
41,0,41,0,,,,,,,,,,,,,,,,,,,,,,,,,,,,,,,,,,169.4376153999474,170.4560081999516,168.18669589993078,168.18669589993078,168.18669589993078,168.18669589993078,old_sceneIn_14.png,42,5.0,1.2529572999337688,,,ID010,0,2024-10-11_13h58.54.779,Surprise recog test,2023.1.3,60.04145258501814,
42,0,42,0,,,,,,,,,,,,,,,,,,,,,,,,,,,,,,,,,,172.1264583999291,,170.4560081999516,170.4560081999516,170.4560081999516,170.4560081999516,new_sceneIn_7.png,43,5.0,1.6726675999816507,,,ID010,0,2024-10-11_13h58.54.779,Surprise recog test,2023.1.3,60.04145258501814,
43,0,43,0,,,,,,,,,,,,,,,,,,,,,,,,,,,,,,,,,,174.54690089996438,175.5722859998932,173.15963519993238,173.15963519993238,173.15963519993238,173.15963519993238,old_sceneIn_19.png,44,5.0,1.3887739999918267,,,ID010,0,2024-10-11_13h58.54.779,Surprise recog test,2023.1.3,60.04145258501814,
44,0,44,0,,,,,,,,,,,,,,,,,,,,,,,,,,,,,,,,,,177.3897975999862,178.41077179997228,175.5722859998932,175.5722859998932,175.5722859998932,175.5722859998932,new_sceneOut_41.png,45,1.0,1.8174481999594718,,,ID010,0,2024-10-11_13h58.54.779,Surprise recog test,2023.1.3,60.04145258501814,
45,0,45,0,,,,,,,,,,,,,,,,,,,,,,,,,,,,,,,,,,179.88237189990468,,178.41077179997228,178.41077179997228,178.41077179997228,178.41077179997228,old_sceneOut_20.png,46,5.0,1.4712184000527486,,,ID010,0,2024-10-11_13h58.54.779,Surprise recog test,2023.1.3,60.04145258501814,
46,0,46,0,,,,,,,,,,,,,,,,,,,,,,,,,,,,,,,,,,182.23138909996487,183.25211679993663,180.91819929995108,180.91819929995108,180.91819929995108,180.91819929995108,new_stationery_18.png,47,5.0,1.3091479999711737,,,ID010,0,2024-10-11_13h58.54.779,Surprise recog test,2023.1.3,60.04145258501814,
47,0,47,0,,,,,,,,,,,,,,,,,,,,,,,,,,,,,,,,,,184.39993789989967,185.4188227999257,183.25211679993663,183.25211679993663,183.25211679993663,183.25211679993663,new_fruit_25.png,48,1.0,1.1482026999583468,,,ID010,0,2024-10-11_13h58.54.779,Surprise recog test,2023.1.3,60.04145258501814,
48,0,48,0,,,,,,,,,,,,,,,,,,,,,,,,,,,,,,,,,,187.21894459996838,188.23975459998474,185.4188227999257,185.4188227999257,185.4188227999257,185.4188227999257,new_sceneIn_2.png,49,5.0,1.7965272999135777,,,ID010,0,2024-10-11_13h58.54.779,Surprise recog test,2023.1.3,60.04145258501814,
49,0,49,0,,,,,,,,,,,,,,,,,,,,,,,,,,,,,,,,,,189.54408369993325,190.57431539997924,188.23975459998474,188.23975459998474,188.23975459998474,188.23975459998474,new_sceneOut_20.png,50,1.0,1.306899999966845,,,ID010,0,2024-10-11_13h58.54.779,Surprise recog test,2023.1.3,60.04145258501814,
50,0,50,0,,,,,,,,,,,,,,,,,,,,,,,,,,,,,,,,,,192.8078477999661,193.8298084998969,190.57431539997924,190.57431539997924,190.57431539997924,190.57431539997924,new_sceneIn_22.png,51,5.0,2.234382899943739,,,ID010,0,2024-10-11_13h58.54.779,Surprise recog test,2023.1.3,60.04145258501814,
51,0,51,0,,,,,,,,,,,,,,,,,,,,,,,,,,,,,,,,,,194.97743529989384,,193.8298084998969,193.8298084998969,193.8298084998969,193.8298084998969,old_stationery_22.png,52,5.0,1.1475087000289932,,,ID010,0,2024-10-11_13h58.54.779,Surprise recog test,2023.1.3,60.04145258501814,
52,0,52,0,,,,,,,,,,,,,,,,,,,,,,,,,,,,,,,,,,197.49833589990158,,196.00958169996738,196.00958169996738,196.00958169996738,196.00958169996738,new_stationery_25.png,53,5.0,1.4892372000031173,,,ID010,0,2024-10-11_13h58.54.779,Surprise recog test,2023.1.3,60.04145258501814,
53,0,53,0,,,,,,,,,,,,,,,,,,,,,,,,,,,,,,,,,,200.21544079994783,,198.5222025999101,198.5222025999101,198.5222025999101,198.5222025999101,new_stationery_19.png,54,5.0,1.691723300027661,,,ID010,0,2024-10-11_13h58.54.779,Surprise recog test,2023.1.3,60.04145258501814,
54,0,54,0,,,,,,,,,,,,,,,,,,,,,,,,,,,,,,,,,,202.7199791999301,203.74032989994157,201.25105209997855,201.25105209997855,201.25105209997855,201.25105209997855,new_fruit_7.png,55,1.0,1.4726105000590906,,,ID010,0,2024-10-11_13h58.54.779,Surprise recog test,2023.1.3,60.04145258501814,
55,0,55,0,,,,,,,,,,,,,,,,,,,,,,,,,,,,,,,,,,205.11754049989395,206.12534479994792,203.74032989994157,203.74032989994157,203.74032989994157,203.74032989994157,old_stationery_17.png,56,5.0,1.370895899948664,,,ID010,0,2024-10-11_13h58.54.779,Surprise recog test,2023.1.3,60.04145258501814,
56,0,56,0,,,,,,,,,,,,,,,,,,,,,,,,,,,,,,,,,,207.42414749995805,208.44409329991322,206.12534479994792,206.12534479994792,206.12534479994792,206.12534479994792,old_fruit_21.png,57,1.0,1.2944172999123111,,,ID010,0,2024-10-11_13h58.54.779,Surprise recog test,2023.1.3,60.04145258501814,
57,0,57,0,,,,,,,,,,,,,,,,,,,,,,,,,,,,,,,,,,210.11172039993107,211.12627609993797,208.44409329991322,208.44409329991322,208.44409329991322,208.44409329991322,new_stationery_1.png,58,5.0,1.6614794000051916,,,ID010,0,2024-10-11_13h58.54.779,Surprise recog test,2023.1.3,60.04145258501814,
58,0,58,0,,,,,,,,,,,,,,,,,,,,,,,,,,,,,,,,,,212.44047979998868,213.44767319993116,211.12627609993797,211.12627609993797,211.12627609993797,211.12627609993797,new_sceneIn_4.png,59,5.0,1.3081804999383166,,,ID010,0,2024-10-11_13h58.54.779,Surprise recog test,2023.1.3,60.04145258501814,
59,0,59,0,,,,,,,,,,,,,,,,,,,,,,,,,,,,,,,,,,214.9586197999306,215.97727899998426,213.44767319993116,213.44767319993116,213.44767319993116,213.44767319993116,old_sceneOut_49.png,60,1.0,1.5018230000277981,,,ID010,0,2024-10-11_13h58.54.779,Surprise recog test,2023.1.3,60.04145258501814,
60,0,60,0,,,,,,,,,,,,,,,,,,,,,,,,,,,,,,,,,,217.3773667999776,218.398331400007,215.97727899998426,215.97727899998426,215.97727899998426,215.97727899998426,new_stationery_50.png,61,5.0,1.399517299956642,,,ID010,0,2024-10-11_13h58.54.779,Surprise recog test,2023.1.3,60.04145258501814,
61,0,61,0,,,,,,,,,,,,,,,,,,,,,,,,,,,,,,,,,,219.58739139989484,220.6043119999813,218.398331400007,218.398331400007,218.398331400007,218.398331400007,new_sceneOut_33.png,62,1.0,1.1919874000595883,,,ID010,0,2024-10-11_13h58.54.779,Surprise recog test,2023.1.3,60.04145258501814,
62,0,62,0,,,,,,,,,,,,,,,,,,,,,,,,,,,,,,,,,,221.90365619992372,222.92811759992037,220.6043119999813,220.6043119999813,220.6043119999813,220.6043119999813,new_stationery_48.png,63,5.0,1.294276800006628,,,ID010,0,2024-10-11_13h58.54.779,Surprise recog test,2023.1.3,60.04145258501814,
63,0,63,0,,,,,,,,,,,,,,,,,,,,,,,,,,,,,,,,,,225.1398389999522,226.16721379989758,222.92811759992037,222.92811759992037,222.92811759992037,222.92811759992037,old_sceneIn_49.png,64,1.0,2.211379299988039,,,ID010,0,2024-10-11_13h58.54.779,Surprise recog test,2023.1.3,60.04145258501814,
64,0,64,0,,,,,,,,,,,,,,,,,,,,,,,,,,,,,,,,,,227.44584059994668,228.47187859995756,226.16721379989758,226.16721379989758,226.16721379989758,226.16721379989758,old_stationery_29.png,65,1.0,1.2799170999787748,,,ID010,0,2024-10-11_13h58.54.779,Surprise recog test,2023.1.3,60.04145258501814,
65,0,65,0,,,,,,,,,,,,,,,,,,,,,,,,,,,,,,,,,,230.6718297000043,231.6938102999702,228.47187859995756,228.47187859995756,228.47187859995756,228.47187859995756,new_stationery_17.png,66,5.0,2.1995472999988124,,,ID010,0,2024-10-11_13h58.54.779,Surprise recog test,2023.1.3,60.04145258501814,
66,0,66,0,,,,,,,,,,,,,,,,,,,,,,,,,,,,,,,,,,234.04123029997572,235.06284009991214,231.6938102999702,231.6938102999702,231.6938102999702,231.6938102999702,old_sceneOut_47.png,67,5.0,2.3438564999960363,,,ID010,0,2024-10-11_13h58.54.779,Surprise recog test,2023.1.3,60.04145258501814,
67,0,67,0,,,,,,,,,,,,,,,,,,,,,,,,,,,,,,,,,,236.86419130000286,,235.06284009991214,235.06284009991214,235.06284009991214,235.06284009991214,new_fruit_6.png,68,5.0,1.804469499969855,,,ID010,0,2024-10-11_13h58.54.779,Surprise recog test,2023.1.3,60.04145258501814,
68,0,68,0,,,,,,,,,,,,,,,,,,,,,,,,,,,,,,,,,,238.72841689991765,239.7477257999126,237.90100229997188,237.90100229997188,237.90100229997188,237.90100229997188,old_sceneIn_28.png,69,5.0,0.8299646999221295,,,ID010,0,2024-10-11_13h58.54.779,Surprise recog test,2023.1.3,60.04145258501814,
69,0,69,0,,,,,,,,,,,,,,,,,,,,,,,,,,,,,,,,,,241.21564899990335,,239.7477257999126,239.7477257999126,239.7477257999126,239.7477257999126,new_sceneOut_48.png,70,1.0,1.4697365999454632,,,ID010,0,2024-10-11_13h58.54.779,Surprise recog test,2023.1.3,60.04145258501814,
70,0,70,0,,,,,,,,,,,,,,,,,,,,,,,,,,,,,,,,,,244.06620409991592,245.08663429995067,242.23809709993657,242.23809709993657,242.23809709993657,242.23809709993657,new_stationery_27.png,71,5.0,1.820380499935709,,,ID010,0,2024-10-11_13h58.54.779,Surprise recog test,2023.1.3,60.04145258501814,
71,0,71,0,,,,,,,,,,,,,,,,,,,,,,,,,,,,,,,,,,246.46021629997995,247.47292769991327,245.08663429995067,245.08663429995067,245.08663429995067,245.08663429995067,old_sceneOut_28.png,72,5.0,1.375956599949859,,,ID010,0,2024-10-11_13h58.54.779,Surprise recog test,2023.1.3,60.04145258501814,
72,0,72,0,,,,,,,,,,,,,,,,,,,,,,,,,,,,,,,,,,248.6958627999993,249.71396049996838,247.47292769991327,247.47292769991327,247.47292769991327,247.47292769991327,new_sceneOut_46.png,73,1.0,1.2191803000168875,,,ID010,0,2024-10-11_13h58.54.779,Surprise recog test,2023.1.3,60.04145258501814,
73,0,73,0,,,,,,,,,,,,,,,,,,,,,,,,,,,,,,,,,,251.43778959999327,252.44710759993177,249.71396049996838,249.71396049996838,249.71396049996838,249.71396049996838,old_stationery_2.png,74,1.0,1.720394799951464,,,ID010,0,2024-10-11_13h58.54.779,Surprise recog test,2023.1.3,60.04145258501814,
74,0,74,0,,,,,,,,,,,,,,,,,,,,,,,,,,,,,,,,,,254.12686459999532,,252.44710759993177,252.44710759993177,252.44710759993177,252.44710759993177,old_sceneIn_29.png,75,1.0,1.6756815999979153,,,ID010,0,2024-10-11_13h58.54.779,Surprise recog test,2023.1.3,60.04145258501814,
75,0,75,0,,,,,,,,,,,,,,,,,,,,,,,,,,,,,,,,,,256.8650501999073,257.89547959994525,255.14927819999866,255.14927819999866,255.14927819999866,255.14927819999866,new_sceneOut_11.png,76,1.0,1.7079759000334889,,,ID010,0,2024-10-11_13h58.54.779,Surprise recog test,2023.1.3,60.04145258501814,
76,0,76,0,,,,,,,,,,,,,,,,,,,,,,,,,,,,,,,,,,258.91467709990684,,257.89547959994525,257.89547959994525,257.89547959994525,257.89547959994525,new_stationery_11.png,77,4.0,1.0209074000595137,,,ID010,0,2024-10-11_13h58.54.779,Surprise recog test,2023.1.3,60.04145258501814,
77,0,77,0,,,,,,,,,,,,,,,,,,,,,,,,,,,,,,,,,,261.8327957999427,262.8513965999009,259.93753169989213,259.93753169989213,259.93753169989213,259.93753169989213,new_fruit_12.png,78,5.0,1.892362100072205,,,ID010,0,2024-10-11_13h58.54.779,Surprise recog test,2023.1.3,60.04145258501814,
78,0,78,0,,,,,,,,,,,,,,,,,,,,,,,,,,,,,,,,,,264.3663074999349,265.3878997999709,262.8513965999009,262.8513965999009,262.8513965999009,262.8513965999009,new_fruit_21.png,79,1.0,1.5112075000070035,,,ID010,0,2024-10-11_13h58.54.779,Surprise recog test,2023.1.3,60.04145258501814,
79,0,79,0,,,,,,,,,,,,,,,,,,,,,,,,,,,,,,,,,,268.2012143000029,269.2072814999847,265.3878997999709,265.3878997999709,265.3878997999709,265.3878997999709,old_stationery_23.png,80,5.0,2.815033599967137,,,ID010,0,2024-10-11_13h58.54.779,Surprise recog test,2023.1.3,60.04145258501814,
80,0,80,0,,,,,,,,,,,,,,,,,,,,,,,,,,,,,,,,,,270.8722897999687,271.8794484999962,269.2072814999847,269.2072814999847,269.2072814999847,269.2072814999847,old_fruit_43.png,81,1.0,1.6612618999788538,,,ID010,0,2024-10-11_13h58.54.779,Surprise recog test,2023.1.3,60.04145258501814,
81,0,81,0,,,,,,,,,,,,,,,,,,,,,,,,,,,,,,,,,,273.1808767999755,274.19782719993964,271.8794484999962,271.8794484999962,271.8794484999962,271.8794484999962,old_stationery_30.png,82,2.0,1.2968116999836639,,,ID010,0,2024-10-11_13h58.54.779,Surprise recog test,2023.1.3,60.04145258501814,
82,0,82,0,,,,,,,,,,,,,,,,,,,,,,,,,,,,,,,,,,275.5589689000044,276.5796627999516,274.19782719993964,274.19782719993964,274.19782719993964,274.19782719993964,old_fruit_28.png,83,1.0,1.349941199994646,,,ID010,0,2024-10-11_13h58.54.779,Surprise recog test,2023.1.3,60.04145258501814,
83,0,83,0,,,,,,,,,,,,,,,,,,,,,,,,,,,,,,,,,,278.36793429998215,279.4020310000051,276.5796627999516,276.5796627999516,276.5796627999516,276.5796627999516,new_fruit_1.png,84,1.0,1.7909413001034409,,,ID010,0,2024-10-11_13h58.54.779,Surprise recog test,2023.1.3,60.04145258501814,
84,0,84,0,,,,,,,,,,,,,,,,,,,,,,,,,,,,,,,,,,281.2511036999058,,279.4020310000051,279.4020310000051,279.4020310000051,279.4020310000051,old_sceneOut_27.png,85,5.0,1.8514349000761285,,,ID010,0,2024-10-11_13h58.54.779,Surprise recog test,2023.1.3,60.04145258501814,
85,0,85,0,,,,,,,,,,,,,,,,,,,,,,,,,,,,,,,,,,283.9602032999974,284.9896962000057,282.2826048999559,282.2826048999559,282.2826048999559,282.2826048999559,new_stationery_33.png,86,5.0,1.6797177999978885,,,ID010,0,2024-10-11_13h58.54.779,Surprise recog test,2023.1.3,60.04145258501814,
86,0,86,0,,,,,,,,,,,,,,,,,,,,,,,,,,,,,,,,,,286.96050889999606,287.97287079994567,284.9896962000057,284.9896962000057,284.9896962000057,284.9896962000057,new_fruit_46.png,87,5.0,1.9748756000772119,,,ID010,0,2024-10-11_13h58.54.779,Surprise recog test,2023.1.3,60.04145258501814,
87,0,87,0,,,,,,,,,,,,,,,,,,,,,,,,,,,,,,,,,,289.9982920999173,291.02262079995126,287.97287079994567,287.97287079994567,287.97287079994567,287.97287079994567,new_sceneIn_5.png,88,5.0,2.02012429991737,,,ID010,0,2024-10-11_13h58.54.779,Surprise recog test,2023.1.3,60.04145258501814,
88,0,88,0,,,,,,,,,,,,,,,,,,,,,,,,,,,,,,,,,,292.84016389993485,293.860118499957,291.02262079995126,291.02262079995126,291.02262079995126,291.02262079995126,old_fruit_22.png,89,1.0,1.8127417000941932,,,ID010,0,2024-10-11_13h58.54.779,Surprise recog test,2023.1.3,60.04145258501814,
89,0,89,0,,,,,,,,,,,,,,,,,,,,,,,,,,,,,,,,,,294.7594395999331,295.78116839996073,293.860118499957,293.860118499957,293.860118499957,293.860118499957,new_fruit_39.png,90,1.0,0.9009728999808431,,,ID010,0,2024-10-11_13h58.54.779,Surprise recog test,2023.1.3,60.04145258501814,
90,0,90,0,,,,,,,,,,,,,,,,,,,,,,,,,,,,,,,,,,297.29251739999745,298.3067135999445,295.78116839996073,295.78116839996073,295.78116839996073,295.78116839996073,old_sceneOut_13.png,91,3.0,1.5149976999964565,,,ID010,0,2024-10-11_13h58.54.779,Surprise recog test,2023.1.3,60.04145258501814,
91,0,91,0,,,,,,,,,,,,,,,,,,,,,,,,,,,,,,,,,,300.32891629997175,301.3490054999711,298.3067135999445,298.3067135999445,298.3067135999445,298.3067135999445,new_stationery_12.png,92,1.0,2.0226590998936445,,,ID010,0,2024-10-11_13h58.54.779,Surprise recog test,2023.1.3,60.04145258501814,
92,0,92,0,,,,,,,,,,,,,,,,,,,,,,,,,,,,,,,,,,303.61283889994957,304.6247070999816,301.3490054999711,301.3490054999711,301.3490054999711,301.3490054999711,old_sceneIn_42.png,93,4.0,2.265427800011821,,,ID010,0,2024-10-11_13h58.54.779,Surprise recog test,2023.1.3,60.04145258501814,
93,0,93,0,,,,,,,,,,,,,,,,,,,,,,,,,,,,,,,,,,306.16765349998605,307.183357300004,304.6247070999816,304.6247070999816,304.6247070999816,304.6247070999816,new_fruit_4.png,94,1.0,1.542045300011523,,,ID010,0,2024-10-11_13h58.54.779,Surprise recog test,2023.1.3,60.04145258501814,
94,0,94,0,,,,,,,,,,,,,,,,,,,,,,,,,,,,,,,,,,308.491516299895,309.50835199991707,307.183357300004,307.183357300004,307.183357300004,307.183357300004,new_sceneOut_10.png,95,1.0,1.3019787999801338,,,ID010,0,2024-10-11_13h58.54.779,Surprise recog test,2023.1.3,60.04145258501814,
95,0,95,0,,,,,,,,,,,,,,,,,,,,,,,,,,,,,,,,,,311.0864272000035,312.10932859999593,309.50835199991707,309.50835199991707,309.50835199991707,309.50835199991707,old_stationery_46.png,96,5.0,1.5749181000282988,,,ID010,0,2024-10-11_13h58.54.779,Surprise recog test,2023.1.3,60.04145258501814,
96,0,96,0,,,,,,,,,,,,,,,,,,,,,,,,,,,,,,,,,,315.43179619999137,316.4469739999622,312.10932859999593,312.10932859999593,312.10932859999593,312.10932859999593,old_sceneIn_22.png,97,5.0,3.324113200069405,,,ID010,0,2024-10-11_13h58.54.779,Surprise recog test,2023.1.3,60.04145258501814,
97,0,97,0,,,,,,,,,,,,,,,,,,,,,,,,,,,,,,,,,,317.7118440999184,318.71635399991646,316.4469739999622,316.4469739999622,316.4469739999622,316.4469739999622,old_sceneOut_31.png,98,1.0,1.2609497000230476,,,ID010,0,2024-10-11_13h58.54.779,Surprise recog test,2023.1.3,60.04145258501814,
98,0,98,0,,,,,,,,,,,,,,,,,,,,,,,,,,,,,,,,,,320.4007809999166,,318.71635399991646,318.71635399991646,318.71635399991646,318.71635399991646,old_fruit_42.png,99,1.0,1.6811948999529704,,,ID010,0,2024-10-11_13h58.54.779,Surprise recog test,2023.1.3,60.04145258501814,
99,0,99,0,,,,,,,,,,,,,,,,,,,,,,,,,,,,,,,,,,322.97444909997284,324.00104979996104,321.4265677999938,321.4265677999938,321.4265677999938,321.4265677999938,new_sceneIn_50.png,100,5.0,1.5481288000009954,,,ID010,0,2024-10-11_13h58.54.779,Surprise recog test,2023.1.3,60.04145258501814,
100,0,100,0,,,,,,,,,,,,,,,,,,,,,,,,,,,,,,,,,,325.1720700999722,326.2077744998969,324.00104979996104,324.00104979996104,324.00104979996104,324.00104979996104,old_sceneIn_40.png,101,5.0,1.1723129000747576,,,ID010,0,2024-10-11_13h58.54.779,Surprise recog test,2023.1.3,60.04145258501814,
101,0,101,0,,,,,,,,,,,,,,,,,,,,,,,,,,,,,,,,,,327.85246679990087,328.87228319991846,326.2077744998969,326.2077744998969,326.2077744998969,326.2077744998969,new_fruit_40.png,102,4.0,1.6477080000331625,,,ID010,0,2024-10-11_13h58.54.779,Surprise recog test,2023.1.3,60.04145258501814,
102,0,102,0,,,,,,,,,,,,,,,,,,,,,,,,,,,,,,,,,,330.35562829999253,331.3777831000043,328.87228319991846,328.87228319991846,328.87228319991846,328.87228319991846,old_fruit_36.png,103,2.0,1.485613500000909,,,ID010,0,2024-10-11_13h58.54.779,Surprise recog test,2023.1.3,60.04145258501814,
103,0,103,0,,,,,,,,,,,,,,,,,,,,,,,,,,,,,,,,,,333.0059617999941,334.0335852999706,331.3777831000043,331.3777831000043,331.3777831000043,331.3777831000043,new_fruit_36.png,104,2.0,1.6315688999602571,,,ID010,0,2024-10-11_13h58.54.779,Surprise recog test,2023.1.3,60.04145258501814,
104,0,104,0,,,,,,,,,,,,,,,,,,,,,,,,,,,,,,,,,,335.52602049999405,336.5320939999074,334.0335852999706,334.0335852999706,334.0335852999706,334.0335852999706,new_sceneIn_9.png,105,5.0,1.496387500083074,,,ID010,0,2024-10-11_13h58.54.779,Surprise recog test,2023.1.3,60.04145258501814,
105,0,105,0,,,,,,,,,,,,,,,,,,,,,,,,,,,,,,,,,,337.93601549998857,338.95206749998033,336.5320939999074,336.5320939999074,336.5320939999074,336.5320939999074,old_sceneIn_6.png,106,5.0,1.4006586999166757,,,ID010,0,2024-10-11_13h58.54.779,Surprise recog test,2023.1.3,60.04145258501814,
106,0,106,0,,,,,,,,,,,,,,,,,,,,,,,,,,,,,,,,,,340.24614899989683,341.26399879995733,338.95206749998033,338.95206749998033,338.95206749998033,338.95206749998033,new_fruit_43.png,107,5.0,1.2828847999917343,,,ID010,0,2024-10-11_13h58.54.779,Surprise recog test,2023.1.3,60.04145258501814,
107,0,107,0,,,,,,,,,,,,,,,,,,,,,,,,,,,,,,,,,,342.06043799989857,343.08478779997677,341.26399879995733,341.26399879995733,341.26399879995733,341.26399879995733,old_sceneOut_33.png,108,5.0,0.7982951999874786,,,ID010,0,2024-10-11_13h58.54.779,Surprise recog test,2023.1.3,60.04145258501814,
108,0,108,0,,,,,,,,,,,,,,,,,,,,,,,,,,,,,,,,,,344.16847079992294,,343.08478779997677,343.08478779997677,343.08478779997677,343.08478779997677,old_sceneIn_41.png,109,5.0,1.0862179999239743,,,ID010,0,2024-10-11_13h58.54.779,Surprise recog test,2023.1.3,60.04145258501814,
109,0,109,0,,,,,,,,,,,,,,,,,,,,,,,,,,,,,,,,,,346.55768599989824,347.57296249992214,345.20353209995665,345.20353209995665,345.20353209995665,345.20353209995665,new_stationery_35.png,110,1.0,1.3567527000559494,,,ID010,0,2024-10-11_13h58.54.779,Surprise recog test,2023.1.3,60.04145258501814,
110,0,110,0,,,,,,,,,,,,,,,,,,,,,,,,,,,,,,,,,,350.0976892999606,351.1183224999113,347.57296249992214,347.57296249992214,347.57296249992214,347.57296249992214,new_sceneIn_23.png,111,1.0,2.5212103999219835,,,ID010,0,2024-10-11_13h58.54.779,Surprise recog test,2023.1.3,60.04145258501814,
111,0,111,0,,,,,,,,,,,,,,,,,,,,,,,,,,,,,,,,,,352.8924590999959,,351.1183224999113,351.1183224999113,351.1183224999113,351.1183224999113,old_sceneIn_23.png,112,5.0,1.7745409000199288,,,ID010,0,2024-10-11_13h58.54.779,Surprise recog test,2023.1.3,60.04145258501814,
112,0,112,0,,,,,,,,,,,,,,,,,,,,,,,,,,,,,,,,,,355.6922972999746,356.70766749989707,353.91828729992267,353.91828729992267,353.91828729992267,353.91828729992267,new_fruit_20.png,113,3.0,1.7700306999031454,,,ID010,0,2024-10-11_13h58.54.779,Surprise recog test,2023.1.3,60.04145258501814,
113,0,113,0,,,,,,,,,,,,,,,,,,,,,,,,,,,,,,,,,,358.37177869991865,359.3989720999962,356.70766749989707,356.70766749989707,356.70766749989707,356.70766749989707,new_sceneOut_26.png,114,4.0,1.663773600012064,,,ID010,0,2024-10-11_13h58.54.779,Surprise recog test,2023.1.3,60.04145258501814,
114,0,114,0,,,,,,,,,,,,,,,,,,,,,,,,,,,,,,,,,,361.3814272999298,362.4008428999223,359.3989720999962,359.3989720999962,359.3989720999962,359.3989720999962,old_fruit_16.png,115,5.0,1.9844417999265715,,,ID010,0,2024-10-11_13h58.54.779,Surprise recog test,2023.1.3,60.04145258501814,
115,0,115,0,,,,,,,,,,,,,,,,,,,,,,,,,,,,,,,,,,364.3538638999453,365.38127859996166,362.4008428999223,362.4008428999223,362.4008428999223,362.4008428999223,old_sceneOut_36.png,116,5.0,1.9542009000433609,,,ID010,0,2024-10-11_13h58.54.779,Surprise recog test,2023.1.3,60.04145258501814,
116,0,116,0,,,,,,,,,,,,,,,,,,,,,,,,,,,,,,,,,,367.19222829991486,368.2158487999113,365.38127859996166,365.38127859996166,365.38127859996166,365.38127859996166,old_fruit_18.png,117,1.0,1.8107277000090107,,,ID010,0,2024-10-11_13h58.54.779,Surprise recog test,2023.1.3,60.04145258501814,
117,0,117,0,,,,,,,,,,,,,,,,,,,,,,,,,,,,,,,,,,370.24816239997745,371.28141259995755,368.2158487999113,368.2158487999113,368.2158487999113,368.2158487999113,new_stationery_40.png,118,5.0,2.030926400097087,,,ID010,0,2024-10-11_13h58.54.779,Surprise recog test,2023.1.3,60.04145258501814,
118,0,118,0,,,,,,,,,,,,,,,,,,,,,,,,,,,,,,,,,,374.00133949995507,375.02262599999085,371.28141259995755,371.28141259995755,371.28141259995755,371.28141259995755,new_sceneIn_3.png,119,1.0,2.725562300067395,,,ID010,0,2024-10-11_13h58.54.779,Surprise recog test,2023.1.3,60.04145258501814,
119,0,119,0,,,,,,,,,,,,,,,,,,,,,,,,,,,,,,,,,,376.55925079993904,377.574098699959,375.02262599999085,375.02262599999085,375.02262599999085,375.02262599999085,new_stationery_20.png,120,5.0,1.538657399942167,,,ID010,0,2024-10-11_13h58.54.779,Surprise recog test,2023.1.3,60.04145258501814,
120,0,120,0,,,,,,,,,,,,,,,,,,,,,,,,,,,,,,,,,,379.14638489997014,380.1649384999182,377.574098699959,377.574098699959,377.574098699959,377.574098699959,new_sceneOut_23.png,121,5.0,1.5731658999575302,,,ID010,0,2024-10-11_13h58.54.779,Surprise recog test,2023.1.3,60.04145258501814,
121,0,121,0,,,,,,,,,,,,,,,,,,,,,,,,,,,,,,,,,,381.67950879991986,382.6964793999214,380.1649384999182,380.1649384999182,380.1649384999182,380.1649384999182,old_sceneIn_50.png,122,1.0,1.516192700015381,,,ID010,0,2024-10-11_13h58.54.779,Surprise recog test,2023.1.3,60.04145258501814,
122,0,122,0,,,,,,,,,,,,,,,,,,,,,,,,,,,,,,,,,,384.058225799934,385.0844808999682,382.6964793999214,382.6964793999214,382.6964793999214,382.6964793999214,old_stationery_43.png,123,5.0,1.3595725999912247,,,ID010,0,2024-10-11_13h58.54.779,Surprise recog test,2023.1.3,60.04145258501814,
123,0,123,0,,,,,,,,,,,,,,,,,,,,,,,,,,,,,,,,,,386.25107769994065,387.2732250998961,385.0844808999682,385.0844808999682,385.0844808999682,385.0844808999682,old_fruit_33.png,124,1.0,1.165210900013335,,,ID010,0,2024-10-11_13h58.54.779,Surprise recog test,2023.1.3,60.04145258501814,
124,0,124,0,,,,,,,,,,,,,,,,,,,,,,,,,,,,,,,,,,388.9162729999516,389.93853219994344,387.2732250998961,387.2732250998961,387.2732250998961,387.2732250998961,new_sceneOut_17.png,125,1.0,1.6468920999905095,,,ID010,0,2024-10-11_13h58.54.779,Surprise recog test,2023.1.3,60.04145258501814,
125,0,125,0,,,,,,,,,,,,,,,,,,,,,,,,,,,,,,,,,,392.44850299996324,393.4735464999685,389.93853219994344,389.93853219994344,389.93853219994344,389.93853219994344,new_stationery_43.png,126,5.0,2.5155419000657275,,,ID010,0,2024-10-11_13h58.54.779,Surprise recog test,2023.1.3,60.04145258501814,
126,0,126,0,,,,,,,,,,,,,,,,,,,,,,,,,,,,,,,,,,395.1098569999449,396.124400199973,393.4735464999685,393.4735464999685,393.4735464999685,393.4735464999685,new_sceneIn_49.png,127,5.0,1.636746000032872,,,ID010,0,2024-10-11_13h58.54.779,Surprise recog test,2023.1.3,60.04145258501814,
127,0,127,0,,,,,,,,,,,,,,,,,,,,,,,,,,,,,,,,,,397.89662319992203,,396.124400199973,396.124400199973,396.124400199973,396.124400199973,old_sceneOut_42.png,128,2.0,1.7746072999434546,,,ID010,0,2024-10-11_13h58.54.779,Surprise recog test,2023.1.3,60.04145258501814,
128,0,128,0,,,,,,,,,,,,,,,,,,,,,,,,,,,,,,,,,,400.6914041999262,401.7152658998966,398.9289547998924,398.9289547998924,398.9289547998924,398.9289547998924,old_sceneIn_30.png,129,5.0,1.7666909999679774,,,ID010,0,2024-10-11_13h58.54.779,Surprise recog test,2023.1.3,60.04145258501814,
129,0,129,0,,,,,,,,,,,,,,,,,,,,,,,,,,,,,,,,,,403.13228589994833,404.1506948999595,401.7152658998966,401.7152658998966,401.7152658998966,401.7152658998966,new_stationery_26.png,130,5.0,1.4191498999716714,,,ID010,0,2024-10-11_13h58.54.779,Surprise recog test,2023.1.3,60.04145258501814,
130,0,130,0,,,,,,,,,,,,,,,,,,,,,,,,,,,,,,,,,,405.49768939998467,406.5125013999641,404.1506948999595,404.1506948999595,404.1506948999595,404.1506948999595,old_sceneOut_39.png,131,5.0,1.3462724999990314,,,ID010,0,2024-10-11_13h58.54.779,Surprise recog test,2023.1.3,60.04145258501814,
131,0,131,0,,,,,,,,,,,,,,,,,,,,,,,,,,,,,,,,,,408.20676049997564,,406.5125013999641,406.5125013999641,406.5125013999641,406.5125013999641,old_sceneOut_18.png,132,5.0,1.693063099985011,,,ID010,0,2024-10-11_13h58.54.779,Surprise recog test,2023.1.3,60.04145258501814,
132,0,132,0,,,,,,,,,,,,,,,,,,,,,,,,,,,,,,,,,,410.71179679990746,411.7394940999802,409.236980299931,409.236980299931,409.236980299931,409.236980299931,old_sceneOut_24.png,133,1.0,1.4743640000233427,,,ID010,0,2024-10-11_13h58.54.779,Surprise recog test,2023.1.3,60.04145258501814,
133,0,133,0,,,,,,,,,,,,,,,,,,,,,,,,,,,,,,,,,,413.51324769994244,414.53337189997546,411.7394940999802,411.7394940999802,411.7394940999802,411.7394940999802,old_sceneIn_44.png,134,4.0,1.7756277000298724,,,ID010,0,2024-10-11_13h58.54.779,Surprise recog test,2023.1.3,60.04145258501814,
134,0,134,0,,,,,,,,,,,,,,,,,,,,,,,,,,,,,,,,,,415.92560879990924,416.95365859998856,414.53337189997546,414.53337189997546,414.53337189997546,414.53337189997546,old_stationery_18.png,135,1.0,1.3830301000270993,,,ID010,0,2024-10-11_13h58.54.779,Surprise recog test,2023.1.3,60.04145258501814,
135,0,135,0,,,,,,,,,,,,,,,,,,,,,,,,,,,,,,,,,,417.9454466999741,418.9649699999718,416.95365859998856,416.95365859998856,416.95365859998856,416.95365859998856,old_sceneOut_29.png,136,1.0,0.9961328000063077,,,ID010,0,2024-10-11_13h58.54.779,Surprise recog test,2023.1.3,60.04145258501814,
136,0,136,0,,,,,,,,,,,,,,,,,,,,,,,,,,,,,,,,,,419.79706499993335,420.80187349999323,418.9649699999718,418.9649699999718,418.9649699999718,418.9649699999718,old_fruit_44.png,137,1.0,0.8330987999215722,,,ID010,0,2024-10-11_13h58.54.779,Surprise recog test,2023.1.3,60.04145258501814,
137,0,137,0,,,,,,,,,,,,,,,,,,,,,,,,,,,,,,,,,,421.4802960999077,422.5018570999382,420.80187349999323,420.80187349999323,420.80187349999323,420.80187349999323,old_fruit_39.png,138,1.0,0.6722880000015721,,,ID010,0,2024-10-11_13h58.54.779,Surprise recog test,2023.1.3,60.04145258501814,
138,0,138,0,,,,,,,,,,,,,,,,,,,,,,,,,,,,,,,,,,424.6490066999104,425.66415729990695,422.5018570999382,422.5018570999382,422.5018570999382,422.5018570999382,new_sceneIn_44.png,139,5.0,2.1475906999548897,,,ID010,0,2024-10-11_13h58.54.779,Surprise recog test,2023.1.3,60.04145258501814,
139,0,139,0,,,,,,,,,,,,,,,,,,,,,,,,,,,,,,,,,,427.319647599943,428.3399739000015,425.66415729990695,425.66415729990695,425.66415729990695,425.66415729990695,new_sceneOut_24.png,140,5.0,1.6538607999682426,,,ID010,0,2024-10-11_13h58.54.779,Surprise recog test,2023.1.3,60.04145258501814,
140,0,140,0,,,,,,,,,,,,,,,,,,,,,,,,,,,,,,,,,,429.73719179991167,430.7556554999901,428.3399739000015,428.3399739000015,428.3399739000015,428.3399739000015,old_fruit_6.png,141,1.0,1.4006716000149027,,,ID010,0,2024-10-11_13h58.54.779,Surprise recog test,2023.1.3,60.04145258501814,
141,0,141,0,,,,,,,,,,,,,,,,,,,,,,,,,,,,,,,,,,431.9939561999636,433.01455039996654,430.7556554999901,430.7556554999901,430.7556554999901,430.7556554999901,old_sceneIn_34.png,142,5.0,1.2398365000262856,,,ID010,0,2024-10-11_13h58.54.779,Surprise recog test,2023.1.3,60.04145258501814,
142,0,142,0,,,,,,,,,,,,,,,,,,,,,,,,,,,,,,,,,,433.94290849997196,,433.01455039996654,433.01455039996654,433.01455039996654,433.01455039996654,new_sceneOut_9.png,143,1.0,0.9235241999849677,,,ID010,0,2024-10-11_13h58.54.779,Surprise recog test,2023.1.3,60.04145258501814,
143,0,143,0,,,,,,,,,,,,,,,,,,,,,,,,,,,,,,,,,,436.1109052998945,437.1315346999327,434.96783059998415,434.96783059998415,434.96783059998415,434.96783059998415,old_fruit_11.png,144,1.0,1.1405599999707192,,,ID010,0,2024-10-11_13h58.54.779,Surprise recog test,2023.1.3,60.04145258501814,
144,0,144,0,,,,,,,,,,,,,,,,,,,,,,,,,,,,,,,,,,438.81172159989364,439.8265109999338,437.1315346999327,437.1315346999327,437.1315346999327,437.1315346999327,new_sceneIn_17.png,145,5.0,1.6838400999549776,,,ID010,0,2024-10-11_13h58.54.779,Surprise recog test,2023.1.3,60.04145258501814,
145,0,145,0,,,,,,,,,,,,,,,,,,,,,,,,,,,,,,,,,,440.8007503999397,,439.8265109999338,439.8265109999338,439.8265109999338,439.8265109999338,old_fruit_26.png,146,2.0,0.9695886999834329,,,ID010,0,2024-10-11_13h58.54.779,Surprise recog test,2023.1.3,60.04145258501814,
146,0,146,0,,,,,,,,,,,,,,,,,,,,,,,,,,,,,,,,,,442.9647008999018,443.9766881999094,441.83586769993417,441.83586769993417,441.83586769993417,441.83586769993417,new_stationery_47.png,147,4.0,1.130905400030315,,,ID010,0,2024-10-11_13h58.54.779,Surprise recog test,2023.1.3,60.04145258501814,
147,0,147,0,,,,,,,,,,,,,,,,,,,,,,,,,,,,,,,,,,445.0140885999426,446.0365568998968,443.9766881999094,443.9766881999094,443.9766881999094,443.9766881999094,new_sceneOut_44.png,148,4.0,1.0371143999509513,,,ID010,0,2024-10-11_13h58.54.779,Surprise recog test,2023.1.3,60.04145258501814,
148,0,148,0,,,,,,,,,,,,,,,,,,,,,,,,,,,,,,,,,,447.08509369997773,448.089232099941,446.0365568998968,446.0365568998968,446.0365568998968,446.0365568998968,new_sceneOut_14.png,149,4.0,1.0453901999862865,,,ID010,0,2024-10-11_13h58.54.779,Surprise recog test,2023.1.3,60.04145258501814,
149,0,149,0,,,,,,,,,,,,,,,,,,,,,,,,,,,,,,,,,,449.1668848999543,450.18937359994743,448.089232099941,448.089232099941,448.089232099941,448.089232099941,old_sceneIn_4.png,150,5.0,1.0739046999951825,,,ID010,0,2024-10-11_13h58.54.779,Surprise recog test,2023.1.3,60.04145258501814,
150,0,150,0,,,,,,,,,,,,,,,,,,,,,,,,,,,,,,,,,,451.58864909992553,452.60956499993335,450.18937359994743,450.18937359994743,450.18937359994743,450.18937359994743,new_stationery_31.png,151,5.0,1.392223999951966,,,ID010,0,2024-10-11_13h58.54.779,Surprise recog test,2023.1.3,60.04145258501814,
151,0,151,0,,,,,,,,,,,,,,,,,,,,,,,,,,,,,,,,,,453.92963739996776,454.94716179999523,452.60956499993335,452.60956499993335,452.60956499993335,452.60956499993335,old_fruit_17.png,152,2.0,1.3194654000690207,,,ID010,0,2024-10-11_13h58.54.779,Surprise recog test,2023.1.3,60.04145258501814,
152,0,152,0,,,,,,,,,,,,,,,,,,,,,,,,,,,,,,,,,,457.04200769995805,458.058733999962,454.94716179999523,454.94716179999523,454.94716179999523,454.94716179999523,new_fruit_26.png,153,1.0,2.0908923000097275,,,ID010,0,2024-10-11_13h58.54.779,Surprise recog test,2023.1.3,60.04145258501814,
153,0,153,0,,,,,,,,,,,,,,,,,,,,,,,,,,,,,,,,,,460.3535750999581,461.3821223999839,458.058733999962,458.058733999962,458.058733999962,458.058733999962,new_sceneIn_37.png,154,5.0,2.296303099952638,,,ID010,0,2024-10-11_13h58.54.779,Surprise recog test,2023.1.3,60.04145258501814,
154,0,154,0,,,,,,,,,,,,,,,,,,,,,,,,,,,,,,,,,,462.8156095999293,463.83324349997565,461.3821223999839,461.3821223999839,461.3821223999839,461.3821223999839,new_sceneIn_16.png,155,5.0,1.4347933999961242,,,ID010,0,2024-10-11_13h58.54.779,Surprise recog test,2023.1.3,60.04145258501814,
155,0,155,0,,,,,,,,,,,,,,,,,,,,,,,,,,,,,,,,,,465.9766043999698,467.00759890000336,463.83324349997565,463.83324349997565,463.83324349997565,463.83324349997565,old_stationery_49.png,156,5.0,2.144539700006135,,,ID010,0,2024-10-11_13h58.54.779,Surprise recog test,2023.1.3,60.04145258501814,
156,0,156,0,,,,,,,,,,,,,,,,,,,,,,,,,,,,,,,,,,467.9856310999021,469.0082367999712,467.00759890000336,467.00759890000336,467.00759890000336,467.00759890000336,new_stationery_41.png,157,5.0,0.9791331000160426,,,ID010,0,2024-10-11_13h58.54.779,Surprise recog test,2023.1.3,60.04145258501814,
157,0,157,0,,,,,,,,,,,,,,,,,,,,,,,,,,,,,,,,,,471.8307965999702,472.8571777999168,469.0082367999712,469.0082367999712,469.0082367999712,469.0082367999712,old_sceneIn_37.png,158,5.0,2.8255990999750793,,,ID010,0,2024-10-11_13h58.54.779,Surprise recog test,2023.1.3,60.04145258501814,
158,0,158,0,,,,,,,,,,,,,,,,,,,,,,,,,,,,,,,,,,475.82719469990116,476.82991470000707,472.8571777999168,472.8571777999168,472.8571777999168,472.8571777999168,new_sceneIn_24.png,159,5.0,2.9736183000495657,,,ID010,0,2024-10-11_13h58.54.779,Surprise recog test,2023.1.3,60.04145258501814,
159,0,159,0,,,,,,,,,,,,,,,,,,,,,,,,,,,,,,,,,,479.42703749996144,480.4390152998967,476.82991470000707,476.82991470000707,476.82991470000707,476.82991470000707,old_stationery_4.png,160,5.0,2.5930956000229344,,,ID010,0,2024-10-11_13h58.54.779,Surprise recog test,2023.1.3,60.04145258501814,
160,0,160,0,,,,,,,,,,,,,,,,,,,,,,,,,,,,,,,,,,481.42185389995575,482.4498471999541,480.4390152998967,480.4390152998967,480.4390152998967,480.4390152998967,new_stationery_46.png,161,5.0,0.9769328000256792,,,ID010,0,2024-10-11_13h58.54.779,Surprise recog test,2023.1.3,60.04145258501814,
161,0,161,0,,,,,,,,,,,,,,,,,,,,,,,,,,,,,,,,,,484.00162029999774,,482.4498471999541,482.4498471999541,482.4498471999541,482.4498471999541,old_sceneOut_7.png,162,2.0,1.5532334999879822,,,ID010,0,2024-10-11_13h58.54.779,Surprise recog test,2023.1.3,60.04145258501814,
162,0,162,0,,,,,,,,,,,,,,,,,,,,,,,,,,,,,,,,,,486.40770459990017,487.42462379997596,485.0209520999342,485.0209520999342,485.0209520999342,485.0209520999342,new_sceneOut_4.png,163,5.0,1.383670200011693,,,ID010,0,2024-10-11_13h58.54.779,Surprise recog test,2023.1.3,60.04145258501814,
163,0,163,0,,,,,,,,,,,,,,,,,,,,,,,,,,,,,,,,,,488.8835696999449,489.89500999997836,487.42462379997596,487.42462379997596,487.42462379997596,487.42462379997596,new_fruit_13.png,164,2.0,1.4546893000369892,,,ID010,0,2024-10-11_13h58.54.779,Surprise recog test,2023.1.3,60.04145258501814,
164,0,164,0,,,,,,,,,,,,,,,,,,,,,,,,,,,,,,,,,,491.27464899991173,,489.89500999997836,489.89500999997836,489.89500999997836,489.89500999997836,old_stationery_28.png,165,1.0,1.3754550999728963,,,ID010,0,2024-10-11_13h58.54.779,Surprise recog test,2023.1.3,60.04145258501814,
165,0,165,0,,,,,,,,,,,,,,,,,,,,,,,,,,,,,,,,,,493.72307239996735,494.7469599999022,492.3075849999441,492.3075849999441,492.3075849999441,492.3075849999441,new_sceneIn_33.png,166,5.0,1.41777269996237,,,ID010,0,2024-10-11_13h58.54.779,Surprise recog test,2023.1.3,60.04145258501814,
166,0,166,0,,,,,,,,,,,,,,,,,,,,,,,,,,,,,,,,,,496.0283643999137,,494.7469599999022,494.7469599999022,494.7469599999022,494.7469599999022,old_sceneOut_17.png,167,5.0,1.2837806000607088,,,ID010,0,2024-10-11_13h58.54.779,Surprise recog test,2023.1.3,60.04145258501814,
167,0,167,0,,,,,,,,,,,,,,,,,,,,,,,,,,,,,,,,,,498.11689009994734,499.15006519993767,497.05590179993305,497.05590179993305,497.05590179993305,497.05590179993305,old_sceneOut_37.png,168,2.0,1.062029599910602,,,ID010,0,2024-10-11_13h58.54.779,Surprise recog test,2023.1.3,60.04145258501814,
168,0,168,0,,,,,,,,,,,,,,,,,,,,,,,,,,,,,,,,,,499.9911224999232,501.01268909999635,499.15006519993767,499.15006519993767,499.15006519993767,499.15006519993767,new_fruit_41.png,169,2.0,0.8432343000313267,,,ID010,0,2024-10-11_13h58.54.779,Surprise recog test,2023.1.3,60.04145258501814,
169,0,169,0,,,,,,,,,,,,,,,,,,,,,,,,,,,,,,,,,,501.99365099996794,503.0213704999769,501.01268909999635,501.01268909999635,501.01268909999635,501.01268909999635,old_sceneOut_12.png,170,5.0,0.9823661000700668,,,ID010,0,2024-10-11_13h58.54.779,Surprise recog test,2023.1.3,60.04145258501814,
170,0,170,0,,,,,,,,,,,,,,,,,,,,,,,,,,,,,,,,,,504.0996038999874,505.1226336999098,503.0213704999769,503.0213704999769,503.0213704999769,503.0213704999769,old_stationery_8.png,171,4.0,1.0830483000027016,,,ID010,0,2024-10-11_13h58.54.779,Surprise recog test,2023.1.3,60.04145258501814,
171,0,171,0,,,,,,,,,,,,,,,,,,,,,,,,,,,,,,,,,,506.31589379999787,507.3374827998923,505.1226336999098,505.1226336999098,505.1226336999098,505.1226336999098,new_stationery_8.png,172,5.0,1.1957298000343144,,,ID010,0,2024-10-11_13h58.54.779,Surprise recog test,2023.1.3,60.04145258501814,
172,0,172,0,,,,,,,,,,,,,,,,,,,,,,,,,,,,,,,,,,508.7205320999492,509.7272395999171,507.3374827998923,507.3374827998923,507.3374827998923,507.3374827998923,old_sceneOut_10.png,173,2.0,1.3845935999415815,,,ID010,0,2024-10-11_13h58.54.779,Surprise recog test,2023.1.3,60.04145258501814,
173,0,173,0,,,,,,,,,,,,,,,,,,,,,,,,,,,,,,,,,,510.697763599921,511.7189137999667,509.7272395999171,509.7272395999171,509.7272395999171,509.7272395999171,old_sceneOut_38.png,174,3.0,0.965862900018692,,,ID010,0,2024-10-11_13h58.54.779,Surprise recog test,2023.1.3,60.04145258501814,
174,0,174,0,,,,,,,,,,,,,,,,,,,,,,,,,,,,,,,,,,513.0404494999675,514.0606725999387,511.7189137999667,511.7189137999667,511.7189137999667,511.7189137999667,new_sceneIn_31.png,175,5.0,1.3196683999849483,,,ID010,0,2024-10-11_13h58.54.779,Surprise recog test,2023.1.3,60.04145258501814,
175,0,175,0,,,,,,,,,,,,,,,,,,,,,,,,,,,,,,,,,,515.2330055999337,516.2500641999068,514.0606725999387,514.0606725999387,514.0606725999387,514.0606725999387,old_sceneIn_36.png,176,4.0,1.1741684000007808,,,ID010,0,2024-10-11_13h58.54.779,Surprise recog test,2023.1.3,60.04145258501814,
176,0,176,0,,,,,,,,,,,,,,,,,,,,,,,,,,,,,,,,,,517.3695151999127,518.3818924999796,516.2500641999068,516.2500641999068,516.2500641999068,516.2500641999068,new_sceneIn_13.png,177,5.0,1.1152740999823436,,,ID010,0,2024-10-11_13h58.54.779,Surprise recog test,2023.1.3,60.04145258501814,
177,0,177,0,,,,,,,,,,,,,,,,,,,,,,,,,,,,,,,,,,519.3949495999841,520.3993071999867,518.3818924999796,518.3818924999796,518.3818924999796,518.3818924999796,new_stationery_28.png,178,4.0,1.0064066000049934,,,ID010,0,2024-10-11_13h58.54.779,Surprise recog test,2023.1.3,60.04145258501814,
178,0,178,0,,,,,,,,,,,,,,,,,,,,,,,,,,,,,,,,,,521.4826678999234,,520.3993071999867,520.3993071999867,520.3993071999867,520.3993071999867,new_fruit_24.png,179,4.0,1.0770850999979302,,,ID010,0,2024-10-11_13h58.54.779,Surprise recog test,2023.1.3,60.04145258501814,
179,0,179,0,,,,,,,,,,,,,,,,,,,,,,,,,,,,,,,,,,523.4650487999897,524.4760054999497,522.5009776999941,522.5009776999941,522.5009776999941,522.5009776999941,new_sceneIn_36.png,180,4.0,0.9534981000469998,,,ID010,0,2024-10-11_13h58.54.779,Surprise recog test,2023.1.3,60.04145258501814,
180,0,180,0,,,,,,,,,,,,,,,,,,,,,,,,,,,,,,,,,,527.7116974999662,528.7231506999815,524.4760054999497,524.4760054999497,524.4760054999497,524.4760054999497,old_stationery_27.png,181,2.0,3.233650599955581,,,ID010,0,2024-10-11_13h58.54.779,Surprise recog test,2023.1.3,60.04145258501814,
181,0,181,0,,,,,,,,,,,,,,,,,,,,,,,,,,,,,,,,,,529.9982844999759,531.0305572999641,528.7231506999815,528.7231506999815,528.7231506999815,528.7231506999815,old_stationery_50.png,182,4.0,1.2712020999751985,,,ID010,0,2024-10-11_13h58.54.779,Surprise recog test,2023.1.3,60.04145258501814,
182,0,182,0,,,,,,,,,,,,,,,,,,,,,,,,,,,,,,,,,,531.9605714000063,533.0011977999238,531.0305572999641,531.0305572999641,531.0305572999641,531.0305572999641,new_fruit_42.png,183,3.0,0.9343207000056282,,,ID010,0,2024-10-11_13h58.54.779,Surprise recog test,2023.1.3,60.04145258501814,
183,0,183,0,,,,,,,,,,,,,,,,,,,,,,,,,,,,,,,,,,534.5496412999928,535.5648588999175,533.0011977999238,533.0011977999238,533.0011977999238,533.0011977999238,new_sceneOut_32.png,184,4.0,1.5535890000173822,,,ID010,0,2024-10-11_13h58.54.779,Surprise recog test,2023.1.3,60.04145258501814,
184,0,184,0,,,,,,,,,,,,,,,,,,,,,,,,,,,,,,,,,,537.0321477999678,538.0710243999492,535.5648588999175,535.5648588999175,535.5648588999175,535.5648588999175,new_fruit_8.png,185,1.0,1.4623410999774933,,,ID010,0,2024-10-11_13h58.54.779,Surprise recog test,2023.1.3,60.04145258501814,
185,0,185,0,,,,,,,,,,,,,,,,,,,,,,,,,,,,,,,,,,538.9635401999112,,538.0710243999492,538.0710243999492,538.0710243999492,538.0710243999492,old_stationery_31.png,186,2.0,0.8945703000063077,,,ID010,0,2024-10-11_13h58.54.779,Surprise recog test,2023.1.3,60.04145258501814,
186,0,186,0,,,,,,,,,,,,,,,,,,,,,,,,,,,,,,,,,,541.4629695999902,542.4793149000034,539.997483199928,539.997483199928,539.997483199928,539.997483199928,new_fruit_18.png,187,1.0,1.4679756000405177,,,ID010,0,2024-10-11_13h58.54.779,Surprise recog test,2023.1.3,60.04145258501814,
187,0,187,0,,,,,,,,,,,,,,,,,,,,,,,,,,,,,,,,,,543.8950900000054,544.9180244999006,542.4793149000034,542.4793149000034,542.4793149000034,542.4793149000034,old_sceneIn_15.png,188,5.0,1.4118688999442384,,,ID010,0,2024-10-11_13h58.54.779,Surprise recog test,2023.1.3,60.04145258501814,
188,0,188,0,,,,,,,,,,,,,,,,,,,,,,,,,,,,,,,,,,545.9140102999518,546.9323942000046,544.9180244999006,544.9180244999006,544.9180244999006,544.9180244999006,old_sceneIn_35.png,189,4.0,0.9949211999773979,,,ID010,0,2024-10-11_13h58.54.779,Surprise recog test,2023.1.3,60.04145258501814,
189,0,189,0,,,,,,,,,,,,,,,,,,,,,,,,,,,,,,,,,,548.108399599907,549.1245831999695,546.9323942000046,546.9323942000046,546.9323942000046,546.9323942000046,new_fruit_29.png,190,2.0,1.1762066000374034,,,ID010,0,2024-10-11_13h58.54.779,Surprise recog test,2023.1.3,60.04145258501814,
190,0,190,0,,,,,,,,,,,,,,,,,,,,,,,,,,,,,,,,,,550.4540303999092,551.4585401999066,549.1245831999695,549.1245831999695,549.1245831999695,549.1245831999695,new_fruit_23.png,191,5.0,1.3223191000288352,,,ID010,0,2024-10-11_13h58.54.779,Surprise recog test,2023.1.3,60.04145258501814,
191,0,191,0,,,,,,,,,,,,,,,,,,,,,,,,,,,,,,,,,,552.9163959999569,553.9436922000023,551.4585401999066,551.4585401999066,551.4585401999066,551.4585401999066,old_sceneIn_13.png,192,5.0,1.451589799951762,,,ID010,0,2024-10-11_13h58.54.779,Surprise recog test,2023.1.3,60.04145258501814,
192,0,192,0,,,,,,,,,,,,,,,,,,,,,,,,,,,,,,,,,,556.183879399905,557.214530199999,553.9436922000023,553.9436922000023,553.9436922000023,553.9436922000023,new_stationery_39.png,193,5.0,2.24198609997984,,,ID010,0,2024-10-11_13h58.54.779,Surprise recog test,2023.1.3,60.04145258501814,
193,0,193,0,,,,,,,,,,,,,,,,,,,,,,,,,,,,,,,,,,559.0384956999915,560.0597723999526,557.214530199999,557.214530199999,557.214530199999,557.214530199999,old_sceneOut_34.png,194,2.0,1.8261153999483213,,,ID010,0,2024-10-11_13h58.54.779,Surprise recog test,2023.1.3,60.04145258501814,
194,0,194,0,,,,,,,,,,,,,,,,,,,,,,,,,,,,,,,,,,561.9046094999649,562.9224176999414,560.0597723999526,560.0597723999526,560.0597723999526,560.0597723999526,old_fruit_38.png,195,5.0,1.8440878000110388,,,ID010,0,2024-10-11_13h58.54.779,Surprise recog test,2023.1.3,60.04145258501814,
195,0,195,0,,,,,,,,,,,,,,,,,,,,,,,,,,,,,,,,,,566.6676059999736,567.6899708999554,562.9224176999414,562.9224176999414,562.9224176999414,562.9224176999414,new_stationery_9.png,196,4.0,3.7403042999794707,,,ID010,0,2024-10-11_13h58.54.779,Surprise recog test,2023.1.3,60.04145258501814,
196,0,196,0,,,,,,,,,,,,,,,,,,,,,,,,,,,,,,,,,,568.9456647000043,569.9600007999688,567.6899708999554,567.6899708999554,567.6899708999554,567.6899708999554,new_sceneIn_42.png,197,4.0,1.2574778000125661,,,ID010,0,2024-10-11_13h58.54.779,Surprise recog test,2023.1.3,60.04145258501814,
197,0,197,0,,,,,,,,,,,,,,,,,,,,,,,,,,,,,,,,,,572.4158353999956,573.4476462999592,569.9600007999688,569.9600007999688,569.9600007999688,569.9600007999688,new_sceneIn_20.png,198,2.0,2.449797899927944,,,ID010,0,2024-10-11_13h58.54.779,Surprise recog test,2023.1.3,60.04145258501814,
198,0,198,0,,,,,,,,,,,,,,,,,,,,,,,,,,,,,,,,,,575.8825508999871,576.8995361999841,573.4476462999592,573.4476462999592,573.4476462999592,573.4476462999592,old_stationery_37.png,199,5.0,2.4388633999042213,,,ID010,0,2024-10-11_13h58.54.779,Surprise recog test,2023.1.3,60.04145258501814,
199,0,199,0,,,,,,,,,,,,,,,,,,,,,,,,,,,,,,,,,,578.1838116999716,579.2125257999869,576.8995361999841,576.8995361999841,576.8995361999841,576.8995361999841,old_stationery_6.png,200,4.0,1.2798334000399336,,,ID010,0,2024-10-11_13h58.54.779,Surprise recog test,2023.1.3,60.04145258501814,
200,0,200,0,,,,,,,,,,,,,,,,,,,,,,,,,,,,,,,,,,580.4957029999932,581.5023427999113,579.2125257999869,579.2125257999869,579.2125257999869,579.2125257999869,new_sceneOut_45.png,201,2.0,1.2804136000340804,,,ID010,0,2024-10-11_13h58.54.779,Surprise recog test,2023.1.3,60.04145258501814,
201,0,201,0,,,,,,,,,,,,,,,,,,,,,,,,,,,,,,,,,,582.8248166999547,583.8394641999621,581.5023427999113,581.5023427999113,581.5023427999113,581.5023427999113,new_sceneIn_29.png,202,5.0,1.3206942999968305,,,ID010,0,2024-10-11_13h58.54.779,Surprise recog test,2023.1.3,60.04145258501814,
202,0,202,0,,,,,,,,,,,,,,,,,,,,,,,,,,,,,,,,,,585.9859569999389,,583.8394641999621,583.8394641999621,583.8394641999621,583.8394641999621,old_fruit_35.png,203,1.0,2.142749599996023,,,ID010,0,2024-10-11_13h58.54.779,Surprise recog test,2023.1.3,60.04145258501814,
203,0,203,0,,,,,,,,,,,,,,,,,,,,,,,,,,,,,,,,,,588.163637499907,589.177481599967,587.0190908999648,587.0190908999648,587.0190908999648,587.0190908999648,old_fruit_12.png,204,1.0,1.1473175000865012,,,ID010,0,2024-10-11_13h58.54.779,Surprise recog test,2023.1.3,60.04145258501814,
204,0,204,0,,,,,,,,,,,,,,,,,,,,,,,,,,,,,,,,,,590.6376617999049,591.6511622999096,589.177481599967,589.177481599967,589.177481599967,589.177481599967,old_sceneIn_38.png,205,5.0,1.455203799996525,,,ID010,0,2024-10-11_13h58.54.779,Surprise recog test,2023.1.3,60.04145258501814,
205,0,205,0,,,,,,,,,,,,,,,,,,,,,,,,,,,,,,,,,,594.1055491999723,595.130248399917,591.6511622999096,591.6511622999096,591.6511622999096,591.6511622999096,old_fruit_24.png,206,4.0,2.456039799959399,,,ID010,0,2024-10-11_13h58.54.779,Surprise recog test,2023.1.3,60.04145258501814,
206,0,206,0,,,,,,,,,,,,,,,,,,,,,,,,,,,,,,,,,,596.714882100001,597.7456116999965,595.130248399917,595.130248399917,595.130248399917,595.130248399917,new_fruit_15.png,207,1.0,1.587597499950789,,,ID010,0,2024-10-11_13h58.54.779,Surprise recog test,2023.1.3,60.04145258501814,
207,0,207,0,,,,,,,,,,,,,,,,,,,,,,,,,,,,,,,,,,598.7814048998989,,597.7456116999965,597.7456116999965,597.7456116999965,597.7456116999965,old_fruit_47.png,208,1.0,1.0341714000096545,,,ID010,0,2024-10-11_13h58.54.779,Surprise recog test,2023.1.3,60.04145258501814,
208,0,208,0,,,,,,,,,,,,,,,,,,,,,,,,,,,,,,,,,,601.2234262999846,602.2496637000004,599.8149443999864,599.8149443999864,599.8149443999864,599.8149443999864,new_sceneOut_25.png,209,3.0,1.4111317000351846,,,ID010,0,2024-10-11_13h58.54.779,Surprise recog test,2023.1.3,60.04145258501814,
209,0,209,0,,,,,,,,,,,,,,,,,,,,,,,,,,,,,,,,,,604.8172589999158,605.8364096999867,602.2496637000004,602.2496637000004,602.2496637000004,602.2496637000004,new_sceneIn_1.png,210,5.0,2.5691378000192344,,,ID010,0,2024-10-11_13h58.54.779,Surprise recog test,2023.1.3,60.04145258501814,
210,0,210,0,,,,,,,,,,,,,,,,,,,,,,,,,,,,,,,,,,607.5580716999248,608.5883244998986,605.8364096999867,605.8364096999867,605.8364096999867,605.8364096999867,old_sceneOut_19.png,211,5.0,1.7233481999719515,,,ID010,0,2024-10-11_13h58.54.779,Surprise recog test,2023.1.3,60.04145258501814,
211,0,211,0,,,,,,,,,,,,,,,,,,,,,,,,,,,,,,,,,,609.6169897998916,610.6258391999872,608.5883244998986,608.5883244998986,608.5883244998986,608.5883244998986,new_sceneOut_19.png,212,5.0,1.0298485000384971,,,ID010,0,2024-10-11_13h58.54.779,Surprise recog test,2023.1.3,60.04145258501814,
212,0,212,0,,,,,,,,,,,,,,,,,,,,,,,,,,,,,,,,,,612.6642213999294,613.6923078999389,610.6258391999872,610.6258391999872,610.6258391999872,610.6258391999872,new_sceneOut_15.png,213,2.0,2.0344745999900624,,,ID010,0,2024-10-11_13h58.54.779,Surprise recog test,2023.1.3,60.04145258501814,
213,0,213,0,,,,,,,,,,,,,,,,,,,,,,,,,,,,,,,,,,615.1396122999722,616.1607387999538,613.6923078999389,613.6923078999389,613.6923078999389,613.6923078999389,new_stationery_45.png,214,4.0,1.44684990006499,,,ID010,0,2024-10-11_13h58.54.779,Surprise recog test,2023.1.3,60.04145258501814,
214,0,214,0,,,,,,,,,,,,,,,,,,,,,,,,,,,,,,,,,,617.8436924999114,618.862267499906,616.1607387999538,616.1607387999538,616.1607387999538,616.1607387999538,old_fruit_20.png,215,1.0,1.678447199985385,,,ID010,0,2024-10-11_13h58.54.779,Surprise recog test,2023.1.3,60.04145258501814,
215,0,215,0,,,,,,,,,,,,,,,,,,,,,,,,,,,,,,,,,,620.6307477999944,621.6471138999332,618.862267499906,618.862267499906,618.862267499906,618.862267499906,new_stationery_38.png,216,1.0,1.7717487000627443,,,ID010,0,2024-10-11_13h58.54.779,Surprise recog test,2023.1.3,60.04145258501814,
216,0,216,0,,,,,,,,,,,,,,,,,,,,,,,,,,,,,,,,,,623.4292885999894,624.4423895999789,621.6471138999332,621.6471138999332,621.6471138999332,621.6471138999332,new_fruit_19.png,217,4.0,1.783463100087829,,,ID010,0,2024-10-11_13h58.54.779,Surprise recog test,2023.1.3,60.04145258501814,
217,0,217,0,,,,,,,,,,,,,,,,,,,,,,,,,,,,,,,,,,625.5537660999689,,624.4423895999789,624.4423895999789,624.4423895999789,624.4423895999789,new_sceneOut_47.png,218,4.0,1.108510300051421,,,ID010,0,2024-10-11_13h58.54.779,Surprise recog test,2023.1.3,60.04145258501814,
218,0,218,0,,,,,,,,,,,,,,,,,,,,,,,,,,,,,,,,,,628.5938193999464,629.6291551999748,626.5851364999544,626.5851364999544,626.5851364999544,626.5851364999544,new_sceneOut_40.png,219,4.0,2.010101200081408,,,ID010,0,2024-10-11_13h58.54.779,Surprise recog test,2023.1.3,60.04145258501814,
219,0,219,0,,,,,,,,,,,,,,,,,,,,,,,,,,,,,,,,,,631.0455687999493,632.0687884999206,629.6291551999748,629.6291551999748,629.6291551999748,629.6291551999748,old_stationery_48.png,220,1.0,1.4184122000588104,,,ID010,0,2024-10-11_13h58.54.779,Surprise recog test,2023.1.3,60.04145258501814,
220,0,220,0,,,,,,,,,,,,,,,,,,,,,,,,,,,,,,,,,,633.3463717999402,634.3623677999713,632.0687884999206,632.0687884999206,632.0687884999206,632.0687884999206,old_stationery_39.png,221,5.0,1.2758903000503778,,,ID010,0,2024-10-11_13h58.54.779,Surprise recog test,2023.1.3,60.04145258501814,
221,0,221,0,,,,,,,,,,,,,,,,,,,,,,,,,,,,,,,,,,636.8902672999538,637.9009264999768,634.3623677999713,634.3623677999713,634.3623677999713,634.3623677999713,old_sceneIn_21.png,222,4.0,2.5254269000142813,,,ID010,0,2024-10-11_13h58.54.779,Surprise recog test,2023.1.3,60.04145258501814,
222,0,222,0,,,,,,,,,,,,,,,,,,,,,,,,,,,,,,,,,,639.5634409999475,,637.9009264999768,637.9009264999768,637.9009264999768,637.9009264999768,new_fruit_38.png,223,4.0,1.6572918000165373,,,ID010,0,2024-10-11_13h58.54.779,Surprise recog test,2023.1.3,60.04145258501814,
223,0,223,0,,,,,,,,,,,,,,,,,,,,,,,,,,,,,,,,,,641.680957699893,642.6864757000003,640.5824121999322,640.5824121999322,640.5824121999322,640.5824121999322,new_sceneOut_13.png,224,4.0,1.0934646000387147,,,ID010,0,2024-10-11_13h58.54.779,Surprise recog test,2023.1.3,60.04145258501814,
224,0,224,0,,,,,,,,,,,,,,,,,,,,,,,,,,,,,,,,,,644.205580299953,645.2242350999732,642.6864757000003,642.6864757000003,642.6864757000003,642.6864757000003,old_fruit_13.png,225,4.0,1.5170977000379935,,,ID010,0,2024-10-11_13h58.54.779,Surprise recog test,2023.1.3,60.04145258501814,
225,0,225,0,,,,,,,,,,,,,,,,,,,,,,,,,,,,,,,,,,646.6904975998914,647.7097451000009,645.2242350999732,645.2242350999732,645.2242350999732,645.2242350999732,new_sceneOut_27.png,226,4.0,1.4604007001034915,,,ID010,0,2024-10-11_13h58.54.779,Surprise recog test,2023.1.3,60.04145258501814,
226,0,226,0,,,,,,,,,,,,,,,,,,,,,,,,,,,,,,,,,,648.8234994999366,,647.7097451000009,647.7097451000009,647.7097451000009,647.7097451000009,new_sceneOut_1.png,227,2.0,1.1098708000499755,,,ID010,0,2024-10-11_13h58.54.779,Surprise recog test,2023.1.3,60.04145258501814,
227,0,227,0,,,,,,,,,,,,,,,,,,,,,,,,,,,,,,,,,,651.5746372999856,,649.8421224999474,649.8421224999474,649.8421224999474,649.8421224999474,new_sceneOut_37.png,228,5.0,1.7259242000291124,,,ID010,0,2024-10-11_13h58.54.779,Surprise recog test,2023.1.3,60.04145258501814,
228,0,228,0,,,,,,,,,,,,,,,,,,,,,,,,,,,,,,,,,,655.1564985999139,656.1773192998953,652.6081158999586,652.6081158999586,652.6081158999586,652.6081158999586,old_sceneIn_47.png,229,1.0,2.54817229998298,,,ID010,0,2024-10-11_13h58.54.779,Surprise recog test,2023.1.3,60.04145258501814,
229,0,229,0,,,,,,,,,,,,,,,,,,,,,,,,,,,,,,,,,,657.2173075999599,658.2318637999706,656.1773192998953,656.1773192998953,656.1773192998953,656.1773192998953,new_fruit_33.png,230,2.0,1.0398310999153182,,,ID010,0,2024-10-11_13h58.54.779,Surprise recog test,2023.1.3,60.04145258501814,
230,0,230,0,,,,,,,,,,,,,,,,,,,,,,,,,,,,,,,,,,659.2197301998967,660.2414699998917,658.2318637999706,658.2318637999706,658.2318637999706,658.2318637999706,new_sceneIn_26.png,231,5.0,0.9810591000132263,,,ID010,0,2024-10-11_13h58.54.779,Surprise recog test,2023.1.3,60.04145258501814,
231,0,231,0,,,,,,,,,,,,,,,,,,,,,,,,,,,,,,,,,,661.2503629999701,,660.2414699998917,660.2414699998917,660.2414699998917,660.2414699998917,old_sceneIn_43.png,232,5.0,1.004741400014609,,,ID010,0,2024-10-11_13h58.54.779,Surprise recog test,2023.1.3,60.04145258501814,
232,0,232,0,,,,,,,,,,,,,,,,,,,,,,,,,,,,,,,,,,663.8168307999149,664.833862499916,662.2844230999472,662.2844230999472,662.2844230999472,662.2844230999472,old_stationery_15.png,233,5.0,1.5327365000266582,,,ID010,0,2024-10-11_13h58.54.779,Surprise recog test,2023.1.3,60.04145258501814,
233,0,233,0,,,,,,,,,,,,,,,,,,,,,,,,,,,,,,,,,,666.12264029996,667.1548933999147,664.833862499916,664.833862499916,664.833862499916,664.833862499916,new_sceneOut_35.png,234,4.0,1.2902224999852479,,,ID010,0,2024-10-11_13h58.54.779,Surprise recog test,2023.1.3,60.04145258501814,
234,0,234,0,,,,,,,,,,,,,,,,,,,,,,,,,,,,,,,,,,668.6392975999042,,667.1548933999147,667.1548933999147,667.1548933999147,667.1548933999147,old_stationery_47.png,235,1.0,1.4851074001053348,,,ID010,0,2024-10-11_13h58.54.779,Surprise recog test,2023.1.3,60.04145258501814,
235,0,235,0,,,,,,,,,,,,,,,,,,,,,,,,,,,,,,,,,,671.5207924999995,672.539484799956,669.6564357999014,669.6564357999014,669.6564357999014,669.6564357999014,new_fruit_31.png,236,5.0,1.8602339999051765,,,ID010,0,2024-10-11_13h58.54.779,Surprise recog test,2023.1.3,60.04145258501814,
236,0,236,0,,,,,,,,,,,,,,,,,,,,,,,,,,,,,,,,,,674.1556670999853,675.1672688999679,672.539484799956,672.539484799956,672.539484799956,672.539484799956,old_stationery_19.png,237,5.0,1.6176889999769628,,,ID010,0,2024-10-11_13h58.54.779,Surprise recog test,2023.1.3,60.04145258501814,
237,0,237,0,,,,,,,,,,,,,,,,,,,,,,,,,,,,,,,,,,676.9830990999471,678.0020124999573,675.1672688999679,675.1672688999679,675.1672688999679,675.1672688999679,old_sceneOut_22.png,238,4.0,1.8111636999528855,,,ID010,0,2024-10-11_13h58.54.779,Surprise recog test,2023.1.3,60.04145258501814,
238,0,238,0,,,,,,,,,,,,,,,,,,,,,,,,,,,,,,,,,,679.4447008999996,680.452703399933,678.0020124999573,678.0020124999573,678.0020124999573,678.0020124999573,new_sceneIn_18.png,239,2.0,1.436378600075841,,,ID010,0,2024-10-11_13h58.54.779,Surprise recog test,2023.1.3,60.04145258501814,
239,0,239,0,,,,,,,,,,,,,,,,,,,,,,,,,,,,,,,,,,681.8799915999407,682.8849408999085,680.452703399933,680.452703399933,680.452703399933,680.452703399933,new_fruit_34.png,240,4.0,1.420724100084044,,,ID010,0,2024-10-11_13h58.54.779,Surprise recog test,2023.1.3,60.04145258501814,
240,0,240,0,,,,,,,,,,,,,,,,,,,,,,,,,,,,,,,,,,684.3566830999916,685.3702136999927,682.8849408999085,682.8849408999085,682.8849408999085,682.8849408999085,old_fruit_29.png,241,5.0,1.46398020000197,,,ID010,0,2024-10-11_13h58.54.779,Surprise recog test,2023.1.3,60.04145258501814,
241,0,241,0,,,,,,,,,,,,,,,,,,,,,,,,,,,,,,,,,,687.1177129999269,688.123787199962,685.3702136999927,685.3702136999927,685.3702136999927,685.3702136999927,old_sceneOut_35.png,242,4.0,1.737871199962683,,,ID010,0,2024-10-11_13h58.54.779,Surprise recog test,2023.1.3,60.04145258501814,
242,0,242,0,,,,,,,,,,,,,,,,,,,,,,,,,,,,,,,,,,690.0033666999079,691.0078047999414,688.123787199962,688.123787199962,688.123787199962,688.123787199962,new_fruit_45.png,243,4.0,1.872286600060761,,,ID010,0,2024-10-11_13h58.54.779,Surprise recog test,2023.1.3,60.04145258501814,
243,0,243,0,,,,,,,,,,,,,,,,,,,,,,,,,,,,,,,,,,692.588843000005,693.5940258000046,691.0078047999414,691.0078047999414,691.0078047999414,691.0078047999414,new_stationery_42.png,244,4.0,1.5706272999523208,,,ID010,0,2024-10-11_13h58.54.779,Surprise recog test,2023.1.3,60.04145258501814,
244,0,244,0,,,,,,,,,,,,,,,,,,,,,,,,,,,,,,,,,,695.7749474999728,696.7802241999889,693.5940258000046,693.5940258000046,693.5940258000046,693.5940258000046,old_fruit_49.png,245,1.0,2.17106069996953,,,ID010,0,2024-10-11_13h58.54.779,Surprise recog test,2023.1.3,60.04145258501814,
245,0,245,0,,,,,,,,,,,,,,,,,,,,,,,,,,,,,,,,,,698.9610152998939,699.9667683999287,696.7802241999889,696.7802241999889,696.7802241999889,696.7802241999889,old_sceneIn_9.png,246,4.0,2.1734440999571234,,,ID010,0,2024-10-11_13h58.54.779,Surprise recog test,2023.1.3,60.04145258501814,
246,0,246,0,,,,,,,,,,,,,,,,,,,,,,,,,,,,,,,,,,701.6965005999664,702.7011547998991,699.9667683999287,699.9667683999287,699.9667683999287,699.9667683999287,old_sceneOut_11.png,247,5.0,1.719243000028655,,,ID010,0,2024-10-11_13h58.54.779,Surprise recog test,2023.1.3,60.04145258501814,
247,0,247,0,,,,,,,,,,,,,,,,,,,,,,,,,,,,,,,,,,704.9991874999832,706.0043413999956,702.7011547998991,702.7011547998991,702.7011547998991,702.7011547998991,old_stationery_38.png,248,2.0,2.2877224000403658,,,ID010,0,2024-10-11_13h58.54.779,Surprise recog test,2023.1.3,60.04145258501814,
248,0,248,0,,,,,,,,,,,,,,,,,,,,,,,,,,,,,,,,,,707.3013356999727,708.3080886999378,706.0043413999956,706.0043413999956,706.0043413999956,706.0043413999956,old_sceneOut_5.png,249,2.0,1.286895199911669,,,ID010,0,2024-10-11_13h58.54.779,Surprise recog test,2023.1.3,60.04145258501814,
249,0,249,0,,,,,,,,,,,,,,,,,,,,,,,,,,,,,,,,,,710.5706022999948,711.57637289993,708.3080886999378,708.3080886999378,708.3080886999378,708.3080886999378,new_sceneIn_27.png,250,2.0,2.254771300009452,,,ID010,0,2024-10-11_13h58.54.779,Surprise recog test,2023.1.3,60.04145258501814,
250,0,250,0,,,,,,,,,,,,,,,,,,,,,,,,,,,,,,,,,,713.9086839999072,,711.57637289993,711.57637289993,711.57637289993,711.57637289993,new_stationery_16.png,251,4.0,2.3292784000514075,,,ID010,0,2024-10-11_13h58.54.779,Surprise recog test,2023.1.3,60.04145258501814,
251,0,251,0,,,,,,,,,,,,,,,,,,,,,,,,,,,,,,,,,,717.1092710999073,718.1138617999386,714.9274113998981,714.9274113998981,714.9274113998981,714.9274113998981,old_fruit_14.png,252,4.0,2.171571600018069,,,ID010,0,2024-10-11_13h58.54.779,Surprise recog test,2023.1.3,60.04145258501814,
252,0,252,0,,,,,,,,,,,,,,,,,,,,,,,,,,,,,,,,,,719.9162926999852,720.9329326999141,718.1138617999386,718.1138617999386,718.1138617999386,718.1138617999386,old_sceneOut_15.png,253,3.0,1.7974067999748513,,,ID010,0,2024-10-11_13h58.54.779,Surprise recog test,2023.1.3,60.04145258501814,
253,0,253,0,,,,,,,,,,,,,,,,,,,,,,,,,,,,,,,,,,722.630596300005,723.6361001000041,720.9329326999141,720.9329326999141,720.9329326999141,720.9329326999141,new_fruit_32.png,254,3.0,1.6873400000622496,,,ID010,0,2024-10-11_13h58.54.779,Surprise recog test,2023.1.3,60.04145258501814,
254,0,254,0,,,,,,,,,,,,,,,,,,,,,,,,,,,,,,,,,,725.4328239999013,726.4406644999981,723.6361001000041,723.6361001000041,723.6361001000041,723.6361001000041,old_stationery_5.png,255,1.0,1.7882189999800175,,,ID010,0,2024-10-11_13h58.54.779,Surprise recog test,2023.1.3,60.04145258501814,
255,0,255,0,,,,,,,,,,,,,,,,,,,,,,,,,,,,,,,,,,727.8538542999886,,726.4406644999981,726.4406644999981,726.4406644999981,726.4406644999981,old_fruit_4.png,256,4.0,1.4079374999273568,,,ID010,0,2024-10-11_13h58.54.779,Surprise recog test,2023.1.3,60.04145258501814,
256,0,256,0,,,,,,,,,,,,,,,,,,,,,,,,,,,,,,,,,,730.6420713999541,731.6749429999618,728.8758899999084,728.8758899999084,728.8758899999084,728.8758899999084,new_sceneOut_3.png,257,4.0,1.761880400008522,,,ID010,0,2024-10-11_13h58.54.779,Surprise recog test,2023.1.3,60.04145258501814,
257,0,257,0,,,,,,,,,,,,,,,,,,,,,,,,,,,,,,,,,,734.1068279999308,735.1297399000032,731.6749429999618,731.6749429999618,731.6749429999618,731.6749429999618,new_sceneIn_40.png,258,4.0,2.4262498000171036,,,ID010,0,2024-10-11_13h58.54.779,Surprise recog test,2023.1.3,60.04145258501814,
258,0,258,0,,,,,,,,,,,,,,,,,,,,,,,,,,,,,,,,,,736.643258899916,737.6623674998991,735.1297399000032,735.1297399000032,735.1297399000032,735.1297399000032,old_sceneOut_30.png,259,4.0,1.5156223999802023,,,ID010,0,2024-10-11_13h58.54.779,Surprise recog test,2023.1.3,60.04145258501814,
259,0,259,0,,,,,,,,,,,,,,,,,,,,,,,,,,,,,,,,,,739.115533299977,740.1443438999122,737.6623674998991,737.6623674998991,737.6623674998991,737.6623674998991,new_stationery_6.png,260,4.0,1.4554536000359803,,,ID010,0,2024-10-11_13h58.54.779,Surprise recog test,2023.1.3,60.04145258501814,
260,0,260,0,,,,,,,,,,,,,,,,,,,,,,,,,,,,,,,,,,741.7231308999471,742.7485886999639,740.1443438999122,740.1443438999122,740.1443438999122,740.1443438999122,old_sceneOut_46.png,261,4.0,1.5783506000880152,,,ID010,0,2024-10-11_13h58.54.779,Surprise recog test,2023.1.3,60.04145258501814,
261,0,261,0,,,,,,,,,,,,,,,,,,,,,,,,,,,,,,,,,,744.4562500999309,745.484253799892,742.7485886999639,742.7485886999639,742.7485886999639,742.7485886999639,old_sceneOut_26.png,262,4.0,1.7078870000550523,,,ID010,0,2024-10-11_13h58.54.779,Surprise recog test,2023.1.3,60.04145258501814,
262,0,262,0,,,,,,,,,,,,,,,,,,,,,,,,,,,,,,,,,,747.2345019999193,748.2484219999751,745.484253799892,745.484253799892,745.484253799892,745.484253799892,old_fruit_31.png,263,2.0,1.7449923999374732,,,ID010,0,2024-10-11_13h58.54.779,Surprise recog test,2023.1.3,60.04145258501814,
263,0,263,0,,,,,,,,,,,,,,,,,,,,,,,,,,,,,,,,,,750.3650308999931,751.3891794999363,748.2484219999751,748.2484219999751,748.2484219999751,748.2484219999751,old_stationery_24.png,264,4.0,2.115183399990201,,,ID010,0,2024-10-11_13h58.54.779,Surprise recog test,2023.1.3,60.04145258501814,
264,0,264,0,,,,,,,,,,,,,,,,,,,,,,,,,,,,,,,,,,753.012716999976,754.0407690999564,751.3891794999363,751.3891794999363,751.3891794999363,751.3891794999363,new_sceneIn_21.png,265,4.0,1.624858499970287,,,ID010,0,2024-10-11_13h58.54.779,Surprise recog test,2023.1.3,60.04145258501814,
265,0,265,0,,,,,,,,,,,,,,,,,,,,,,,,,,,,,,,,,,755.241180999903,756.2621363999788,754.0407690999564,754.0407690999564,754.0407690999564,754.0407690999564,new_sceneIn_30.png,266,4.0,1.1973927000071853,,,ID010,0,2024-10-11_13h58.54.779,Surprise recog test,2023.1.3,60.04145258501814,
266,0,266,0,,,,,,,,,,,,,,,,,,,,,,,,,,,,,,,,,,758.6205879999325,759.6564584999578,756.2621363999788,756.2621363999788,756.2621363999788,756.2621363999788,new_sceneIn_6.png,267,4.0,2.360167199978605,,,ID010,0,2024-10-11_13h58.54.779,Surprise recog test,2023.1.3,60.04145258501814,
267,0,267,0,,,,,,,,,,,,,,,,,,,,,,,,,,,,,,,,,,761.0473864999367,762.0585920999292,759.6564584999578,759.6564584999578,759.6564584999578,759.6564584999578,old_stationery_32.png,268,4.0,1.394233400002122,,,ID010,0,2024-10-11_13h58.54.779,Surprise recog test,2023.1.3,60.04145258501814,
268,0,268,0,,,,,,,,,,,,,,,,,,,,,,,,,,,,,,,,,,763.3145173999947,764.3369472000049,762.0585920999292,762.0585920999292,762.0585920999292,762.0585920999292,new_fruit_47.png,269,4.0,1.2495956999482587,,,ID010,0,2024-10-11_13h58.54.779,Surprise recog test,2023.1.3,60.04145258501814,
269,0,269,0,,,,,,,,,,,,,,,,,,,,,,,,,,,,,,,,,,765.5352011999348,,764.3369472000049,764.3369472000049,764.3369472000049,764.3369472000049,new_sceneOut_31.png,270,4.0,1.1994331000605598,,,ID010,0,2024-10-11_13h58.54.779,Surprise recog test,2023.1.3,60.04145258501814,
270,0,270,0,,,,,,,,,,,,,,,,,,,,,,,,,,,,,,,,,,768.8642440999392,769.8768117999425,766.5651827999391,766.5651827999391,766.5651827999391,766.5651827999391,old_sceneIn_7.png,271,1.0,2.298353899968788,,,ID010,0,2024-10-11_13h58.54.779,Surprise recog test,2023.1.3,60.04145258501814,
271,0,271,0,,,,,,,,,,,,,,,,,,,,,,,,,,,,,,,,,,771.59157769999,,769.8768117999425,769.8768117999425,769.8768117999425,769.8768117999425,old_stationery_35.png,272,4.0,1.7106983000412583,,,ID010,0,2024-10-11_13h58.54.779,Surprise recog test,2023.1.3,60.04145258501814,
272,0,272,0,,,,,,,,,,,,,,,,,,,,,,,,,,,,,,,,,,774.6375223000068,775.6492054999107,772.612865199917,772.612865199917,772.612865199917,772.612865199917,old_stationery_34.png,273,3.0,2.0219667999772355,,,ID010,0,2024-10-11_13h58.54.779,Surprise recog test,2023.1.3,60.04145258501814,
273,0,273,0,,,,,,,,,,,,,,,,,,,,,,,,,,,,,,,,,,777.4775766999228,778.501515599899,775.6492054999107,775.6492054999107,775.6492054999107,775.6492054999107,old_fruit_1.png,274,5.0,1.824409699998796,,,ID010,0,2024-10-11_13h58.54.779,Surprise recog test,2023.1.3,60.04145258501814,
274,0,274,0,,,,,,,,,,,,,,,,,,,,,,,,,,,,,,,,,,780.229203099967,781.2463030999061,778.501515599899,778.501515599899,778.501515599899,778.501515599899,old_fruit_23.png,275,1.0,1.7323535000905395,,,ID010,0,2024-10-11_13h58.54.779,Surprise recog test,2023.1.3,60.04145258501814,
275,0,275,0,,,,,,,,,,,,,,,,,,,,,,,,,,,,,,,,,,783.4840272999136,,781.2463030999061,781.2463030999061,781.2463030999061,781.2463030999061,old_sceneIn_17.png,276,4.0,2.240248900023289,,,ID010,0,2024-10-11_13h58.54.779,Surprise recog test,2023.1.3,60.04145258501814,
276,0,276,0,,,,,,,,,,,,,,,,,,,,,,,,,,,,,,,,,,786.446964200004,787.4648374998942,784.512305399985,784.512305399985,784.512305399985,784.512305399985,new_stationery_15.png,277,5.0,1.93211870000232,,,ID010,0,2024-10-11_13h58.54.779,Surprise recog test,2023.1.3,60.04145258501814,
277,0,277,0,,,,,,,,,,,,,,,,,,,,,,,,,,,,,,,,,,788.7023475999013,789.7219877999742,787.4648374998942,787.4648374998942,787.4648374998942,787.4648374998942,old_stationery_9.png,278,5.0,1.2350753999780864,,,ID010,0,2024-10-11_13h58.54.779,Surprise recog test,2023.1.3,60.04145258501814,
278,0,278,0,,,,,,,,,,,,,,,,,,,,,,,,,,,,,,,,,,791.4458682999248,792.4633610999444,789.7219877999742,789.7219877999742,789.7219877999742,789.7219877999742,old_sceneOut_32.png,279,2.0,1.7242607000516728,,,ID010,0,2024-10-11_13h58.54.779,Surprise recog test,2023.1.3,60.04145258501814,
279,0,279,0,,,,,,,,,,,,,,,,,,,,,,,,,,,,,,,,,,794.1399937999668,795.1483777998947,792.4633610999444,792.4633610999444,792.4633610999444,792.4633610999444,new_stationery_4.png,280,1.0,1.6676994999870658,,,ID010,0,2024-10-11_13h58.54.779,Surprise recog test,2023.1.3,60.04145258501814,
280,0,280,0,,,,,,,,,,,,,,,,,,,,,,,,,,,,,,,,,,796.475314399926,797.4940749999369,795.1483777998947,795.1483777998947,795.1483777998947,795.1483777998947,old_fruit_45.png,281,5.0,1.3186583000933751,,,ID010,0,2024-10-11_13h58.54.779,Surprise recog test,2023.1.3,60.04145258501814,
281,0,281,0,,,,,,,,,,,,,,,,,,,,,,,,,,,,,,,,,,798.6371140999254,799.656022699899,797.4940749999369,797.4940749999369,797.4940749999369,797.4940749999369,new_sceneOut_30.png,282,5.0,1.144787999917753,,,ID010,0,2024-10-11_13h58.54.779,Surprise recog test,2023.1.3,60.04145258501814,
282,0,282,0,,,,,,,,,,,,,,,,,,,,,,,,,,,,,,,,,,800.9336093999445,,799.656022699899,799.656022699899,799.656022699899,799.656022699899,old_sceneIn_33.png,283,5.0,1.2752472000429407,,,ID010,0,2024-10-11_13h58.54.779,Surprise recog test,2023.1.3,60.04145258501814,
283,0,283,0,,,,,,,,,,,,,,,,,,,,,,,,,,,,,,,,,,803.6866152998991,804.7038534999592,801.9642455999274,801.9642455999274,801.9642455999274,801.9642455999274,old_stationery_16.png,284,5.0,1.7228376000421122,,,ID010,0,2024-10-11_13h58.54.779,Surprise recog test,2023.1.3,60.04145258501814,
284,0,284,0,,,,,,,,,,,,,,,,,,,,,,,,,,,,,,,,,,806.1512687999057,807.1719703999115,804.7038534999592,804.7038534999592,804.7038534999592,804.7038534999592,new_fruit_27.png,285,4.0,1.4435083999997005,,,ID010,0,2024-10-11_13h58.54.779,Surprise recog test,2023.1.3,60.04145258501814,
285,0,285,0,,,,,,,,,,,,,,,,,,,,,,,,,,,,,,,,,,808.2518131999532,809.2764761999715,807.1719703999115,807.1719703999115,807.1719703999115,807.1719703999115,old_stationery_20.png,286,4.0,1.0816906999098137,,,ID010,0,2024-10-11_13h58.54.779,Surprise recog test,2023.1.3,60.04145258501814,
286,0,286,0,,,,,,,,,,,,,,,,,,,,,,,,,,,,,,,,,,810.5705997999758,811.5856541999383,809.2764761999715,809.2764761999715,809.2764761999715,809.2764761999715,old_sceneOut_44.png,287,4.0,1.2989799999631941,,,ID010,0,2024-10-11_13h58.54.779,Surprise recog test,2023.1.3,60.04145258501814,
287,0,287,0,,,,,,,,,,,,,,,,,,,,,,,,,,,,,,,,,,813.5328764999285,814.5624389000004,811.5856541999383,811.5856541999383,811.5856541999383,811.5856541999383,old_fruit_10.png,288,5.0,1.9493572000646964,,,ID010,0,2024-10-11_13h58.54.779,Surprise recog test,2023.1.3,60.04145258501814,
288,0,288,0,,,,,,,,,,,,,,,,,,,,,,,,,,,,,,,,,,815.3892010999843,816.3978883998934,814.5624389000004,814.5624389000004,814.5624389000004,814.5624389000004,new_sceneOut_16.png,289,5.0,0.8287821999983862,,,ID010,0,2024-10-11_13h58.54.779,Surprise recog test,2023.1.3,60.04145258501814,
289,0,289,0,,,,,,,,,,,,,,,,,,,,,,,,,,,,,,,,,,817.7597718999023,818.7855266999686,816.3978883998934,816.3978883998934,816.3978883998934,816.3978883998934,old_stationery_44.png,290,4.0,1.358440599986352,,,ID010,0,2024-10-11_13h58.54.779,Surprise recog test,2023.1.3,60.04145258501814,
290,0,290,0,,,,,,,,,,,,,,,,,,,,,,,,,,,,,,,,,,820.1117091999622,821.1197564000031,818.7855266999686,818.7855266999686,818.7855266999686,818.7855266999686,new_fruit_30.png,291,4.0,1.3262603000039235,,,ID010,0,2024-10-11_13h58.54.779,Surprise recog test,2023.1.3,60.04145258501814,
291,0,291,0,,,,,,,,,,,,,,,,,,,,,,,,,,,,,,,,,,822.2784022999695,823.2996696999762,821.1197564000031,821.1197564000031,821.1197564000031,821.1197564000031,new_sceneOut_38.png,292,2.0,1.152026699972339,,,ID010,0,2024-10-11_13h58.54.779,Surprise recog test,2023.1.3,60.04145258501814,
292,0,292,0,,,,,,,,,,,,,,,,,,,,,,,,,,,,,,,,,,824.0565199999837,825.0737574999221,823.2996696999762,823.2996696999762,823.2996696999762,823.2996696999762,old_sceneOut_9.png,293,3.0,0.7588112999219447,,,ID010,0,2024-10-11_13h58.54.779,Surprise recog test,2023.1.3,60.04145258501814,
293,0,293,0,,,,,,,,,,,,,,,,,,,,,,,,,,,,,,,,,,826.576365099987,827.6071042999392,825.0737574999221,825.0737574999221,825.0737574999221,825.0737574999221,new_stationery_32.png,294,5.0,1.4974110999610275,,,ID010,0,2024-10-11_13h58.54.779,Surprise recog test,2023.1.3,60.04145258501814,
294,0,294,0,,,,,,,,,,,,,,,,,,,,,,,,,,,,,,,,,,828.5657781999325,829.5869522999274,827.6071042999392,827.6071042999392,827.6071042999392,827.6071042999392,new_stationery_10.png,295,5.0,0.9618306000484154,,,ID010,0,2024-10-11_13h58.54.779,Surprise recog test,2023.1.3,60.04145258501814,
295,0,295,0,,,,,,,,,,,,,,,,,,,,,,,,,,,,,,,,,,830.9655954999616,831.9919345999369,829.5869522999274,829.5869522999274,829.5869522999274,829.5869522999274,new_fruit_2.png,296,1.0,1.3808472000528127,,,ID010,0,2024-10-11_13h58.54.779,Surprise recog test,2023.1.3,60.04145258501814,
296,0,296,0,,,,,,,,,,,,,,,,,,,,,,,,,,,,,,,,,,833.1188846000005,834.1273119999096,831.9919345999369,831.9919345999369,831.9919345999369,831.9919345999369,old_stationery_36.png,297,4.0,1.1259659000206739,,,ID010,0,2024-10-11_13h58.54.779,Surprise recog test,2023.1.3,60.04145258501814,
297,0,297,0,,,,,,,,,,,,,,,,,,,,,,,,,,,,,,,,,,835.5045227999799,836.5246879999759,834.1273119999096,834.1273119999096,834.1273119999096,834.1273119999096,old_fruit_48.png,298,4.0,1.3730477000353858,,,ID010,0,2024-10-11_13h58.54.779,Surprise recog test,2023.1.3,60.04145258501814,
298,0,298,0,,,,,,,,,,,,,,,,,,,,,,,,,,,,,,,,,,837.6386653999798,838.6642255999614,836.5246879999759,836.5246879999759,836.5246879999759,836.5246879999759,old_sceneIn_39.png,299,5.0,1.1158303000265732,,,ID010,0,2024-10-11_13h58.54.779,Surprise recog test,2023.1.3,60.04145258501814,
299,0,299,0,,,,,,,,,,,,,,,,,,,,,,,,,,,,,,,,,,840.0914387999801,841.1144669000059,838.6642255999614,838.6642255999614,838.6642255999614,838.6642255999614,new_sceneOut_6.png,300,3.0,1.4315816999878734,,,ID010,0,2024-10-11_13h58.54.779,Surprise recog test,2023.1.3,60.04145258501814,
300,0,300,0,,,,,,,,,,,,,,,,,,,,,,,,,,,,,,,,,,842.0182380999904,843.0393251999049,841.1144669000059,841.1144669000059,841.1144669000059,841.1144669000059,old_sceneOut_40.png,301,2.0,0.9055159999988973,,,ID010,0,2024-10-11_13h58.54.779,Surprise recog test,2023.1.3,60.04145258501814,
301,0,301,0,,,,,,,,,,,,,,,,,,,,,,,,,,,,,,,,,,845.3642348999856,846.3713622000068,843.0393251999049,843.0393251999049,843.0393251999049,843.0393251999049,new_sceneOut_43.png,302,5.0,2.3219225999200717,,,ID010,0,2024-10-11_13h58.54.779,Surprise recog test,2023.1.3,60.04145258501814,
302,0,302,0,,,,,,,,,,,,,,,,,,,,,,,,,,,,,,,,,,848.5316360999132,849.5432551999111,846.3713622000068,846.3713622000068,846.3713622000068,846.3713622000068,new_sceneIn_28.png,303,1.0,2.154104399960488,,,ID010,0,2024-10-11_13h58.54.779,Surprise recog test,2023.1.3,60.04145258501814,
303,0,303,0,,,,,,,,,,,,,,,,,,,,,,,,,,,,,,,,,,851.9049188999925,852.9232217998942,849.5432551999111,849.5432551999111,849.5432551999111,849.5432551999111,new_fruit_22.png,304,4.0,2.3556003000121564,,,ID010,0,2024-10-11_13h58.54.779,Surprise recog test,2023.1.3,60.04145258501814,
304,0,304,0,,,,,,,,,,,,,,,,,,,,,,,,,,,,,,,,,,854.1522358999355,855.1761826999718,852.9232217998942,852.9232217998942,852.9232217998942,852.9232217998942,old_sceneIn_48.png,305,5.0,1.2310498000588268,,,ID010,0,2024-10-11_13h58.54.779,Surprise recog test,2023.1.3,60.04145258501814,
305,0,305,0,,,,,,,,,,,,,,,,,,,,,,,,,,,,,,,,,,856.8737738999771,857.8999329999788,855.1761826999718,855.1761826999718,855.1761826999718,855.1761826999718,new_sceneIn_43.png,306,2.0,1.6998537000035867,,,ID010,0,2024-10-11_13h58.54.779,Surprise recog test,2023.1.3,60.04145258501814,
306,0,306,0,,,,,,,,,,,,,,,,,,,,,,,,,,,,,,,,,,859.6292893999489,860.641558400006,857.8999329999788,857.8999329999788,857.8999329999788,857.8999329999788,old_sceneOut_6.png,307,3.0,1.7328044000314549,,,ID010,0,2024-10-11_13h58.54.779,Surprise recog test,2023.1.3,60.04145258501814,
307,0,307,0,,,,,,,,,,,,,,,,,,,,,,,,,,,,,,,,,,862.5048715999583,863.5180118998978,860.641558400006,860.641558400006,860.641558400006,860.641558400006,old_sceneIn_3.png,308,4.0,1.85771630005911,,,ID010,0,2024-10-11_13h58.54.779,Surprise recog test,2023.1.3,60.04145258501814,
308,0,308,0,,,,,,,,,,,,,,,,,,,,,,,,,,,,,,,,,,865.3288895000005,866.3518236998934,863.5180118998978,863.5180118998978,863.5180118998978,863.5180118998978,new_fruit_28.png,309,4.0,1.804520900011994,,,ID010,0,2024-10-11_13h58.54.779,Surprise recog test,2023.1.3,60.04145258501814,
309,0,309,0,,,,,,,,,,,,,,,,,,,,,,,,,,,,,,,,,,867.9009381999495,868.9206729999278,866.3518236998934,866.3518236998934,866.3518236998934,866.3518236998934,new_fruit_50.png,310,4.0,1.546712200040929,,,ID010,0,2024-10-11_13h58.54.779,Surprise recog test,2023.1.3,60.04145258501814,
310,0,310,0,,,,,,,,,,,,,,,,,,,,,,,,,,,,,,,,,,871.7212085999781,872.7459030000027,868.9206729999278,868.9206729999278,868.9206729999278,868.9206729999278,old_stationery_45.png,311,2.0,2.7948372999671847,,,ID010,0,2024-10-11_13h58.54.779,Surprise recog test,2023.1.3,60.04145258501814,
311,0,311,0,,,,,,,,,,,,,,,,,,,,,,,,,,,,,,,,,,876.2425562998978,877.262471199967,872.7459030000027,872.7459030000027,872.7459030000027,872.7459030000027,new_sceneIn_11.png,312,5.0,3.4964218999957666,,,ID010,0,2024-10-11_13h58.54.779,Surprise recog test,2023.1.3,60.04145258501814,
312,0,312,0,,,,,,,,,,,,,,,,,,,,,,,,,,,,,,,,,,878.5267127999105,879.547179199988,877.262471199967,877.262471199967,877.262471199967,877.262471199967,new_sceneOut_36.png,313,5.0,1.2663024999201298,,,ID010,0,2024-10-11_13h58.54.779,Surprise recog test,2023.1.3,60.04145258501814,
313,0,313,0,,,,,,,,,,,,,,,,,,,,,,,,,,,,,,,,,,884.5482892999426,,879.547179199988,879.547179199988,879.547179199988,879.547179199988,new_stationery_36.png,314,None,None,884.5332794999704,,ID010,0,2024-10-11_13h58.54.779,Surprise recog test,2023.1.3,60.04145258501814,
314,0,314,0,,,,,,,,,,,,,,,,,,,,,,,,,,,,,,,,,,887.1506489999592,888.1707608998986,885.5674697998911,885.5674697998911,885.5674697998911,885.5674697998911,new_fruit_17.png,315,2.0,1.5837857000296935,,,ID010,0,2024-10-11_13h58.54.779,Surprise recog test,2023.1.3,60.04145258501814,
315,0,315,0,,,,,,,,,,,,,,,,,,,,,,,,,,,,,,,,,,890.149472799967,891.1619535000063,888.1707608998986,888.1707608998986,888.1707608998986,888.1707608998986,old_fruit_41.png,316,5.0,1.9782763000112027,,,ID010,0,2024-10-11_13h58.54.779,Surprise recog test,2023.1.3,60.04145258501814,
316,0,316,0,,,,,,,,,,,,,,,,,,,,,,,,,,,,,,,,,,895.5077039999887,896.5295950999716,891.1619535000063,891.1619535000063,891.1619535000063,891.1619535000063,new_sceneOut_7.png,317,4.0,4.339410999906249,,,ID010,0,2024-10-11_13h58.54.779,Surprise recog test,2023.1.3,60.04145258501814,
317,0,317,0,,,,,,,,,,,,,,,,,,,,,,,,,,,,,,,,,,899.4045406999066,900.4187245999929,896.5295950999716,896.5295950999716,896.5295950999716,896.5295950999716,new_fruit_48.png,318,3.0,2.878895999980159,,,ID010,0,2024-10-11_13h58.54.779,Surprise recog test,2023.1.3,60.04145258501814,
318,0,318,0,,,,,,,,,,,,,,,,,,,,,,,,,,,,,,,,,,902.413200299954,903.4297844999237,900.4187245999929,900.4187245999929,900.4187245999929,900.4187245999929,new_stationery_22.png,319,2.0,1.990309700020589,,,ID010,0,2024-10-11_13h58.54.779,Surprise recog test,2023.1.3,60.04145258501814,
319,0,319,0,,,,,,,,,,,,,,,,,,,,,,,,,,,,,,,,,,906.3502466999926,907.3865391999716,903.4297844999237,903.4297844999237,903.4297844999237,903.4297844999237,new_sceneOut_22.png,320,2.0,2.9205308000091463,,,ID010,0,2024-10-11_13h58.54.779,Surprise recog test,2023.1.3,60.04145258501814,
320,0,320,0,,,,,,,,,,,,,,,,,,,,,,,,,,,,,,,,,,910.9705447999295,911.9763325999957,907.3865391999716,907.3865391999716,907.3865391999716,907.3865391999716,new_sceneIn_8.png,321,4.0,3.592356700100936,,,ID010,0,2024-10-11_13h58.54.779,Surprise recog test,2023.1.3,60.04145258501814,
321,0,321,0,,,,,,,,,,,,,,,,,,,,,,,,,,,,,,,,,,913.4410856999457,914.4606898999773,911.9763325999957,911.9763325999957,911.9763325999957,911.9763325999957,old_sceneIn_25.png,322,2.0,1.4517410999396816,,,ID010,0,2024-10-11_13h58.54.779,Surprise recog test,2023.1.3,60.04145258501814,
322,0,322,0,,,,,,,,,,,,,,,,,,,,,,,,,,,,,,,,,,916.0324300999055,917.0565303999465,914.4606898999773,914.4606898999773,914.4606898999773,914.4606898999773,new_stationery_21.png,323,4.0,1.570918200071901,,,ID010,0,2024-10-11_13h58.54.779,Surprise recog test,2023.1.3,60.04145258501814,
323,0,323,0,,,,,,,,,,,,,,,,,,,,,,,,,,,,,,,,,,918.6952157999622,919.7000322999666,917.0565303999465,917.0565303999465,917.0565303999465,917.0565303999465,old_sceneOut_45.png,324,3.0,1.6395812999689952,,,ID010,0,2024-10-11_13h58.54.779,Surprise recog test,2023.1.3,60.04145258501814,
324,0,324,0,,,,,,,,,,,,,,,,,,,,,,,,,,,,,,,,,,921.9436178999022,922.9678379999241,919.7000322999666,919.7000322999666,919.7000322999666,919.7000322999666,new_stationery_37.png,325,4.0,2.2405924999620765,,,ID010,0,2024-10-11_13h58.54.779,Surprise recog test,2023.1.3,60.04145258501814,
325,0,325,0,,,,,,,,,,,,,,,,,,,,,,,,,,,,,,,,,,925.3985835999483,926.4132155999541,922.9678379999241,922.9678379999241,922.9678379999241,922.9678379999241,old_sceneOut_3.png,326,4.0,2.4317527000093833,,,ID010,0,2024-10-11_13h58.54.779,Surprise recog test,2023.1.3,60.04145258501814,
326,0,326,0,,,,,,,,,,,,,,,,,,,,,,,,,,,,,,,,,,929.5973629999207,930.6246458999813,926.4132155999541,926.4132155999541,926.4132155999541,926.4132155999541,old_fruit_46.png,327,4.0,3.1824631000636145,,,ID010,0,2024-10-11_13h58.54.779,Surprise recog test,2023.1.3,60.04145258501814,
327,0,327,0,,,,,,,,,,,,,,,,,,,,,,,,,,,,,,,,,,932.4667351999087,933.4913762999931,930.6246458999813,930.6246458999813,930.6246458999813,930.6246458999813,old_sceneOut_41.png,328,3.0,1.8446330999722704,,,ID010,0,2024-10-11_13h58.54.779,Surprise recog test,2023.1.3,60.04145258501814,
328,0,328,0,,,,,,,,,,,,,,,,,,,,,,,,,,,,,,,,,,935.5856983999256,936.6013476999942,933.4913762999931,933.4913762999931,933.4913762999931,933.4913762999931,old_sceneIn_46.png,329,5.0,2.092657099943608,,,ID010,0,2024-10-11_13h58.54.779,Surprise recog test,2023.1.3,60.04145258501814,
329,0,329,0,,,,,,,,,,,,,,,,,,,,,,,,,,,,,,,,,,938.1793616999639,,936.6013476999942,936.6013476999942,936.6013476999942,936.6013476999942,new_sceneIn_15.png,330,5.0,1.5756308999843895,,,ID010,0,2024-10-11_13h58.54.779,Surprise recog test,2023.1.3,60.04145258501814,
330,0,330,0,,,,,,,,,,,,,,,,,,,,,,,,,,,,,,,,,,940.6483580999775,,939.2076752999565,939.2076752999565,939.2076752999565,939.2076752999565,old_fruit_3.png,331,5.0,1.4410436999751255,,,ID010,0,2024-10-11_13h58.54.779,Surprise recog test,2023.1.3,60.04145258501814,
331,0,331,0,,,,,,,,,,,,,,,,,,,,,,,,,,,,,,,,,,944.5233411999652,945.5469956999877,941.6697251999285,941.6697251999285,941.6697251999285,941.6697251999285,old_sceneOut_50.png,332,5.0,2.8498532000230625,,,ID010,0,2024-10-11_13h58.54.779,Surprise recog test,2023.1.3,60.04145258501814,
332,0,332,0,,,,,,,,,,,,,,,,,,,,,,,,,,,,,,,,,,947.9847023999318,949.0080511999549,945.5469956999877,945.5469956999877,945.5469956999877,945.5469956999877,old_sceneIn_2.png,333,5.0,2.434784200042486,,,ID010,0,2024-10-11_13h58.54.779,Surprise recog test,2023.1.3,60.04145258501814,
333,0,333,0,,,,,,,,,,,,,,,,,,,,,,,,,,,,,,,,,,950.7455455999589,951.7779820999131,949.0080511999549,949.0080511999549,949.0080511999549,949.0080511999549,new_sceneIn_45.png,334,4.0,1.7432033999357373,,,ID010,0,2024-10-11_13h58.54.779,Surprise recog test,2023.1.3,60.04145258501814,
334,0,334,0,,,,,,,,,,,,,,,,,,,,,,,,,,,,,,,,,,953.3724185999017,954.3823190999683,951.7779820999131,951.7779820999131,951.7779820999131,951.7779820999131,new_stationery_44.png,335,5.0,1.592872399953194,,,ID010,0,2024-10-11_13h58.54.779,Surprise recog test,2023.1.3,60.04145258501814,
335,0,335,0,,,,,,,,,,,,,,,,,,,,,,,,,,,,,,,,,,955.3943392999936,,954.3823190999683,954.3823190999683,954.3823190999683,954.3823190999683,old_sceneOut_8.png,336,4.0,1.0095226999837905,,,ID010,0,2024-10-11_13h58.54.779,Surprise recog test,2023.1.3,60.04145258501814,
336,0,336,0,,,,,,,,,,,,,,,,,,,,,,,,,,,,,,,,,,959.7334245999809,960.749116599909,956.4226055999752,956.4226055999752,956.4226055999752,956.4226055999752,new_sceneIn_10.png,337,5.0,3.312434099963866,,,ID010,0,2024-10-11_13h58.54.779,Surprise recog test,2023.1.3,60.04145258501814,
337,0,337,0,,,,,,,,,,,,,,,,,,,,,,,,,,,,,,,,,,962.9744906999404,964.0049461999442,960.749116599909,960.749116599909,960.749116599909,960.749116599909,new_sceneOut_39.png,338,5.0,2.2217778998892754,,,ID010,0,2024-10-11_13h58.54.779,Surprise recog test,2023.1.3,60.04145258501814,
338,0,338,0,,,,,,,,,,,,,,,,,,,,,,,,,,,,,,,,,,965.3006414999254,966.3085574998986,964.0049461999442,964.0049461999442,964.0049461999442,964.0049461999442,old_fruit_32.png,339,5.0,1.2992109999759123,,,ID010,0,2024-10-11_13h58.54.779,Surprise recog test,2023.1.3,60.04145258501814,
339,0,339,0,,,,,,,,,,,,,,,,,,,,,,,,,,,,,,,,,,969.6296198999044,970.6400296000065,966.3085574998986,966.3085574998986,966.3085574998986,966.3085574998986,old_sceneIn_45.png,340,5.0,3.3148879000218585,,,ID010,0,2024-10-11_13h58.54.779,Surprise recog test,2023.1.3,60.04145258501814,
340,0,340,0,,,,,,,,,,,,,,,,,,,,,,,,,,,,,,,,,,974.106304799905,975.1240902999416,970.6400296000065,970.6400296000065,970.6400296000065,970.6400296000065,old_sceneIn_20.png,341,5.0,3.4571911999955773,,,ID010,0,2024-10-11_13h58.54.779,Surprise recog test,2023.1.3,60.04145258501814,
341,0,341,0,,,,,,,,,,,,,,,,,,,,,,,,,,,,,,,,,,977.184081299929,978.1973388999468,975.1240902999416,975.1240902999416,975.1240902999416,975.1240902999416,new_sceneOut_18.png,342,4.0,2.061398799996823,,,ID010,0,2024-10-11_13h58.54.779,Surprise recog test,2023.1.3,60.04145258501814,
342,0,342,0,,,,,,,,,,,,,,,,,,,,,,,,,,,,,,,,,,979.2669098000042,980.2828026999487,978.1973388999468,978.1973388999468,978.1973388999468,978.1973388999468,old_stationery_21.png,343,4.0,1.0662882999749854,,,ID010,0,2024-10-11_13h58.54.779,Surprise recog test,2023.1.3,60.04145258501814,
343,0,343,0,,,,,,,,,,,,,,,,,,,,,,,,,,,,,,,,,,981.8658239999786,,980.2828026999487,980.2828026999487,980.2828026999487,980.2828026999487,old_sceneIn_1.png,344,5.0,1.5776980000082403,,,ID010,0,2024-10-11_13h58.54.779,Surprise recog test,2023.1.3,60.04145258501814,
344,0,344,0,,,,,,,,,,,,,,,,,,,,,,,,,,,,,,,,,,985.147212299984,986.1751947999,982.887230399996,982.887230399996,982.887230399996,982.887230399996,old_sceneIn_32.png,345,5.0,2.2556184999411926,,,ID010,0,2024-10-11_13h58.54.779,Surprise recog test,2023.1.3,60.04145258501814,
345,0,345,0,,,,,,,,,,,,,,,,,,,,,,,,,,,,,,,,,,989.5911298999563,990.6092137999367,986.1751947999,986.1751947999,986.1751947999,986.1751947999,old_fruit_2.png,346,1.0,3.41903370001819,,,ID010,0,2024-10-11_13h58.54.779,Surprise recog test,2023.1.3,60.04145258501814,
346,0,346,0,,,,,,,,,,,,,,,,,,,,,,,,,,,,,,,,,,992.1836092999438,993.2063729999354,990.6092137999367,990.6092137999367,990.6092137999367,990.6092137999367,new_sceneOut_5.png,347,4.0,1.5711426000343636,,,ID010,0,2024-10-11_13h58.54.779,Surprise recog test,2023.1.3,60.04145258501814,
347,0,347,0,,,,,,,,,,,,,,,,,,,,,,,,,,,,,,,,,,994.9093669999857,,993.2063729999354,993.2063729999354,993.2063729999354,993.2063729999354,old_stationery_10.png,348,1.0,1.7046903000446036,,,ID010,0,2024-10-11_13h58.54.779,Surprise recog test,2023.1.3,60.04145258501814,
348,0,348,0,,,,,,,,,,,,,,,,,,,,,,,,,,,,,,,,,,997.658607399906,998.6786606999813,995.9450166999595,995.9450166999595,995.9450166999595,995.9450166999595,old_sceneOut_4.png,349,5.0,1.7162916000233963,,,ID010,0,2024-10-11_13h58.54.779,Surprise recog test,2023.1.3,60.04145258501814,
349,0,349,0,,,,,,,,,,,,,,,,,,,,,,,,,,,,,,,,,,1001.2485265999567,,998.6786606999813,998.6786606999813,998.6786606999813,998.6786606999813,old_sceneIn_27.png,350,1.0,2.5723474000114948,,,ID010,0,2024-10-11_13h58.54.779,Surprise recog test,2023.1.3,60.04145258501814,
350,0,350,0,,,,,,,,,,,,,,,,,,,,,,,,,,,,,,,,,,1005.2988544999389,1006.3072909999173,1002.2696896999842,1002.2696896999842,1002.2696896999842,1002.2696896999842,old_sceneIn_10.png,351,5.0,3.0240203000139445,,,ID010,0,2024-10-11_13h58.54.779,Surprise recog test,2023.1.3,60.04145258501814,
351,0,351,0,,,,,,,,,,,,,,,,,,,,,,,,,,,,,,,,,,1009.4744960999815,1010.5061041999143,1006.3072909999173,1006.3072909999173,1006.3072909999173,1006.3072909999173,old_sceneIn_31.png,352,4.0,3.1661382999736816,,,ID010,0,2024-10-11_13h58.54.779,Surprise recog test,2023.1.3,60.04145258501814,
