trial_loop.thisRepN,trial_loop.thisTrialN,trial_loop.thisN,trial_loop.thisIndex,VAS_slider.started,VAS_text.started,VAS_notstressed_text.started,VAS_stressed_text.started,continue_input.started,continue_text.started,label0.started,label10.started,label20.started,label30.started,label40.started,label50.started,label60.started,label70.started,label80.started,label90.started,label100.started,VAS_slider.response,VAS_slider.rt,VAS_slider.history,Answer_VAS,continue_input.keys,instruction_text.started,continue_text_2.started,continue_input_2.started,continue_input_2.keys,continue_input_2.rt,continue_input_2.duration,example_text.started,example_slider_2.started,example_image.started,example_slider_2.response,example_slider_2.rt,fixcross.started,fixcross.stopped,front_square.started,stim_images.started,trial_inst_images.started,slider_images.started,slider_images.stopped,thisImg,trial_count,slider_images.response,slider_images.rt,outro.started,participant,condition,date,expName,psychopyVersion,frameRate,
,,,,408.77196879999246,408.77196879999246,408.77196879999246,408.77196879999246,408.77196879999246,408.77196879999246,408.77196879999246,408.77196879999246,408.77196879999246,408.77196879999246,408.77196879999246,408.77196879999246,408.77196879999246,408.77196879999246,408.77196879999246,408.77196879999246,408.77196879999246,0.9777777777777774,7.505295200040564,"[(0.9777777777777774, 7.505295200040564)]",0.9777777777777774,None,,,,,,,,,,,,,,,,,,,,,,,,ID039,00,2025-01-14_13h06.32.601,Surprise recog test,2023.1.3,None,
,,,,,,,,,,,,,,,,,,,,,,,,,,416.11599079996813,416.11599079996813,416.11599079996813,space,27.74544580001384,None,,,,,,,,,,,,,,,,,,ID039,00,2025-01-14_13h06.32.601,Surprise recog test,2023.1.3,None,
0,0,0,0,,,,,,,,,,,,,,,,,,,,,,,,,,,,,443.9936842999887,443.9936842999887,443.9936842999887,5.0,16.388637500000186,466.3211873000255,461.34794250002597,461.34794250002597,461.34794250002597,461.34794250002597,461.34794250002597,466.3061902000336,old_stationery_28.png,1,None,None,,ID039,00,2025-01-14_13h06.32.601,Surprise recog test,2023.1.3,None,
1,0,1,0,,,,,,,,,,,,,,,,,,,,,,,,,,,,,,,,,,472.3131605000235,,467.3453856999986,467.3453856999986,467.3453856999986,467.3453856999986,472.306484599947,new_sceneOut_25.png,2,None,None,,ID039,00,2025-01-14_13h06.32.601,Surprise recog test,2023.1.3,None,
2,0,2,0,,,,,,,,,,,,,,,,,,,,,,,,,,,,,,,,,,476.01580679998733,,473.3381050999742,473.3381050999742,473.3381050999742,473.3381050999742,,old_sceneIn_22.png,3,4.0,2.6785117000108585,,ID039,00,2025-01-14_13h06.32.601,Surprise recog test,2023.1.3,None,
3,0,3,0,,,,,,,,,,,,,,,,,,,,,,,,,,,,,,,,,,479.33325249992777,480.3511366000166,477.0478479999583,477.0478479999583,477.0478479999583,477.0478479999583,,old_fruit_38.png,4,4.0,2.2874551999848336,,ID039,00,2025-01-14_13h06.32.601,Surprise recog test,2023.1.3,None,
4,0,4,0,,,,,,,,,,,,,,,,,,,,,,,,,,,,,,,,,,482.9617079999298,483.98307039996143,480.3511366000166,480.3511366000166,480.3511366000166,480.3511366000166,,new_fruit_37.png,5,2.0,2.6103719000238925,,ID039,00,2025-01-14_13h06.32.601,Surprise recog test,2023.1.3,None,
5,0,5,0,,,,,,,,,,,,,,,,,,,,,,,,,,,,,,,,,,485.93855059996713,486.95957079995424,483.98307039996143,483.98307039996143,483.98307039996143,483.98307039996143,,new_fruit_28.png,6,2.0,1.9564394999761134,,ID039,00,2025-01-14_13h06.32.601,Surprise recog test,2023.1.3,None,
6,0,6,0,,,,,,,,,,,,,,,,,,,,,,,,,,,,,,,,,,489.86786110000685,490.88208819995634,486.95957079995424,486.95957079995424,486.95957079995424,486.95957079995424,,old_fruit_41.png,7,2.0,2.9089303000364453,,ID039,00,2025-01-14_13h06.32.601,Surprise recog test,2023.1.3,None,
7,0,7,0,,,,,,,,,,,,,,,,,,,,,,,,,,,,,,,,,,494.2080321999965,495.2207386000082,490.88208819995634,490.88208819995634,490.88208819995634,490.88208819995634,,old_sceneIn_3.png,8,4.0,3.3200970001053065,,ID039,00,2025-01-14_13h06.32.601,Surprise recog test,2023.1.3,None,
8,0,8,0,,,,,,,,,,,,,,,,,,,,,,,,,,,,,,,,,,497.7329640999669,,495.2207386000082,495.2207386000082,495.2207386000082,495.2207386000082,,new_sceneOut_19.png,9,2.0,2.5083605999825522,,ID039,00,2025-01-14_13h06.32.601,Surprise recog test,2023.1.3,None,
9,0,9,0,,,,,,,,,,,,,,,,,,,,,,,,,,,,,,,,,,501.47828699997626,502.5133621999994,498.76757749996614,498.76757749996614,498.76757749996614,498.76757749996614,,old_sceneOut_3.png,10,4.0,2.7110935000237077,,ID039,00,2025-01-14_13h06.32.601,Surprise recog test,2023.1.3,None,
10,0,10,0,,,,,,,,,,,,,,,,,,,,,,,,,,,,,,,,,,504.85215849999804,505.87449930002913,502.5133621999994,502.5133621999994,502.5133621999994,502.5133621999994,,new_sceneIn_21.png,11,4.0,2.342596600065008,,ID039,00,2025-01-14_13h06.32.601,Surprise recog test,2023.1.3,None,
11,0,11,0,,,,,,,,,,,,,,,,,,,,,,,,,,,,,,,,,,507.57992739998735,508.6154150000075,505.87449930002913,505.87449930002913,505.87449930002913,505.87449930002913,,old_sceneIn_26.png,12,4.0,1.7072583000408486,,ID039,00,2025-01-14_13h06.32.601,Surprise recog test,2023.1.3,None,
12,0,12,0,,,,,,,,,,,,,,,,,,,,,,,,,,,,,,,,,,510.0185850999551,511.0465944999596,508.6154150000075,508.6154150000075,508.6154150000075,508.6154150000075,,new_sceneIn_13.png,13,4.0,1.4074155000271276,,ID039,00,2025-01-14_13h06.32.601,Surprise recog test,2023.1.3,None,
13,0,13,0,,,,,,,,,,,,,,,,,,,,,,,,,,,,,,,,,,513.5344966999255,514.5649174000137,511.0465944999596,511.0465944999596,511.0465944999596,511.0465944999596,,old_stationery_14.png,14,4.0,2.4906713000964373,,ID039,00,2025-01-14_13h06.32.601,Surprise recog test,2023.1.3,None,
14,0,14,0,,,,,,,,,,,,,,,,,,,,,,,,,,,,,,,,,,516.0572289000265,517.0872942999704,514.5649174000137,514.5649174000137,514.5649174000137,514.5649174000137,,old_sceneOut_40.png,15,4.0,1.4936745000304654,,ID039,00,2025-01-14_13h06.32.601,Surprise recog test,2023.1.3,None,
15,0,15,0,,,,,,,,,,,,,,,,,,,,,,,,,,,,,,,,,,518.6943161999807,519.7144869000185,517.0872942999704,517.0872942999704,517.0872942999704,517.0872942999704,,old_sceneIn_19.png,16,4.0,1.6106209000572562,,ID039,00,2025-01-14_13h06.32.601,Surprise recog test,2023.1.3,None,
16,0,16,0,,,,,,,,,,,,,,,,,,,,,,,,,,,,,,,,,,522.1745645999908,523.1933076999849,519.7144869000185,519.7144869000185,519.7144869000185,519.7144869000185,,old_sceneIn_14.png,17,2.0,2.460639200056903,,ID039,00,2025-01-14_13h06.32.601,Surprise recog test,2023.1.3,None,
17,0,17,0,,,,,,,,,,,,,,,,,,,,,,,,,,,,,,,,,,524.7551306999521,,523.1933076999849,523.1933076999849,523.1933076999849,523.1933076999849,,old_sceneIn_25.png,18,4.0,1.5576292000478134,,ID039,00,2025-01-14_13h06.32.601,Surprise recog test,2023.1.3,None,
18,0,18,0,,,,,,,,,,,,,,,,,,,,,,,,,,,,,,,,,,527.6300559999654,528.6567588000325,525.7743418000173,525.7743418000173,525.7743418000173,525.7743418000173,,old_fruit_8.png,19,2.0,1.850487699965015,,ID039,00,2025-01-14_13h06.32.601,Surprise recog test,2023.1.3,None,
19,0,19,0,,,,,,,,,,,,,,,,,,,,,,,,,,,,,,,,,,531.4732660999289,532.4913180000149,528.6567588000325,528.6567588000325,528.6567588000325,528.6567588000325,,old_sceneOut_5.png,20,4.0,2.814912399975583,,ID039,00,2025-01-14_13h06.32.601,Surprise recog test,2023.1.3,None,
20,0,20,0,,,,,,,,,,,,,,,,,,,,,,,,,,,,,,,,,,533.9757056999952,534.9913766999962,532.4913180000149,532.4913180000149,532.4913180000149,532.4913180000149,,new_fruit_15.png,21,2.0,1.482187999994494,,ID039,00,2025-01-14_13h06.32.601,Surprise recog test,2023.1.3,None,
21,0,21,0,,,,,,,,,,,,,,,,,,,,,,,,,,,,,,,,,,537.2563614000101,538.272683499963,534.9913766999962,534.9913766999962,534.9913766999962,534.9913766999962,,old_sceneOut_4.png,22,4.0,2.2637522000586614,,ID039,00,2025-01-14_13h06.32.601,Surprise recog test,2023.1.3,None,
22,0,22,0,,,,,,,,,,,,,,,,,,,,,,,,,,,,,,,,,,539.8808217999758,540.8909092999529,538.272683499963,538.272683499963,538.272683499963,538.272683499963,,new_sceneIn_48.png,23,4.0,1.6019367000553757,,ID039,00,2025-01-14_13h06.32.601,Surprise recog test,2023.1.3,None,
23,0,23,0,,,,,,,,,,,,,,,,,,,,,,,,,,,,,,,,,,543.1330177999334,544.1441986999707,540.8909092999529,540.8909092999529,540.8909092999529,540.8909092999529,,old_stationery_41.png,24,2.0,2.237908100010827,,ID039,00,2025-01-14_13h06.32.601,Surprise recog test,2023.1.3,None,
24,0,24,0,,,,,,,,,,,,,,,,,,,,,,,,,,,,,,,,,,545.9190428999718,546.9273578999564,544.1441986999707,544.1441986999707,544.1441986999707,544.1441986999707,,new_fruit_27.png,25,2.0,1.770250100060366,,ID039,00,2025-01-14_13h06.32.601,Surprise recog test,2023.1.3,None,
25,0,25,0,,,,,,,,,,,,,,,,,,,,,,,,,,,,,,,,,,550.248512799968,551.2665653999429,546.9273578999564,546.9273578999564,546.9273578999564,546.9273578999564,,old_stationery_13.png,26,2.0,3.314896099967882,,ID039,00,2025-01-14_13h06.32.601,Surprise recog test,2023.1.3,None,
26,0,26,0,,,,,,,,,,,,,,,,,,,,,,,,,,,,,,,,,,552.7852901000297,553.80366710003,551.2665653999429,551.2665653999429,551.2665653999429,551.2665653999429,,old_sceneOut_22.png,27,4.0,1.513901500031352,,ID039,00,2025-01-14_13h06.32.601,Surprise recog test,2023.1.3,None,
27,0,27,0,,,,,,,,,,,,,,,,,,,,,,,,,,,,,,,,,,555.3530000000028,556.370657099993,553.80366710003,553.80366710003,553.80366710003,553.80366710003,,new_sceneOut_18.png,28,4.0,1.5468573999824002,,ID039,00,2025-01-14_13h06.32.601,Surprise recog test,2023.1.3,None,
28,0,28,0,,,,,,,,,,,,,,,,,,,,,,,,,,,,,,,,,,557.6843516000081,,556.370657099993,556.370657099993,556.370657099993,556.370657099993,,old_sceneOut_44.png,29,4.0,1.3092706999741495,,ID039,00,2025-01-14_13h06.32.601,Surprise recog test,2023.1.3,None,
29,0,29,0,,,,,,,,,,,,,,,,,,,,,,,,,,,,,,,,,,560.4076361999614,561.4362390999449,558.7213535000337,558.7213535000337,558.7213535000337,558.7213535000337,,new_sceneIn_26.png,30,4.0,1.678864699904807,,ID039,00,2025-01-14_13h06.32.601,Surprise recog test,2023.1.3,None,
30,0,30,0,,,,,,,,,,,,,,,,,,,,,,,,,,,,,,,,,,563.4431870999979,564.4739338000072,561.4362390999449,561.4362390999449,561.4362390999449,561.4362390999449,,old_fruit_39.png,31,3.0,2.009089700062759,,ID039,00,2025-01-14_13h06.32.601,Surprise recog test,2023.1.3,None,
31,0,31,0,,,,,,,,,,,,,,,,,,,,,,,,,,,,,,,,,,566.0774511999916,567.1108278000029,564.4739338000072,564.4739338000072,564.4739338000072,564.4739338000072,,old_sceneOut_47.png,32,4.0,1.606070899986662,,ID039,00,2025-01-14_13h06.32.601,Surprise recog test,2023.1.3,None,
32,0,32,0,,,,,,,,,,,,,,,,,,,,,,,,,,,,,,,,,,568.3466130000306,569.3651725000236,567.1108278000029,567.1108278000029,567.1108278000029,567.1108278000029,,old_sceneOut_6.png,33,4.0,1.237166399951093,,ID039,00,2025-01-14_13h06.32.601,Surprise recog test,2023.1.3,None,
33,0,33,0,,,,,,,,,,,,,,,,,,,,,,,,,,,,,,,,,,571.5268036000198,572.531568699982,569.3651725000236,569.3651725000236,569.3651725000236,569.3651725000236,,old_stationery_6.png,34,3.0,2.1561383000807837,,ID039,00,2025-01-14_13h06.32.601,Surprise recog test,2023.1.3,None,
34,0,34,0,,,,,,,,,,,,,,,,,,,,,,,,,,,,,,,,,,573.9025120999431,574.9198366999626,572.531568699982,572.531568699982,572.531568699982,572.531568699982,,new_sceneOut_41.png,35,4.0,1.3663800000213087,,ID039,00,2025-01-14_13h06.32.601,Surprise recog test,2023.1.3,None,
35,0,35,0,,,,,,,,,,,,,,,,,,,,,,,,,,,,,,,,,,576.4515635999851,577.4821896000067,574.9198366999626,574.9198366999626,574.9198366999626,574.9198366999626,,new_fruit_31.png,36,2.0,1.5277930999873206,,ID039,00,2025-01-14_13h06.32.601,Surprise recog test,2023.1.3,None,
36,0,36,0,,,,,,,,,,,,,,,,,,,,,,,,,,,,,,,,,,578.7251385999843,579.7573596999282,577.4821896000067,577.4821896000067,577.4821896000067,577.4821896000067,,new_sceneOut_15.png,37,4.0,1.2441094999667257,,ID039,00,2025-01-14_13h06.32.601,Surprise recog test,2023.1.3,None,
37,0,37,0,,,,,,,,,,,,,,,,,,,,,,,,,,,,,,,,,,581.5163476000307,582.538314800011,579.7573596999282,579.7573596999282,579.7573596999282,579.7573596999282,,old_sceneIn_2.png,38,4.0,1.7591598000144586,,ID039,00,2025-01-14_13h06.32.601,Surprise recog test,2023.1.3,None,
38,0,38,0,,,,,,,,,,,,,,,,,,,,,,,,,,,,,,,,,,584.3106645999942,585.3248294999357,582.538314800011,582.538314800011,582.538314800011,582.538314800011,,old_stationery_4.png,39,1.0,1.7721295999363065,,ID039,00,2025-01-14_13h06.32.601,Surprise recog test,2023.1.3,None,
39,0,39,0,,,,,,,,,,,,,,,,,,,,,,,,,,,,,,,,,,587.6225143999327,588.6464413999347,585.3248294999357,585.3248294999357,585.3248294999357,585.3248294999357,,new_sceneIn_17.png,40,5.0,2.29028760001529,,ID039,00,2025-01-14_13h06.32.601,Surprise recog test,2023.1.3,None,
40,0,40,0,,,,,,,,,,,,,,,,,,,,,,,,,,,,,,,,,,590.2592202000087,591.2770470000105,588.6464413999347,588.6464413999347,588.6464413999347,588.6464413999347,,old_sceneOut_20.png,41,4.0,1.6112294000340626,,ID039,00,2025-01-14_13h06.32.601,Surprise recog test,2023.1.3,None,
41,0,41,0,,,,,,,,,,,,,,,,,,,,,,,,,,,,,,,,,,594.4986270000227,,591.2770470000105,591.2770470000105,591.2770470000105,591.2770470000105,,new_stationery_13.png,42,3.0,3.2239565000636503,,ID039,00,2025-01-14_13h06.32.601,Surprise recog test,2023.1.3,None,
42,0,42,0,,,,,,,,,,,,,,,,,,,,,,,,,,,,,,,,,,597.1450369999511,598.1692508999258,595.5287039999384,595.5287039999384,595.5287039999384,595.5287039999384,,old_sceneOut_49.png,43,4.0,1.6176835000514984,,ID039,00,2025-01-14_13h06.32.601,Surprise recog test,2023.1.3,None,
43,0,43,0,,,,,,,,,,,,,,,,,,,,,,,,,,,,,,,,,,600.487676299992,,598.1692508999258,598.1692508999258,598.1692508999258,598.1692508999258,,new_sceneOut_17.png,44,4.0,2.3189453000668436,,ID039,00,2025-01-14_13h06.32.601,Surprise recog test,2023.1.3,None,
44,0,44,0,,,,,,,,,,,,,,,,,,,,,,,,,,,,,,,,,,603.2825496000005,604.3065486999694,601.5099806999788,601.5099806999788,601.5099806999788,601.5099806999788,,new_stationery_29.png,45,4.0,1.768449299968779,,ID039,00,2025-01-14_13h06.32.601,Surprise recog test,2023.1.3,None,
45,0,45,0,,,,,,,,,,,,,,,,,,,,,,,,,,,,,,,,,,607.2053909000242,608.2099657999352,604.3065486999694,604.3065486999694,604.3065486999694,604.3065486999694,,new_sceneIn_39.png,46,4.0,2.894342099898495,,ID039,00,2025-01-14_13h06.32.601,Surprise recog test,2023.1.3,None,
46,0,46,0,,,,,,,,,,,,,,,,,,,,,,,,,,,,,,,,,,610.2579294999596,611.2639044999378,608.2099657999352,608.2099657999352,608.2099657999352,608.2099657999352,,old_sceneIn_37.png,47,4.0,2.0371172000886872,,ID039,00,2025-01-14_13h06.32.601,Surprise recog test,2023.1.3,None,
47,0,47,0,,,,,,,,,,,,,,,,,,,,,,,,,,,,,,,,,,613.5037242999533,614.5164151999634,611.2639044999378,611.2639044999378,611.2639044999378,611.2639044999378,,old_stationery_8.png,48,2.0,2.2367103999713436,,ID039,00,2025-01-14_13h06.32.601,Surprise recog test,2023.1.3,None,
48,0,48,0,,,,,,,,,,,,,,,,,,,,,,,,,,,,,,,,,,615.987640599953,617.0040389000205,614.5164151999634,614.5164151999634,614.5164151999634,614.5164151999634,,old_stationery_32.png,49,2.0,1.4675868999911472,,ID039,00,2025-01-14_13h06.32.601,Surprise recog test,2023.1.3,None,
49,0,49,0,,,,,,,,,,,,,,,,,,,,,,,,,,,,,,,,,,619.4336843999336,620.440678599989,617.0040389000205,617.0040389000205,617.0040389000205,617.0040389000205,,new_stationery_42.png,50,2.0,2.4256729999324307,,ID039,00,2025-01-14_13h06.32.601,Surprise recog test,2023.1.3,None,
50,0,50,0,,,,,,,,,,,,,,,,,,,,,,,,,,,,,,,,,,621.8895722000161,622.9095542000141,620.440678599989,620.440678599989,620.440678599989,620.440678599989,,old_fruit_24.png,51,2.0,1.4452966999961063,,ID039,00,2025-01-14_13h06.32.601,Surprise recog test,2023.1.3,None,
51,0,51,0,,,,,,,,,,,,,,,,,,,,,,,,,,,,,,,,,,624.6135173999937,625.6299856000114,622.9095542000141,622.9095542000141,622.9095542000141,622.9095542000141,,new_fruit_32.png,52,3.0,1.6994077999843284,,ID039,00,2025-01-14_13h06.32.601,Surprise recog test,2023.1.3,None,
52,0,52,0,,,,,,,,,,,,,,,,,,,,,,,,,,,,,,,,,,627.0748060999904,,625.6299856000114,625.6299856000114,625.6299856000114,625.6299856000114,,old_sceneOut_25.png,53,4.0,1.4421866999473423,,ID039,00,2025-01-14_13h06.32.601,Surprise recog test,2023.1.3,None,
53,0,53,0,,,,,,,,,,,,,,,,,,,,,,,,,,,,,,,,,,631.2281351999845,,628.1105421999237,628.1105421999237,628.1105421999237,628.1105421999237,,old_sceneOut_45.png,54,4.0,3.119540399988182,,ID039,00,2025-01-14_13h06.32.601,Surprise recog test,2023.1.3,None,
54,0,54,0,,,,,,,,,,,,,,,,,,,,,,,,,,,,,,,,,,633.5880047000246,634.607248699991,632.2620283999713,632.2620283999713,632.2620283999713,632.2620283999713,,new_fruit_39.png,55,2.0,1.3280870999442413,,ID039,00,2025-01-14_13h06.32.601,Surprise recog test,2023.1.3,None,
55,0,55,0,,,,,,,,,,,,,,,,,,,,,,,,,,,,,,,,,,636.3630459000124,637.3855870999396,634.607248699991,634.607248699991,634.607248699991,634.607248699991,,new_sceneOut_30.png,56,4.0,1.7553655999945477,,ID039,00,2025-01-14_13h06.32.601,Surprise recog test,2023.1.3,None,
56,0,56,0,,,,,,,,,,,,,,,,,,,,,,,,,,,,,,,,,,640.3798163000029,641.3923108000308,637.3855870999396,637.3855870999396,637.3855870999396,637.3855870999396,,new_fruit_10.png,57,4.0,2.9970661000115797,,ID039,00,2025-01-14_13h06.32.601,Surprise recog test,2023.1.3,None,
57,0,57,0,,,,,,,,,,,,,,,,,,,,,,,,,,,,,,,,,,644.3971337999683,645.4233019999228,641.3923108000308,641.3923108000308,641.3923108000308,641.3923108000308,,old_fruit_42.png,58,4.0,3.0008848999859765,,ID039,00,2025-01-14_13h06.32.601,Surprise recog test,2023.1.3,None,
58,0,58,0,,,,,,,,,,,,,,,,,,,,,,,,,,,,,,,,,,648.7119340000208,649.7407490999904,645.4233019999228,645.4233019999228,645.4233019999228,645.4233019999228,,new_stationery_25.png,59,3.0,3.290620799991302,,ID039,00,2025-01-14_13h06.32.601,Surprise recog test,2023.1.3,None,
59,0,59,0,,,,,,,,,,,,,,,,,,,,,,,,,,,,,,,,,,651.7975407999475,652.8310988999438,649.7407490999904,649.7407490999904,649.7407490999904,649.7407490999904,,new_stationery_34.png,60,3.0,2.0558693000348285,,ID039,00,2025-01-14_13h06.32.601,Surprise recog test,2023.1.3,None,
60,0,60,0,,,,,,,,,,,,,,,,,,,,,,,,,,,,,,,,,,654.2612868000288,655.2706686999882,652.8310988999438,652.8310988999438,652.8310988999438,652.8310988999438,,new_fruit_38.png,61,2.0,1.4325163000030443,,ID039,00,2025-01-14_13h06.32.601,Surprise recog test,2023.1.3,None,
61,0,61,0,,,,,,,,,,,,,,,,,,,,,,,,,,,,,,,,,,657.5830886999611,,655.2706686999882,655.2706686999882,655.2706686999882,655.2706686999882,,new_stationery_49.png,62,3.0,2.308485599933192,,ID039,00,2025-01-14_13h06.32.601,Surprise recog test,2023.1.3,None,
62,0,62,0,,,,,,,,,,,,,,,,,,,,,,,,,,,,,,,,,,660.1604299999308,661.185715700034,658.6195850999793,658.6195850999793,658.6195850999793,658.6195850999793,,new_sceneIn_34.png,63,4.0,1.5433563999831676,,ID039,00,2025-01-14_13h06.32.601,Surprise recog test,2023.1.3,None,
63,0,63,0,,,,,,,,,,,,,,,,,,,,,,,,,,,,,,,,,,662.9638298000209,663.9774727999466,661.185715700034,661.185715700034,661.185715700034,661.185715700034,,old_stationery_18.png,64,2.0,1.7791333000641316,,ID039,00,2025-01-14_13h06.32.601,Surprise recog test,2023.1.3,None,
64,0,64,0,,,,,,,,,,,,,,,,,,,,,,,,,,,,,,,,,,665.5599699999439,666.5780404999387,663.9774727999466,663.9774727999466,663.9774727999466,663.9774727999466,,new_sceneIn_8.png,65,4.0,1.5779481999343261,,ID039,00,2025-01-14_13h06.32.601,Surprise recog test,2023.1.3,None,
65,0,65,0,,,,,,,,,,,,,,,,,,,,,,,,,,,,,,,,,,667.7819731000345,668.7942378999433,666.5780404999387,666.5780404999387,666.5780404999387,666.5780404999387,,new_sceneOut_8.png,66,4.0,1.1998907000524923,,ID039,00,2025-01-14_13h06.32.601,Surprise recog test,2023.1.3,None,
66,0,66,0,,,,,,,,,,,,,,,,,,,,,,,,,,,,,,,,,,669.6406014999375,670.6468843999319,668.7942378999433,668.7942378999433,668.7942378999433,668.7942378999433,,old_sceneOut_14.png,67,4.0,0.8424762999638915,,ID039,00,2025-01-14_13h06.32.601,Surprise recog test,2023.1.3,None,
67,0,67,0,,,,,,,,,,,,,,,,,,,,,,,,,,,,,,,,,,673.2221244999673,674.2527217000024,670.6468843999319,670.6468843999319,670.6468843999319,670.6468843999319,,old_stationery_17.png,68,3.0,2.571540999924764,,ID039,00,2025-01-14_13h06.32.601,Surprise recog test,2023.1.3,None,
68,0,68,0,,,,,,,,,,,,,,,,,,,,,,,,,,,,,,,,,,675.8577143999282,676.8726479000179,674.2527217000024,674.2527217000024,674.2527217000024,674.2527217000024,,old_stationery_10.png,69,2.0,1.6054563000798225,,ID039,00,2025-01-14_13h06.32.601,Surprise recog test,2023.1.3,None,
69,0,69,0,,,,,,,,,,,,,,,,,,,,,,,,,,,,,,,,,,680.8972466000123,681.9190175000113,676.8726479000179,676.8726479000179,676.8726479000179,676.8726479000179,,new_sceneIn_5.png,70,4.0,4.020613300031982,,ID039,00,2025-01-14_13h06.32.601,Surprise recog test,2023.1.3,None,
70,0,70,0,,,,,,,,,,,,,,,,,,,,,,,,,,,,,,,,,,682.950258799945,683.9689737999579,681.9190175000113,681.9190175000113,681.9190175000113,681.9190175000113,,old_sceneOut_13.png,71,4.0,1.0324358999496326,,ID039,00,2025-01-14_13h06.32.601,Surprise recog test,2023.1.3,None,
71,0,71,0,,,,,,,,,,,,,,,,,,,,,,,,,,,,,,,,,,684.9812439000234,686.0102445000084,683.9689737999579,683.9689737999579,683.9689737999579,683.9689737999579,,old_sceneIn_17.png,72,4.0,1.0138912999536842,,ID039,00,2025-01-14_13h06.32.601,Surprise recog test,2023.1.3,None,
72,0,72,0,,,,,,,,,,,,,,,,,,,,,,,,,,,,,,,,,,687.323958999943,,686.0102445000084,686.0102445000084,686.0102445000084,686.0102445000084,,new_fruit_4.png,73,3.0,1.314591099973768,,ID039,00,2025-01-14_13h06.32.601,Surprise recog test,2023.1.3,None,
73,0,73,0,,,,,,,,,,,,,,,,,,,,,,,,,,,,,,,,,,689.7520048000151,690.7780802999623,688.3575072999811,688.3575072999811,688.3575072999811,688.3575072999811,,new_stationery_1.png,74,2.0,1.396810100064613,,ID039,00,2025-01-14_13h06.32.601,Surprise recog test,2023.1.3,None,
74,0,74,0,,,,,,,,,,,,,,,,,,,,,,,,,,,,,,,,,,692.7267229999416,693.7334478999255,690.7780802999623,690.7780802999623,690.7780802999623,690.7780802999623,,old_stationery_49.png,75,1.0,1.944065000046976,,ID039,00,2025-01-14_13h06.32.601,Surprise recog test,2023.1.3,None,
75,0,75,0,,,,,,,,,,,,,,,,,,,,,,,,,,,,,,,,,,695.6790217999369,696.6904107999289,693.7334478999255,693.7334478999255,693.7334478999255,693.7334478999255,,new_stationery_33.png,76,3.0,1.9403102999785915,,ID039,00,2025-01-14_13h06.32.601,Surprise recog test,2023.1.3,None,
76,0,76,0,,,,,,,,,,,,,,,,,,,,,,,,,,,,,,,,,,699.2225261999993,700.252030499978,696.6904107999289,696.6904107999289,696.6904107999289,696.6904107999289,,old_sceneOut_8.png,77,4.0,2.5324446000158787,,ID039,00,2025-01-14_13h06.32.601,Surprise recog test,2023.1.3,None,
77,0,77,0,,,,,,,,,,,,,,,,,,,,,,,,,,,,,,,,,,701.7769560000161,702.792415700038,700.252030499978,700.252030499978,700.252030499978,700.252030499978,,old_fruit_19.png,78,2.0,1.526726400014013,,ID039,00,2025-01-14_13h06.32.601,Surprise recog test,2023.1.3,None,
78,0,78,0,,,,,,,,,,,,,,,,,,,,,,,,,,,,,,,,,,704.4409556000028,705.4612292000093,702.792415700038,702.792415700038,702.792415700038,702.792415700038,,new_stationery_12.png,79,2.0,1.6431343000149354,,ID039,00,2025-01-14_13h06.32.601,Surprise recog test,2023.1.3,None,
79,0,79,0,,,,,,,,,,,,,,,,,,,,,,,,,,,,,,,,,,708.3610677999677,709.3806612000335,705.4612292000093,705.4612292000093,705.4612292000093,705.4612292000093,,new_sceneIn_35.png,80,3.0,2.8956619000528008,,ID039,00,2025-01-14_13h06.32.601,Surprise recog test,2023.1.3,None,
80,0,80,0,,,,,,,,,,,,,,,,,,,,,,,,,,,,,,,,,,711.1634355999995,712.1803429999854,709.3806612000335,709.3806612000335,709.3806612000335,709.3806612000335,,new_sceneIn_30.png,81,5.0,1.77872069994919,,ID039,00,2025-01-14_13h06.32.601,Surprise recog test,2023.1.3,None,
81,0,81,0,,,,,,,,,,,,,,,,,,,,,,,,,,,,,,,,,,713.870367800002,714.8956448999234,712.1803429999854,712.1803429999854,712.1803429999854,712.1803429999854,,new_stationery_5.png,82,3.0,1.6856310999719426,,ID039,00,2025-01-14_13h06.32.601,Surprise recog test,2023.1.3,None,
82,0,82,0,,,,,,,,,,,,,,,,,,,,,,,,,,,,,,,,,,716.2891849000007,717.3158257999457,714.8956448999234,714.8956448999234,714.8956448999234,714.8956448999234,,old_sceneIn_11.png,83,4.0,1.3949611000716686,,ID039,00,2025-01-14_13h06.32.601,Surprise recog test,2023.1.3,None,
83,0,83,0,,,,,,,,,,,,,,,,,,,,,,,,,,,,,,,,,,719.1485788000282,720.1673542000353,717.3158257999457,717.3158257999457,717.3158257999457,717.3158257999457,,old_sceneIn_39.png,84,4.0,1.8277333000442013,,ID039,00,2025-01-14_13h06.32.601,Surprise recog test,2023.1.3,None,
84,0,84,0,,,,,,,,,,,,,,,,,,,,,,,,,,,,,,,,,,721.3365028999979,,720.1673542000353,720.1673542000353,720.1673542000353,720.1673542000353,,new_stationery_19.png,85,4.0,1.1708879999350756,,ID039,00,2025-01-14_13h06.32.601,Surprise recog test,2023.1.3,None,
85,0,85,0,,,,,,,,,,,,,,,,,,,,,,,,,,,,,,,,,,724.3766172999749,725.4015604000306,722.3681822000071,722.3681822000071,722.3681822000071,722.3681822000071,,old_stationery_20.png,86,4.0,2.007865099934861,,ID039,00,2025-01-14_13h06.32.601,Surprise recog test,2023.1.3,None,
86,0,86,0,,,,,,,,,,,,,,,,,,,,,,,,,,,,,,,,,,728.8938502999954,,725.4015604000306,725.4015604000306,725.4015604000306,725.4015604000306,,new_fruit_33.png,87,3.0,3.493499099975452,,ID039,00,2025-01-14_13h06.32.601,Surprise recog test,2023.1.3,None,
87,0,87,0,,,,,,,,,,,,,,,,,,,,,,,,,,,,,,,,,,731.6375997000141,732.6644819999347,729.9281321000308,729.9281321000308,729.9281321000308,729.9281321000308,,old_sceneOut_50.png,88,4.0,1.7116803999524564,,ID039,00,2025-01-14_13h06.32.601,Surprise recog test,2023.1.3,None,
88,0,88,0,,,,,,,,,,,,,,,,,,,,,,,,,,,,,,,,,,733.6721150999656,734.6869203000097,732.6644819999347,732.6644819999347,732.6644819999347,732.6644819999347,,new_sceneOut_36.png,89,4.0,1.0099056999897584,,ID039,00,2025-01-14_13h06.32.601,Surprise recog test,2023.1.3,None,
89,0,89,0,,,,,,,,,,,,,,,,,,,,,,,,,,,,,,,,,,736.5616012000246,737.5855196999619,734.6869203000097,734.6869203000097,734.6869203000097,734.6869203000097,,old_stationery_16.png,90,1.0,1.8692395000252873,,ID039,00,2025-01-14_13h06.32.601,Surprise recog test,2023.1.3,None,
90,0,90,0,,,,,,,,,,,,,,,,,,,,,,,,,,,,,,,,,,739.3735685999272,740.3901877999306,737.5855196999619,737.5855196999619,737.5855196999619,737.5855196999619,,new_stationery_15.png,91,3.0,1.7888639000011608,,ID039,00,2025-01-14_13h06.32.601,Surprise recog test,2023.1.3,None,
91,0,91,0,,,,,,,,,,,,,,,,,,,,,,,,,,,,,,,,,,743.0310481999768,744.0439714000095,740.3901877999306,740.3901877999306,740.3901877999306,740.3901877999306,,old_sceneIn_34.png,92,4.0,2.636151500046253,,ID039,00,2025-01-14_13h06.32.601,Surprise recog test,2023.1.3,None,
92,0,92,0,,,,,,,,,,,,,,,,,,,,,,,,,,,,,,,,,,745.1968058999628,746.2213563999394,744.0439714000095,744.0439714000095,744.0439714000095,744.0439714000095,,old_sceneIn_6.png,93,4.0,1.1476121000014246,,ID039,00,2025-01-14_13h06.32.601,Surprise recog test,2023.1.3,None,
93,0,93,0,,,,,,,,,,,,,,,,,,,,,,,,,,,,,,,,,,747.6398957000347,748.6603339000139,746.2213563999394,746.2213563999394,746.2213563999394,746.2213563999394,,old_fruit_44.png,94,2.0,1.420031699934043,,ID039,00,2025-01-14_13h06.32.601,Surprise recog test,2023.1.3,None,
94,0,94,0,,,,,,,,,,,,,,,,,,,,,,,,,,,,,,,,,,750.3185383999953,751.3319339000154,748.6603339000139,748.6603339000139,748.6603339000139,748.6603339000139,,new_stationery_35.png,95,2.0,1.66003999998793,,ID039,00,2025-01-14_13h06.32.601,Surprise recog test,2023.1.3,None,
95,0,95,0,,,,,,,,,,,,,,,,,,,,,,,,,,,,,,,,,,753.4585608999478,754.4830972999334,751.3319339000154,751.3319339000154,751.3319339000154,751.3319339000154,,old_sceneIn_38.png,96,3.0,2.1224837000481784,,ID039,00,2025-01-14_13h06.32.601,Surprise recog test,2023.1.3,None,
96,0,96,0,,,,,,,,,,,,,,,,,,,,,,,,,,,,,,,,,,755.9518851999892,756.9713833000278,754.4830972999334,754.4830972999334,754.4830972999334,754.4830972999334,,old_sceneOut_34.png,97,4.0,1.4699506000615656,,ID039,00,2025-01-14_13h06.32.601,Surprise recog test,2023.1.3,None,
97,0,97,0,,,,,,,,,,,,,,,,,,,,,,,,,,,,,,,,,,759.4259762000293,760.4402349999873,756.9713833000278,756.9713833000278,756.9713833000278,756.9713833000278,,new_sceneIn_32.png,98,4.0,2.451910199946724,,ID039,00,2025-01-14_13h06.32.601,Surprise recog test,2023.1.3,None,
98,0,98,0,,,,,,,,,,,,,,,,,,,,,,,,,,,,,,,,,,762.5581894000061,763.5778556999285,760.4402349999873,760.4402349999873,760.4402349999873,760.4402349999873,,new_fruit_46.png,99,3.0,2.1136275999015197,,ID039,00,2025-01-14_13h06.32.601,Surprise recog test,2023.1.3,None,
99,0,99,0,,,,,,,,,,,,,,,,,,,,,,,,,,,,,,,,,,765.2085228000069,766.2350355000235,763.5778556999285,763.5778556999285,763.5778556999285,763.5778556999285,,new_fruit_5.png,100,3.0,1.6256521999603137,,ID039,00,2025-01-14_13h06.32.601,Surprise recog test,2023.1.3,None,
100,0,100,0,,,,,,,,,,,,,,,,,,,,,,,,,,,,,,,,,,767.945470699924,768.9646383000072,766.2350355000235,766.2350355000235,766.2350355000235,766.2350355000235,,new_sceneOut_5.png,101,4.0,1.7114128000102937,,ID039,00,2025-01-14_13h06.32.601,Surprise recog test,2023.1.3,None,
101,0,101,0,,,,,,,,,,,,,,,,,,,,,,,,,,,,,,,,,,770.5059524999233,771.5302328999387,768.9646383000072,768.9646383000072,768.9646383000072,768.9646383000072,,old_stationery_31.png,102,2.0,1.5352352999616414,,ID039,00,2025-01-14_13h06.32.601,Surprise recog test,2023.1.3,None,
102,0,102,0,,,,,,,,,,,,,,,,,,,,,,,,,,,,,,,,,,773.3532980999444,774.3654726999812,771.5302328999387,771.5302328999387,771.5302328999387,771.5302328999387,,old_sceneOut_2.png,103,4.0,1.8256605000933632,,ID039,00,2025-01-14_13h06.32.601,Surprise recog test,2023.1.3,None,
103,0,103,0,,,,,,,,,,,,,,,,,,,,,,,,,,,,,,,,,,776.6030160000082,777.6217203999404,774.3654726999812,774.3654726999812,774.3654726999812,774.3654726999812,,new_sceneIn_15.png,104,4.0,2.2339538000524044,,ID039,00,2025-01-14_13h06.32.601,Surprise recog test,2023.1.3,None,
104,0,104,0,,,,,,,,,,,,,,,,,,,,,,,,,,,,,,,,,,778.8359703000169,,777.6217203999404,777.6217203999404,777.6217203999404,777.6217203999404,,new_sceneOut_7.png,105,4.0,1.206947400001809,,ID039,00,2025-01-14_13h06.32.601,Surprise recog test,2023.1.3,None,
105,0,105,0,,,,,,,,,,,,,,,,,,,,,,,,,,,,,,,,,,781.0557911000215,782.0761118000373,779.8693161000265,779.8693161000265,779.8693161000265,779.8693161000265,,old_sceneIn_43.png,106,4.0,1.1882807000074536,,ID039,00,2025-01-14_13h06.32.601,Surprise recog test,2023.1.3,None,
106,0,106,0,,,,,,,,,,,,,,,,,,,,,,,,,,,,,,,,,,783.1297533999896,784.1545256000245,782.0761118000373,782.0761118000373,782.0761118000373,782.0761118000373,,new_sceneOut_26.png,107,4.0,1.0489667999790981,,ID039,00,2025-01-14_13h06.32.601,Surprise recog test,2023.1.3,None,
107,0,107,0,,,,,,,,,,,,,,,,,,,,,,,,,,,,,,,,,,785.4449175000191,786.4630510000279,784.1545256000245,784.1545256000245,784.1545256000245,784.1545256000245,,old_sceneOut_43.png,108,4.0,1.2902206999715418,,ID039,00,2025-01-14_13h06.32.601,Surprise recog test,2023.1.3,None,
108,0,108,0,,,,,,,,,,,,,,,,,,,,,,,,,,,,,,,,,,788.3984322999604,789.4271964000072,786.4630510000279,786.4630510000279,786.4630510000279,786.4630510000279,,old_fruit_22.png,109,3.0,1.9315475000767037,,ID039,00,2025-01-14_13h06.32.601,Surprise recog test,2023.1.3,None,
109,0,109,0,,,,,,,,,,,,,,,,,,,,,,,,,,,,,,,,,,790.8729884999339,791.8794823000208,789.4271964000072,789.4271964000072,789.4271964000072,789.4271964000072,,new_sceneIn_44.png,110,4.0,1.444167099893093,,ID039,00,2025-01-14_13h06.32.601,Surprise recog test,2023.1.3,None,
110,0,110,0,,,,,,,,,,,,,,,,,,,,,,,,,,,,,,,,,,794.6975127999904,,791.8794823000208,791.8794823000208,791.8794823000208,791.8794823000208,,new_stationery_23.png,111,2.0,2.81177619996015,,ID039,00,2025-01-14_13h06.32.601,Surprise recog test,2023.1.3,None,
111,0,111,0,,,,,,,,,,,,,,,,,,,,,,,,,,,,,,,,,,797.1653692999389,,795.7323196999496,795.7323196999496,795.7323196999496,795.7323196999496,,old_fruit_45.png,112,2.0,1.4365075000096112,,ID039,00,2025-01-14_13h06.32.601,Surprise recog test,2023.1.3,None,
112,0,112,0,,,,,,,,,,,,,,,,,,,,,,,,,,,,,,,,,,800.2475773999467,801.2678058999591,798.2030588999623,798.2030588999623,798.2030588999623,798.2030588999623,,new_stationery_9.png,113,3.0,2.047470399993472,,ID039,00,2025-01-14_13h06.32.601,Surprise recog test,2023.1.3,None,
113,0,113,0,,,,,,,,,,,,,,,,,,,,,,,,,,,,,,,,,,803.268947100034,804.2779173000017,801.2678058999591,801.2678058999591,801.2678058999591,801.2678058999591,,new_stationery_3.png,114,2.0,2.002101899939589,,ID039,00,2025-01-14_13h06.32.601,Surprise recog test,2023.1.3,None,
114,0,114,0,,,,,,,,,,,,,,,,,,,,,,,,,,,,,,,,,,805.7942369999364,806.8086742999731,804.2779173000017,804.2779173000017,804.2779173000017,804.2779173000017,,new_sceneIn_24.png,115,4.0,1.5123646999709308,,ID039,00,2025-01-14_13h06.32.601,Surprise recog test,2023.1.3,None,
115,0,115,0,,,,,,,,,,,,,,,,,,,,,,,,,,,,,,,,,,808.7462250000099,809.7778686999809,806.8086742999731,806.8086742999731,806.8086742999731,806.8086742999731,,new_stationery_18.png,116,2.0,1.9306904999539256,,ID039,00,2025-01-14_13h06.32.601,Surprise recog test,2023.1.3,None,
116,0,116,0,,,,,,,,,,,,,,,,,,,,,,,,,,,,,,,,,,812.6758566999342,813.6966094999807,809.7778686999809,809.7778686999809,809.7778686999809,809.7778686999809,,old_sceneIn_45.png,117,3.0,2.898622200009413,,ID039,00,2025-01-14_13h06.32.601,Surprise recog test,2023.1.3,None,
117,0,117,0,,,,,,,,,,,,,,,,,,,,,,,,,,,,,,,,,,816.2991049999837,,813.6966094999807,813.6966094999807,813.6966094999807,813.6966094999807,,new_stationery_21.png,118,4.0,2.6045445000054315,,ID039,00,2025-01-14_13h06.32.601,Surprise recog test,2023.1.3,None,
118,0,118,0,,,,,,,,,,,,,,,,,,,,,,,,,,,,,,,,,,818.9135562999872,819.9379144000122,817.3180572999408,817.3180572999408,817.3180572999408,817.3180572999408,,old_fruit_4.png,119,2.0,1.591745899990201,,ID039,00,2025-01-14_13h06.32.601,Surprise recog test,2023.1.3,None,
119,0,119,0,,,,,,,,,,,,,,,,,,,,,,,,,,,,,,,,,,821.2421729000052,822.2615786999231,819.9379144000122,819.9379144000122,819.9379144000122,819.9379144000122,,new_sceneIn_41.png,120,4.0,1.3068442000076175,,ID039,00,2025-01-14_13h06.32.601,Surprise recog test,2023.1.3,None,
120,0,120,0,,,,,,,,,,,,,,,,,,,,,,,,,,,,,,,,,,823.7361344000092,824.7426535999402,822.2615786999231,822.2615786999231,822.2615786999231,822.2615786999231,,old_sceneIn_16.png,121,4.0,1.4670828999951482,,ID039,00,2025-01-14_13h06.32.601,Surprise recog test,2023.1.3,None,
121,0,121,0,,,,,,,,,,,,,,,,,,,,,,,,,,,,,,,,,,827.3552802000195,828.3603368999902,824.7426535999402,824.7426535999402,824.7426535999402,824.7426535999402,,old_fruit_12.png,122,2.0,2.6053950999630615,,ID039,00,2025-01-14_13h06.32.601,Surprise recog test,2023.1.3,None,
122,0,122,0,,,,,,,,,,,,,,,,,,,,,,,,,,,,,,,,,,830.1326767000137,831.1459518999327,828.3603368999902,828.3603368999902,828.3603368999902,828.3603368999902,,old_fruit_1.png,123,4.0,1.7668117000721395,,ID039,00,2025-01-14_13h06.32.601,Surprise recog test,2023.1.3,None,
123,0,123,0,,,,,,,,,,,,,,,,,,,,,,,,,,,,,,,,,,833.2768230999354,834.2818198000314,831.1459518999327,831.1459518999327,831.1459518999327,831.1459518999327,,old_fruit_23.png,124,2.0,2.1209239000454545,,ID039,00,2025-01-14_13h06.32.601,Surprise recog test,2023.1.3,None,
124,0,124,0,,,,,,,,,,,,,,,,,,,,,,,,,,,,,,,,,,836.8631717999233,837.8689353000373,834.2818198000314,834.2818198000314,834.2818198000314,834.2818198000314,,old_fruit_37.png,125,3.0,2.5710346000269055,,ID039,00,2025-01-14_13h06.32.601,Surprise recog test,2023.1.3,None,
125,0,125,0,,,,,,,,,,,,,,,,,,,,,,,,,,,,,,,,,,840.7498329000082,841.7546979000326,837.8689353000373,837.8689353000373,837.8689353000373,837.8689353000373,,old_fruit_26.png,126,2.0,2.870864700060338,,ID039,00,2025-01-14_13h06.32.601,Surprise recog test,2023.1.3,None,
126,0,126,0,,,,,,,,,,,,,,,,,,,,,,,,,,,,,,,,,,843.2185126999393,844.2236127000069,841.7546979000326,841.7546979000326,841.7546979000326,841.7546979000326,,new_stationery_38.png,127,2.0,1.4537326000863686,,ID039,00,2025-01-14_13h06.32.601,Surprise recog test,2023.1.3,None,
127,0,127,0,,,,,,,,,,,,,,,,,,,,,,,,,,,,,,,,,,845.9707445999375,846.9769156000111,844.2236127000069,844.2236127000069,844.2236127000069,844.2236127000069,,new_sceneIn_37.png,128,4.0,1.7376539000542834,,ID039,00,2025-01-14_13h06.32.601,Surprise recog test,2023.1.3,None,
128,0,128,0,,,,,,,,,,,,,,,,,,,,,,,,,,,,,,,,,,849.673793099937,850.679000300006,846.9769156000111,846.9769156000111,846.9769156000111,846.9769156000111,,new_stationery_24.png,129,4.0,2.688097400008701,,ID039,00,2025-01-14_13h06.32.601,Surprise recog test,2023.1.3,None,
129,0,129,0,,,,,,,,,,,,,,,,,,,,,,,,,,,,,,,,,,853.3435652999906,854.3498741999501,850.679000300006,850.679000300006,850.679000300006,850.679000300006,,new_sceneOut_29.png,130,4.0,2.654689999995753,,ID039,00,2025-01-14_13h06.32.601,Surprise recog test,2023.1.3,None,
130,0,130,0,,,,,,,,,,,,,,,,,,,,,,,,,,,,,,,,,,857.2636414000299,858.2680319999345,854.3498741999501,854.3498741999501,854.3498741999501,854.3498741999501,,new_stationery_37.png,131,4.0,2.905124800046906,,ID039,00,2025-01-14_13h06.32.601,Surprise recog test,2023.1.3,None,
131,0,131,0,,,,,,,,,,,,,,,,,,,,,,,,,,,,,,,,,,860.566175899934,861.5709453999298,858.2680319999345,858.2680319999345,858.2680319999345,858.2680319999345,,old_stationery_48.png,132,3.0,2.289166299975477,,ID039,00,2025-01-14_13h06.32.601,Surprise recog test,2023.1.3,None,
132,0,132,0,,,,,,,,,,,,,,,,,,,,,,,,,,,,,,,,,,863.5020335000008,864.5065476000309,861.5709453999298,861.5709453999298,861.5709453999298,861.5709453999298,,old_sceneOut_12.png,133,4.0,1.9206125000491738,,ID039,00,2025-01-14_13h06.32.601,Surprise recog test,2023.1.3,None,
133,0,133,0,,,,,,,,,,,,,,,,,,,,,,,,,,,,,,,,,,866.3877223000163,867.3935550999595,864.5065476000309,864.5065476000309,864.5065476000309,864.5065476000309,,old_stationery_37.png,134,2.0,1.8711793000111356,,ID039,00,2025-01-14_13h06.32.601,Surprise recog test,2023.1.3,None,
134,0,134,0,,,,,,,,,,,,,,,,,,,,,,,,,,,,,,,,,,870.5962527999654,871.6250994999427,867.3935550999595,867.3935550999595,867.3935550999595,867.3935550999595,,new_stationery_46.png,135,3.0,3.1997257999610156,,ID039,00,2025-01-14_13h06.32.601,Surprise recog test,2023.1.3,None,
135,0,135,0,,,,,,,,,,,,,,,,,,,,,,,,,,,,,,,,,,873.1875545999501,874.198411099962,871.6250994999427,871.6250994999427,871.6250994999427,871.6250994999427,,new_sceneIn_9.png,136,4.0,1.5637663999805227,,ID039,00,2025-01-14_13h06.32.601,Surprise recog test,2023.1.3,None,
136,0,136,0,,,,,,,,,,,,,,,,,,,,,,,,,,,,,,,,,,875.9962708000094,877.0195024999557,874.198411099962,874.198411099962,874.198411099962,874.198411099962,,old_stationery_40.png,137,2.0,1.7938291999744251,,ID039,00,2025-01-14_13h06.32.601,Surprise recog test,2023.1.3,None,
137,0,137,0,,,,,,,,,,,,,,,,,,,,,,,,,,,,,,,,,,879.1645457999548,880.1707273999928,877.0195024999557,877.0195024999557,877.0195024999557,877.0195024999557,,old_fruit_10.png,138,3.0,2.1489502999465913,,ID039,00,2025-01-14_13h06.32.601,Surprise recog test,2023.1.3,None,
138,0,138,0,,,,,,,,,,,,,,,,,,,,,,,,,,,,,,,,,,882.7486452999292,883.7711770000169,880.1707273999928,880.1707273999928,880.1707273999928,880.1707273999928,,old_sceneIn_47.png,139,3.0,2.5740725999930874,,ID039,00,2025-01-14_13h06.32.601,Surprise recog test,2023.1.3,None,
139,0,139,0,,,,,,,,,,,,,,,,,,,,,,,,,,,,,,,,,,885.452830699971,886.471665399964,883.7711770000169,883.7711770000169,883.7711770000169,883.7711770000169,,new_sceneIn_43.png,140,4.0,1.6808728999458253,,ID039,00,2025-01-14_13h06.32.601,Surprise recog test,2023.1.3,None,
140,0,140,0,,,,,,,,,,,,,,,,,,,,,,,,,,,,,,,,,,889.019996899995,890.042371599935,886.471665399964,886.471665399964,886.471665399964,886.471665399964,,new_stationery_26.png,141,4.0,2.550952500081621,,ID039,00,2025-01-14_13h06.32.601,Surprise recog test,2023.1.3,None,
141,0,141,0,,,,,,,,,,,,,,,,,,,,,,,,,,,,,,,,,,891.5446056999499,,890.042371599935,890.042371599935,890.042371599935,890.042371599935,,old_fruit_50.png,142,2.0,1.5013643000274897,,ID039,00,2025-01-14_13h06.32.601,Surprise recog test,2023.1.3,None,
142,0,142,0,,,,,,,,,,,,,,,,,,,,,,,,,,,,,,,,,,895.3609543000348,896.3827229000162,892.5757715000072,892.5757715000072,892.5757715000072,892.5757715000072,,old_stationery_22.png,143,1.0,2.7852420000126585,,ID039,00,2025-01-14_13h06.32.601,Surprise recog test,2023.1.3,None,
143,0,143,0,,,,,,,,,,,,,,,,,,,,,,,,,,,,,,,,,,898.8492803999688,899.8695761000272,896.3827229000162,896.3827229000162,896.3827229000162,896.3827229000162,,old_sceneIn_42.png,144,3.0,2.4694545000093058,,ID039,00,2025-01-14_13h06.32.601,Surprise recog test,2023.1.3,None,
144,0,144,0,,,,,,,,,,,,,,,,,,,,,,,,,,,,,,,,,,900.9833148999605,902.0020191000076,899.8695761000272,899.8695761000272,899.8695761000272,899.8695761000272,,new_fruit_49.png,145,2.0,1.1112120000179857,,ID039,00,2025-01-14_13h06.32.601,Surprise recog test,2023.1.3,None,
145,0,145,0,,,,,,,,,,,,,,,,,,,,,,,,,,,,,,,,,,904.1780749999452,905.2067732999567,902.0020191000076,902.0020191000076,902.0020191000076,902.0020191000076,,old_sceneOut_1.png,146,4.0,2.1779798000352457,,ID039,00,2025-01-14_13h06.32.601,Surprise recog test,2023.1.3,None,
146,0,146,0,,,,,,,,,,,,,,,,,,,,,,,,,,,,,,,,,,908.5275418999372,909.5547643000027,905.2067732999567,905.2067732999567,905.2067732999567,905.2067732999567,,new_sceneIn_14.png,147,3.0,3.3230206998996437,,ID039,00,2025-01-14_13h06.32.601,Surprise recog test,2023.1.3,None,
147,0,147,0,,,,,,,,,,,,,,,,,,,,,,,,,,,,,,,,,,911.7275199999567,,909.5547643000027,909.5547643000027,909.5547643000027,909.5547643000027,,new_sceneIn_50.png,148,4.0,2.1735983999678865,,ID039,00,2025-01-14_13h06.32.601,Surprise recog test,2023.1.3,None,
148,0,148,0,,,,,,,,,,,,,,,,,,,,,,,,,,,,,,,,,,913.7860803999938,914.8137959999731,912.750258199987,912.750258199987,912.750258199987,912.750258199987,,old_sceneIn_4.png,149,4.0,1.029420999926515,,ID039,00,2025-01-14_13h06.32.601,Surprise recog test,2023.1.3,None,
149,0,149,0,,,,,,,,,,,,,,,,,,,,,,,,,,,,,,,,,,916.2502253999701,,914.8137959999731,914.8137959999731,914.8137959999731,914.8137959999731,,old_fruit_16.png,150,2.0,1.4371846999274567,,ID039,00,2025-01-14_13h06.32.601,Surprise recog test,2023.1.3,None,
150,0,150,0,,,,,,,,,,,,,,,,,,,,,,,,,,,,,,,,,,920.0708243999397,921.1037657000124,917.2848354999442,917.2848354999442,917.2848354999442,917.2848354999442,,old_fruit_49.png,151,3.0,2.7869194999802858,,ID039,00,2025-01-14_13h06.32.601,Surprise recog test,2023.1.3,None,
151,0,151,0,,,,,,,,,,,,,,,,,,,,,,,,,,,,,,,,,,924.0706534000346,925.0856918999925,921.1037657000124,921.1037657000124,921.1037657000124,921.1037657000124,,new_stationery_20.png,152,4.0,2.968571300036274,,ID039,00,2025-01-14_13h06.32.601,Surprise recog test,2023.1.3,None,
152,0,152,0,,,,,,,,,,,,,,,,,,,,,,,,,,,,,,,,,,926.3246574000223,,925.0856918999925,925.0856918999925,925.0856918999925,925.0856918999925,,old_sceneIn_46.png,153,4.0,1.2398896000813693,,ID039,00,2025-01-14_13h06.32.601,Surprise recog test,2023.1.3,None,
153,0,153,0,,,,,,,,,,,,,,,,,,,,,,,,,,,,,,,,,,929.4564824999543,930.4700367000187,927.3548393999226,927.3548393999226,927.3548393999226,927.3548393999226,,old_sceneOut_19.png,154,4.0,2.1022311999695376,,ID039,00,2025-01-14_13h06.32.601,Surprise recog test,2023.1.3,None,
154,0,154,0,,,,,,,,,,,,,,,,,,,,,,,,,,,,,,,,,,935.1556290999288,936.1711328999372,930.4700367000187,930.4700367000187,930.4700367000187,930.4700367000187,,new_stationery_16.png,155,4.0,4.683008500025608,,ID039,00,2025-01-14_13h06.32.601,Surprise recog test,2023.1.3,None,
155,0,155,0,,,,,,,,,,,,,,,,,,,,,,,,,,,,,,,,,,939.3320255000144,940.351777200005,936.1711328999372,936.1711328999372,936.1711328999372,936.1711328999372,,new_stationery_45.png,156,3.0,3.15019429998938,,ID039,00,2025-01-14_13h06.32.601,Surprise recog test,2023.1.3,None,
156,0,156,0,,,,,,,,,,,,,,,,,,,,,,,,,,,,,,,,,,941.7441128999926,942.7642430999549,940.351777200005,940.351777200005,940.351777200005,940.351777200005,,old_fruit_40.png,157,2.0,1.393170200055465,,ID039,00,2025-01-14_13h06.32.601,Surprise recog test,2023.1.3,None,
157,0,157,0,,,,,,,,,,,,,,,,,,,,,,,,,,,,,,,,,,946.0996614999603,947.1264397000195,942.7642430999549,942.7642430999549,942.7642430999549,942.7642430999549,,old_fruit_14.png,158,2.0,3.3357466000597924,,ID039,00,2025-01-14_13h06.32.601,Surprise recog test,2023.1.3,None,
158,0,158,0,,,,,,,,,,,,,,,,,,,,,,,,,,,,,,,,,,948.9139307999285,949.9441369000124,947.1264397000195,947.1264397000195,947.1264397000195,947.1264397000195,,old_fruit_15.png,159,2.0,1.7896641000406817,,ID039,00,2025-01-14_13h06.32.601,Surprise recog test,2023.1.3,None,
159,0,159,0,,,,,,,,,,,,,,,,,,,,,,,,,,,,,,,,,,952.0357681999449,953.0543863000348,949.9441369000124,949.9441369000124,949.9441369000124,949.9441369000124,,old_fruit_47.png,160,4.0,2.0941890999674797,,ID039,00,2025-01-14_13h06.32.601,Surprise recog test,2023.1.3,None,
160,0,160,0,,,,,,,,,,,,,,,,,,,,,,,,,,,,,,,,,,954.4914282999234,955.5031643999973,953.0543863000348,953.0543863000348,953.0543863000348,953.0543863000348,,new_fruit_43.png,161,4.0,1.4334667000221089,,ID039,00,2025-01-14_13h06.32.601,Surprise recog test,2023.1.3,None,
161,0,161,0,,,,,,,,,,,,,,,,,,,,,,,,,,,,,,,,,,956.7523919999367,957.7759902999969,955.5031643999973,955.5031643999973,955.5031643999973,955.5031643999973,,new_sceneIn_38.png,162,4.0,1.24407350004185,,ID039,00,2025-01-14_13h06.32.601,Surprise recog test,2023.1.3,None,
162,0,162,0,,,,,,,,,,,,,,,,,,,,,,,,,,,,,,,,,,960.885859800037,,957.7759902999969,957.7759902999969,957.7759902999969,957.7759902999969,,new_sceneIn_12.png,163,3.0,3.1089489000150934,,ID039,00,2025-01-14_13h06.32.601,Surprise recog test,2023.1.3,None,
163,0,163,0,,,,,,,,,,,,,,,,,,,,,,,,,,,,,,,,,,963.8917050999589,964.9222946999362,961.9296256999951,961.9296256999951,961.9296256999951,961.9296256999951,,old_sceneIn_31.png,164,4.0,1.9668531999923289,,ID039,00,2025-01-14_13h06.32.601,Surprise recog test,2023.1.3,None,
164,0,164,0,,,,,,,,,,,,,,,,,,,,,,,,,,,,,,,,,,967.3600744999712,968.3802838999545,964.9222946999362,964.9222946999362,964.9222946999362,964.9222946999362,,new_fruit_30.png,165,4.0,2.4407271000090986,,ID039,00,2025-01-14_13h06.32.601,Surprise recog test,2023.1.3,None,
165,0,165,0,,,,,,,,,,,,,,,,,,,,,,,,,,,,,,,,,,969.6807609000243,970.6982149999822,968.3802838999545,968.3802838999545,968.3802838999545,968.3802838999545,,old_sceneIn_10.png,166,4.0,1.294399100006558,,ID039,00,2025-01-14_13h06.32.601,Surprise recog test,2023.1.3,None,
166,0,166,0,,,,,,,,,,,,,,,,,,,,,,,,,,,,,,,,,,974.0412695999257,975.0663850000128,970.6982149999822,970.6982149999822,970.6982149999822,970.6982149999822,,new_sceneIn_11.png,167,4.0,3.339208999997936,,ID039,00,2025-01-14_13h06.32.601,Surprise recog test,2023.1.3,None,
167,0,167,0,,,,,,,,,,,,,,,,,,,,,,,,,,,,,,,,,,976.177234099945,977.1885011999402,975.0663850000128,975.0663850000128,975.0663850000128,975.0663850000128,,old_sceneIn_28.png,168,4.0,1.1091717999661341,,ID039,00,2025-01-14_13h06.32.601,Surprise recog test,2023.1.3,None,
168,0,168,0,,,,,,,,,,,,,,,,,,,,,,,,,,,,,,,,,,979.1563774999231,980.1781087999698,977.1885011999402,977.1885011999402,977.1885011999402,977.1885011999402,,new_sceneOut_2.png,169,4.0,1.9627785000484437,,ID039,00,2025-01-14_13h06.32.601,Surprise recog test,2023.1.3,None,
169,0,169,0,,,,,,,,,,,,,,,,,,,,,,,,,,,,,,,,,,981.7062727999873,982.7358689999674,980.1781087999698,980.1781087999698,980.1781087999698,980.1781087999698,,new_stationery_47.png,170,2.0,1.525833799969405,,ID039,00,2025-01-14_13h06.32.601,Surprise recog test,2023.1.3,None,
170,0,170,0,,,,,,,,,,,,,,,,,,,,,,,,,,,,,,,,,,986.6808191000018,987.698457099963,982.7358689999674,982.7358689999674,982.7358689999674,982.7358689999674,,old_sceneOut_7.png,171,4.0,3.94421660003718,,ID039,00,2025-01-14_13h06.32.601,Surprise recog test,2023.1.3,None,
171,0,171,0,,,,,,,,,,,,,,,,,,,,,,,,,,,,,,,,,,988.9535237000091,989.9757247000234,987.698457099963,987.698457099963,987.698457099963,987.698457099963,,new_stationery_8.png,172,4.0,1.2508925000438467,,ID039,00,2025-01-14_13h06.32.601,Surprise recog test,2023.1.3,None,
172,0,172,0,,,,,,,,,,,,,,,,,,,,,,,,,,,,,,,,,,991.1714037000202,992.1972992999945,989.9757247000234,989.9757247000234,989.9757247000234,989.9757247000234,,new_sceneOut_42.png,173,4.0,1.197463299962692,,ID039,00,2025-01-14_13h06.32.601,Surprise recog test,2023.1.3,None,
173,0,173,0,,,,,,,,,,,,,,,,,,,,,,,,,,,,,,,,,,993.5021875000093,994.5186823999975,992.1972992999945,992.1972992999945,992.1972992999945,992.1972992999945,,new_stationery_6.png,174,4.0,1.309257599990815,,ID039,00,2025-01-14_13h06.32.601,Surprise recog test,2023.1.3,None,
174,0,174,0,,,,,,,,,,,,,,,,,,,,,,,,,,,,,,,,,,995.9443929999834,996.9567837000359,994.5186823999975,994.5186823999975,994.5186823999975,994.5186823999975,,new_fruit_44.png,175,2.0,1.4202619000570849,,ID039,00,2025-01-14_13h06.32.601,Surprise recog test,2023.1.3,None,
175,0,175,0,,,,,,,,,,,,,,,,,,,,,,,,,,,,,,,,,,998.8160812000278,999.822605399997,996.9567837000359,996.9567837000359,996.9567837000359,996.9567837000359,,new_stationery_17.png,176,3.0,1.8556235999567434,,ID039,00,2025-01-14_13h06.32.601,Surprise recog test,2023.1.3,None,
176,0,176,0,,,,,,,,,,,,,,,,,,,,,,,,,,,,,,,,,,1001.4500706000254,1002.4701730000088,999.822605399997,999.822605399997,999.822605399997,999.822605399997,,new_stationery_44.png,177,2.0,1.6217286000028253,,ID039,00,2025-01-14_13h06.32.601,Surprise recog test,2023.1.3,None,
177,0,177,0,,,,,,,,,,,,,,,,,,,,,,,,,,,,,,,,,,1003.8022467999253,1004.8083418000024,1002.4701730000088,1002.4701730000088,1002.4701730000088,1002.4701730000088,,old_fruit_34.png,178,2.0,1.33241629996337,,ID039,00,2025-01-14_13h06.32.601,Surprise recog test,2023.1.3,None,
178,0,178,0,,,,,,,,,,,,,,,,,,,,,,,,,,,,,,,,,,1006.2257237000158,1007.2476683999412,1004.8083418000024,1004.8083418000024,1004.8083418000024,1004.8083418000024,,new_fruit_25.png,179,2.0,1.4127589999698102,,ID039,00,2025-01-14_13h06.32.601,Surprise recog test,2023.1.3,None,
179,0,179,0,,,,,,,,,,,,,,,,,,,,,,,,,,,,,,,,,,1008.5195948999608,1009.5334697000217,1007.2476683999412,1007.2476683999412,1007.2476683999412,1007.2476683999412,,new_sceneIn_6.png,180,4.0,1.2717590000247583,,ID039,00,2025-01-14_13h06.32.601,Surprise recog test,2023.1.3,None,
180,0,180,0,,,,,,,,,,,,,,,,,,,,,,,,,,,,,,,,,,1011.583587900037,1012.6010763000231,1009.5334697000217,1009.5334697000217,1009.5334697000217,1009.5334697000217,,old_stationery_35.png,181,3.0,2.046248900005594,,ID039,00,2025-01-14_13h06.32.601,Surprise recog test,2023.1.3,None,
181,0,181,0,,,,,,,,,,,,,,,,,,,,,,,,,,,,,,,,,,1014.2669239999959,1015.2883263999829,1012.6010763000231,1012.6010763000231,1012.6010763000231,1012.6010763000231,,new_sceneOut_47.png,182,4.0,1.662075400003232,,ID039,00,2025-01-14_13h06.32.601,Surprise recog test,2023.1.3,None,
182,0,182,0,,,,,,,,,,,,,,,,,,,,,,,,,,,,,,,,,,1016.759530399926,1017.7825152999721,1015.2883263999829,1015.2883263999829,1015.2883263999829,1015.2883263999829,,new_fruit_21.png,183,4.0,1.4658969000447541,,ID039,00,2025-01-14_13h06.32.601,Surprise recog test,2023.1.3,None,
183,0,183,0,,,,,,,,,,,,,,,,,,,,,,,,,,,,,,,,,,1018.750397900003,,1017.7825152999721,1017.7825152999721,1017.7825152999721,1017.7825152999721,,new_sceneOut_21.png,184,4.0,0.9700806000037119,,ID039,00,2025-01-14_13h06.32.601,Surprise recog test,2023.1.3,None,
184,0,184,0,,,,,,,,,,,,,,,,,,,,,,,,,,,,,,,,,,1021.5874893999426,,1019.7763386999723,1019.7763386999723,1019.7763386999723,1019.7763386999723,,new_stationery_41.png,185,3.0,1.8099484000122175,,ID039,00,2025-01-14_13h06.32.601,Surprise recog test,2023.1.3,None,
185,0,185,0,,,,,,,,,,,,,,,,,,,,,,,,,,,,,,,,,,1024.1562505000038,,1022.6223644999554,1022.6223644999554,1022.6223644999554,1022.6223644999554,,new_sceneIn_49.png,186,4.0,1.5355360000394285,,ID039,00,2025-01-14_13h06.32.601,Surprise recog test,2023.1.3,None,
186,0,186,0,,,,,,,,,,,,,,,,,,,,,,,,,,,,,,,,,,1027.238206799957,1028.2527054999955,1025.1769243000308,1025.1769243000308,1025.1769243000308,1025.1769243000308,,old_sceneIn_24.png,187,4.0,2.0570271000033244,,ID039,00,2025-01-14_13h06.32.601,Surprise recog test,2023.1.3,None,
187,0,187,0,,,,,,,,,,,,,,,,,,,,,,,,,,,,,,,,,,1030.7950279000215,,1028.2527054999955,1028.2527054999955,1028.2527054999955,1028.2527054999955,,new_stationery_10.png,188,3.0,2.5420798999257386,,ID039,00,2025-01-14_13h06.32.601,Surprise recog test,2023.1.3,None,
188,0,188,0,,,,,,,,,,,,,,,,,,,,,,,,,,,,,,,,,,1035.5672473999439,1036.5961674000137,1031.8268676999724,1031.8268676999724,1031.8268676999724,1031.8268676999724,,new_stationery_30.png,189,3.0,3.7432282000081614,,ID039,00,2025-01-14_13h06.32.601,Surprise recog test,2023.1.3,None,
189,0,189,0,,,,,,,,,,,,,,,,,,,,,,,,,,,,,,,,,,1037.7466229000129,1038.7580775999231,1036.5961674000137,1036.5961674000137,1036.5961674000137,1036.5961674000137,,old_stationery_1.png,190,3.0,1.152160199941136,,ID039,00,2025-01-14_13h06.32.601,Surprise recog test,2023.1.3,None,
190,0,190,0,,,,,,,,,,,,,,,,,,,,,,,,,,,,,,,,,,1040.0686257999623,,1038.7580775999231,1038.7580775999231,1038.7580775999231,1038.7580775999231,,old_sceneOut_23.png,191,4.0,1.306532600079663,,ID039,00,2025-01-14_13h06.32.601,Surprise recog test,2023.1.3,None,
191,0,191,0,,,,,,,,,,,,,,,,,,,,,,,,,,,,,,,,,,1042.591547899996,1043.6226940000197,1041.1002274999628,1041.1002274999628,1041.1002274999628,1041.1002274999628,,new_fruit_18.png,192,2.0,1.4915257999673486,,ID039,00,2025-01-14_13h06.32.601,Surprise recog test,2023.1.3,None,
192,0,192,0,,,,,,,,,,,,,,,,,,,,,,,,,,,,,,,,,,1044.9702264999505,1045.9787006999832,1043.6226940000197,1043.6226940000197,1043.6226940000197,1043.6226940000197,,old_fruit_46.png,193,2.0,1.34946330008097,,ID039,00,2025-01-14_13h06.32.601,Surprise recog test,2023.1.3,None,
193,0,193,0,,,,,,,,,,,,,,,,,,,,,,,,,,,,,,,,,,1047.1777262999676,1048.2091897999635,1045.9787006999832,1045.9787006999832,1045.9787006999832,1045.9787006999832,,old_fruit_32.png,194,2.0,1.1928461999632418,,ID039,00,2025-01-14_13h06.32.601,Surprise recog test,2023.1.3,None,
194,0,194,0,,,,,,,,,,,,,,,,,,,,,,,,,,,,,,,,,,1049.141533399932,1050.1486449999502,1048.2091897999635,1048.2091897999635,1048.2091897999635,1048.2091897999635,,old_fruit_6.png,195,2.0,0.9348533999873325,,ID039,00,2025-01-14_13h06.32.601,Surprise recog test,2023.1.3,None,
195,0,195,0,,,,,,,,,,,,,,,,,,,,,,,,,,,,,,,,,,1051.292336100014,1052.3130795999896,1050.1486449999502,1050.1486449999502,1050.1486449999502,1050.1486449999502,,old_fruit_30.png,196,2.0,1.1392734999535605,,ID039,00,2025-01-14_13h06.32.601,Surprise recog test,2023.1.3,None,
196,0,196,0,,,,,,,,,,,,,,,,,,,,,,,,,,,,,,,,,,1053.5825246999739,1054.6022827000124,1052.3130795999896,1052.3130795999896,1052.3130795999896,1052.3130795999896,,new_fruit_6.png,197,2.0,1.2700440000044182,,ID039,00,2025-01-14_13h06.32.601,Surprise recog test,2023.1.3,None,
197,0,197,0,,,,,,,,,,,,,,,,,,,,,,,,,,,,,,,,,,1057.0106232999824,1058.034720399999,1054.6022827000124,1054.6022827000124,1054.6022827000124,1054.6022827000124,,old_sceneIn_7.png,198,4.0,2.4017591000301763,,ID039,00,2025-01-14_13h06.32.601,Surprise recog test,2023.1.3,None,
198,0,198,0,,,,,,,,,,,,,,,,,,,,,,,,,,,,,,,,,,1062.2320487999823,1063.2572989999317,1058.034720399999,1058.034720399999,1058.034720399999,1058.034720399999,,new_sceneOut_13.png,199,4.0,4.1997510000364855,,ID039,00,2025-01-14_13h06.32.601,Surprise recog test,2023.1.3,None,
199,0,199,0,,,,,,,,,,,,,,,,,,,,,,,,,,,,,,,,,,1064.6719182999805,,1063.2572989999317,1063.2572989999317,1063.2572989999317,1063.2572989999317,,new_sceneIn_22.png,200,4.0,1.4178593999240547,,ID039,00,2025-01-14_13h06.32.601,Surprise recog test,2023.1.3,None,
200,0,200,0,,,,,,,,,,,,,,,,,,,,,,,,,,,,,,,,,,1067.9791721999645,1068.9981267999392,1065.6936456999974,1065.6936456999974,1065.6936456999974,1065.6936456999974,,new_fruit_8.png,201,3.0,2.2812637999886647,,ID039,00,2025-01-14_13h06.32.601,Surprise recog test,2023.1.3,None,
201,0,201,0,,,,,,,,,,,,,,,,,,,,,,,,,,,,,,,,,,1070.6643186999718,1071.6797327999957,1068.9981267999392,1068.9981267999392,1068.9981267999392,1068.9981267999392,,new_stationery_4.png,202,3.0,1.6586334999883547,,ID039,00,2025-01-14_13h06.32.601,Surprise recog test,2023.1.3,None,
202,0,202,0,,,,,,,,,,,,,,,,,,,,,,,,,,,,,,,,,,1073.5045898000244,1074.5276754000224,1071.6797327999957,1071.6797327999957,1071.6797327999957,1071.6797327999957,,new_fruit_50.png,203,3.0,1.8202349999919534,,ID039,00,2025-01-14_13h06.32.601,Surprise recog test,2023.1.3,None,
203,0,203,0,,,,,,,,,,,,,,,,,,,,,,,,,,,,,,,,,,1076.6075809999602,1077.6298624000046,1074.5276754000224,1074.5276754000224,1074.5276754000224,1074.5276754000224,,new_fruit_3.png,204,3.0,2.0818202999653295,,ID039,00,2025-01-14_13h06.32.601,Surprise recog test,2023.1.3,None,
204,0,204,0,,,,,,,,,,,,,,,,,,,,,,,,,,,,,,,,,,1079.0528826999944,1080.0793001999846,1077.6298624000046,1077.6298624000046,1077.6298624000046,1077.6298624000046,,old_sceneIn_15.png,205,4.0,1.4250110000139102,,ID039,00,2025-01-14_13h06.32.601,Surprise recog test,2023.1.3,None,
205,0,205,0,,,,,,,,,,,,,,,,,,,,,,,,,,,,,,,,,,1082.1068622999592,1083.1274346000282,1080.0793001999846,1080.0793001999846,1080.0793001999846,1080.0793001999846,,new_sceneOut_46.png,206,4.0,2.0275173999834806,,ID039,00,2025-01-14_13h06.32.601,Surprise recog test,2023.1.3,None,
206,0,206,0,,,,,,,,,,,,,,,,,,,,,,,,,,,,,,,,,,1085.5968802999705,1086.6127179999603,1083.1274346000282,1083.1274346000282,1083.1274346000282,1083.1274346000282,,new_stationery_50.png,207,3.0,2.4659823999973014,,ID039,00,2025-01-14_13h06.32.601,Surprise recog test,2023.1.3,None,
207,0,207,0,,,,,,,,,,,,,,,,,,,,,,,,,,,,,,,,,,1088.218240999966,1089.23520799994,1086.6127179999603,1086.6127179999603,1086.6127179999603,1086.6127179999603,,old_stationery_19.png,208,3.0,1.6013361000223085,,ID039,00,2025-01-14_13h06.32.601,Surprise recog test,2023.1.3,None,
208,0,208,0,,,,,,,,,,,,,,,,,,,,,,,,,,,,,,,,,,1090.7689105999889,1091.7933521999512,1089.23520799994,1089.23520799994,1089.23520799994,1089.23520799994,,new_sceneOut_14.png,209,4.0,1.5291533999843523,,ID039,00,2025-01-14_13h06.32.601,Surprise recog test,2023.1.3,None,
209,0,209,0,,,,,,,,,,,,,,,,,,,,,,,,,,,,,,,,,,1093.426497999928,1094.4477943000384,1091.7933521999512,1091.7933521999512,1091.7933521999512,1091.7933521999512,,old_sceneOut_31.png,210,4.0,1.631652000010945,,ID039,00,2025-01-14_13h06.32.601,Surprise recog test,2023.1.3,None,
210,0,210,0,,,,,,,,,,,,,,,,,,,,,,,,,,,,,,,,,,1095.5893970000325,1096.6021455000155,1094.4477943000384,1094.4477943000384,1094.4477943000384,1094.4477943000384,,new_sceneOut_1.png,211,4.0,1.1438570000464097,,ID039,00,2025-01-14_13h06.32.601,Surprise recog test,2023.1.3,None,
211,0,211,0,,,,,,,,,,,,,,,,,,,,,,,,,,,,,,,,,,1099.344790800009,1100.3574094999349,1096.6021455000155,1096.6021455000155,1096.6021455000155,1096.6021455000155,,new_fruit_47.png,212,3.0,2.7392889000475407,,ID039,00,2025-01-14_13h06.32.601,Surprise recog test,2023.1.3,None,
212,0,212,0,,,,,,,,,,,,,,,,,,,,,,,,,,,,,,,,,,1103.431018400006,1104.4549001000123,1100.3574094999349,1100.3574094999349,1100.3574094999349,1100.3574094999349,,new_sceneIn_31.png,213,4.0,3.069091400015168,,ID039,00,2025-01-14_13h06.32.601,Surprise recog test,2023.1.3,None,
213,0,213,0,,,,,,,,,,,,,,,,,,,,,,,,,,,,,,,,,,1106.3755940999836,,1104.4549001000123,1104.4549001000123,1104.4549001000123,1104.4549001000123,,old_sceneIn_36.png,214,3.0,1.921800300013274,,ID039,00,2025-01-14_13h06.32.601,Surprise recog test,2023.1.3,None,
214,0,214,0,,,,,,,,,,,,,,,,,,,,,,,,,,,,,,,,,,1109.7466649999842,1110.7758843000047,1107.3963829999557,1107.3963829999557,1107.3963829999557,1107.3963829999557,,new_fruit_16.png,215,3.0,2.3456150999991223,,ID039,00,2025-01-14_13h06.32.601,Surprise recog test,2023.1.3,None,
215,0,215,0,,,,,,,,,,,,,,,,,,,,,,,,,,,,,,,,,,1112.1393148000352,1113.1508222999983,1110.7758843000047,1110.7758843000047,1110.7758843000047,1110.7758843000047,,old_sceneOut_21.png,216,4.0,1.3627950000809506,,ID039,00,2025-01-14_13h06.32.601,Surprise recog test,2023.1.3,None,
216,0,216,0,,,,,,,,,,,,,,,,,,,,,,,,,,,,,,,,,,1114.827897500014,1115.8379963999614,1113.1508222999983,1113.1508222999983,1113.1508222999983,1113.1508222999983,,new_fruit_19.png,217,3.0,1.6674785999348387,,ID039,00,2025-01-14_13h06.32.601,Surprise recog test,2023.1.3,None,
217,0,217,0,,,,,,,,,,,,,,,,,,,,,,,,,,,,,,,,,,1119.4904567999765,1120.5180497999536,1115.8379963999614,1115.8379963999614,1115.8379963999614,1115.8379963999614,,old_sceneOut_18.png,218,4.0,3.6488937999820337,,ID039,00,2025-01-14_13h06.32.601,Surprise recog test,2023.1.3,None,
218,0,218,0,,,,,,,,,,,,,,,,,,,,,,,,,,,,,,,,,,1123.1455803000135,1124.1752429000335,1120.5180497999536,1120.5180497999536,1120.5180497999536,1120.5180497999536,,new_sceneIn_19.png,219,4.0,2.6284410000080243,,ID039,00,2025-01-14_13h06.32.601,Surprise recog test,2023.1.3,None,
219,0,219,0,,,,,,,,,,,,,,,,,,,,,,,,,,,,,,,,,,1125.6757269999944,1126.6969751999713,1124.1752429000335,1124.1752429000335,1124.1752429000335,1124.1752429000335,,new_sceneOut_37.png,220,4.0,1.50292730005458,,ID039,00,2025-01-14_13h06.32.601,Surprise recog test,2023.1.3,None,
220,0,220,0,,,,,,,,,,,,,,,,,,,,,,,,,,,,,,,,,,1128.2357840000186,1129.2631074999226,1126.6969751999713,1126.6969751999713,1126.6969751999713,1126.6969751999713,,old_stationery_11.png,221,2.0,1.5340132000856102,,ID039,00,2025-01-14_13h06.32.601,Surprise recog test,2023.1.3,None,
221,0,221,0,,,,,,,,,,,,,,,,,,,,,,,,,,,,,,,,,,1131.4685827000067,1132.4989092999604,1129.2631074999226,1129.2631074999226,1129.2631074999226,1129.2631074999226,,old_sceneIn_40.png,222,4.0,2.2081671999767423,,ID039,00,2025-01-14_13h06.32.601,Surprise recog test,2023.1.3,None,
222,0,222,0,,,,,,,,,,,,,,,,,,,,,,,,,,,,,,,,,,1134.9363910999382,1135.9646696000127,1132.4989092999604,1132.4989092999604,1132.4989092999604,1132.4989092999604,,new_sceneOut_32.png,223,4.0,2.438916699960828,,ID039,00,2025-01-14_13h06.32.601,Surprise recog test,2023.1.3,None,
223,0,223,0,,,,,,,,,,,,,,,,,,,,,,,,,,,,,,,,,,1137.8143854000373,1138.8357421000255,1135.9646696000127,1135.9646696000127,1135.9646696000127,1135.9646696000127,,old_fruit_2.png,224,3.0,1.8516998999984935,,ID039,00,2025-01-14_13h06.32.601,Surprise recog test,2023.1.3,None,
224,0,224,0,,,,,,,,,,,,,,,,,,,,,,,,,,,,,,,,,,1140.272594399983,1141.2908073000144,1138.8357421000255,1138.8357421000255,1138.8357421000255,1138.8357421000255,,old_sceneOut_17.png,225,4.0,1.4371784999966621,,ID039,00,2025-01-14_13h06.32.601,Surprise recog test,2023.1.3,None,
225,0,225,0,,,,,,,,,,,,,,,,,,,,,,,,,,,,,,,,,,1142.4507041999605,1143.4754164000042,1141.2908073000144,1141.2908073000144,1141.2908073000144,1141.2908073000144,,old_sceneIn_23.png,226,4.0,1.155460299924016,,ID039,00,2025-01-14_13h06.32.601,Surprise recog test,2023.1.3,None,
226,0,226,0,,,,,,,,,,,,,,,,,,,,,,,,,,,,,,,,,,1145.6395091000013,,1143.4754164000042,1143.4754164000042,1143.4754164000042,1143.4754164000042,,new_fruit_20.png,227,4.0,2.16563689999748,,ID039,00,2025-01-14_13h06.32.601,Surprise recog test,2023.1.3,None,
227,0,227,0,,,,,,,,,,,,,,,,,,,,,,,,,,,,,,,,,,1147.7671556000132,1148.7931078999536,1146.6706662999932,1146.6706662999932,1146.6706662999932,1146.6706662999932,,old_sceneOut_15.png,228,4.0,1.0969546999549493,,ID039,00,2025-01-14_13h06.32.601,Surprise recog test,2023.1.3,None,
228,0,228,0,,,,,,,,,,,,,,,,,,,,,,,,,,,,,,,,,,1150.3072744000237,1151.321011699969,1148.7931078999536,1148.7931078999536,1148.7931078999536,1148.7931078999536,,old_fruit_29.png,229,3.0,1.5141703999834135,,ID039,00,2025-01-14_13h06.32.601,Surprise recog test,2023.1.3,None,
229,0,229,0,,,,,,,,,,,,,,,,,,,,,,,,,,,,,,,,,,1153.3826086999616,1154.4148740000091,1151.321011699969,1151.321011699969,1151.321011699969,1151.321011699969,,old_stationery_12.png,230,1.0,2.06258569995407,,ID039,00,2025-01-14_13h06.32.601,Surprise recog test,2023.1.3,None,
230,0,230,0,,,,,,,,,,,,,,,,,,,,,,,,,,,,,,,,,,1156.0935631999746,1157.1187300999882,1154.4148740000091,1154.4148740000091,1154.4148740000091,1154.4148740000091,,old_stationery_15.png,231,2.0,1.6811167999403551,,ID039,00,2025-01-14_13h06.32.601,Surprise recog test,2023.1.3,None,
231,0,231,0,,,,,,,,,,,,,,,,,,,,,,,,,,,,,,,,,,1161.2551098000258,1162.2756006999407,1157.1187300999882,1157.1187300999882,1157.1187300999882,1157.1187300999882,,old_sceneOut_29.png,232,4.0,4.140155099914409,,ID039,00,2025-01-14_13h06.32.601,Surprise recog test,2023.1.3,None,
232,0,232,0,,,,,,,,,,,,,,,,,,,,,,,,,,,,,,,,,,1167.2714672000147,,1162.2756006999407,1162.2756006999407,1162.2756006999407,1162.2756006999407,1167.256492699962,new_sceneIn_20.png,233,None,None,,ID039,00,2025-01-14_13h06.32.601,Surprise recog test,2023.1.3,None,
233,0,233,0,,,,,,,,,,,,,,,,,,,,,,,,,,,,,,,,,,1170.402254799963,1171.4293362000026,1168.2757985999342,1168.2757985999342,1168.2757985999342,1168.2757985999342,,old_fruit_33.png,234,3.0,2.1211652000201866,,ID039,00,2025-01-14_13h06.32.601,Surprise recog test,2023.1.3,None,
234,0,234,0,,,,,,,,,,,,,,,,,,,,,,,,,,,,,,,,,,1172.7181507999776,1173.735406999942,1171.4293362000026,1171.4293362000026,1171.4293362000026,1171.4293362000026,,old_fruit_27.png,235,2.0,1.2897447999566793,,ID039,00,2025-01-14_13h06.32.601,Surprise recog test,2023.1.3,None,
235,0,235,0,,,,,,,,,,,,,,,,,,,,,,,,,,,,,,,,,,1175.0634527000366,,1173.735406999942,1173.735406999942,1173.735406999942,1173.735406999942,,new_sceneIn_18.png,236,4.0,1.3230691000353545,,ID039,00,2025-01-14_13h06.32.601,Surprise recog test,2023.1.3,None,
236,0,236,0,,,,,,,,,,,,,,,,,,,,,,,,,,,,,,,,,,1177.8637731999625,1178.871614499949,1176.08583919995,1176.08583919995,1176.08583919995,1176.08583919995,,old_stationery_24.png,237,3.0,1.7688096999190748,,ID039,00,2025-01-14_13h06.32.601,Surprise recog test,2023.1.3,None,
237,0,237,0,,,,,,,,,,,,,,,,,,,,,,,,,,,,,,,,,,1180.3555365999928,1181.3807394999312,1178.871614499949,1178.871614499949,1178.871614499949,1178.871614499949,,new_sceneIn_2.png,238,4.0,1.479493199964054,,ID039,00,2025-01-14_13h06.32.601,Surprise recog test,2023.1.3,None,
238,0,238,0,,,,,,,,,,,,,,,,,,,,,,,,,,,,,,,,,,1182.4725649999455,1183.4935839999234,1181.3807394999312,1181.3807394999312,1181.3807394999312,1181.3807394999312,,old_sceneOut_16.png,239,4.0,1.0860326999099925,,ID039,00,2025-01-14_13h06.32.601,Surprise recog test,2023.1.3,None,
239,0,239,0,,,,,,,,,,,,,,,,,,,,,,,,,,,,,,,,,,1185.644472999964,1186.6623932999792,1183.4935839999234,1183.4935839999234,1183.4935839999234,1183.4935839999234,,new_sceneOut_12.png,240,4.0,2.1443927000509575,,ID039,00,2025-01-14_13h06.32.601,Surprise recog test,2023.1.3,None,
240,0,240,0,,,,,,,,,,,,,,,,,,,,,,,,,,,,,,,,,,1188.3692023999756,1189.3866702000378,1186.6623932999792,1186.6623932999792,1186.6623932999792,1186.6623932999792,,old_stationery_30.png,241,3.0,1.7003302000230178,,ID039,00,2025-01-14_13h06.32.601,Surprise recog test,2023.1.3,None,
241,0,241,0,,,,,,,,,,,,,,,,,,,,,,,,,,,,,,,,,,1192.40063249995,1193.4310182000045,1189.3866702000378,1189.3866702000378,1189.3866702000378,1189.3866702000378,,old_sceneIn_30.png,242,4.0,3.009981399984099,,ID039,00,2025-01-14_13h06.32.601,Surprise recog test,2023.1.3,None,
242,0,242,0,,,,,,,,,,,,,,,,,,,,,,,,,,,,,,,,,,1196.002409699955,1197.0212241000263,1193.4310182000045,1193.4310182000045,1193.4310182000045,1193.4310182000045,,old_sceneOut_9.png,243,4.0,2.5719699999317527,,ID039,00,2025-01-14_13h06.32.601,Surprise recog test,2023.1.3,None,
243,0,243,0,,,,,,,,,,,,,,,,,,,,,,,,,,,,,,,,,,1198.3096173999365,1199.3332542999415,1197.0212241000263,1197.0212241000263,1197.0212241000263,1197.0212241000263,,old_sceneIn_41.png,244,4.0,1.284229199984111,,ID039,00,2025-01-14_13h06.32.601,Surprise recog test,2023.1.3,None,
244,0,244,0,,,,,,,,,,,,,,,,,,,,,,,,,,,,,,,,,,1200.9593912999844,1201.993138300022,1199.3332542999415,1199.3332542999415,1199.3332542999415,1199.3332542999415,,new_sceneOut_16.png,245,4.0,1.6279811999993399,,ID039,00,2025-01-14_13h06.32.601,Surprise recog test,2023.1.3,None,
245,0,245,0,,,,,,,,,,,,,,,,,,,,,,,,,,,,,,,,,,1203.2901837999234,1204.3230209000176,1201.993138300022,1201.993138300022,1201.993138300022,1201.993138300022,,old_fruit_36.png,246,4.0,1.2999390999320894,,ID039,00,2025-01-14_13h06.32.601,Surprise recog test,2023.1.3,None,
246,0,246,0,,,,,,,,,,,,,,,,,,,,,,,,,,,,,,,,,,1205.480277499999,1206.4951561000198,1204.3230209000176,1204.3230209000176,1204.3230209000176,1204.3230209000176,,new_sceneIn_25.png,247,4.0,1.1597612000769004,,ID039,00,2025-01-14_13h06.32.601,Surprise recog test,2023.1.3,None,
247,0,247,0,,,,,,,,,,,,,,,,,,,,,,,,,,,,,,,,,,1208.4913338000188,,1206.4951561000198,1206.4951561000198,1206.4951561000198,1206.4951561000198,,new_sceneIn_23.png,248,4.0,1.989659099956043,,ID039,00,2025-01-14_13h06.32.601,Surprise recog test,2023.1.3,None,
248,0,248,0,,,,,,,,,,,,,,,,,,,,,,,,,,,,,,,,,,1210.6160520999692,1211.6332250999985,1209.5147176999599,1209.5147176999599,1209.5147176999599,1209.5147176999599,,old_sceneOut_48.png,249,4.0,1.0966378999873996,,ID039,00,2025-01-14_13h06.32.601,Surprise recog test,2023.1.3,None,
249,0,249,0,,,,,,,,,,,,,,,,,,,,,,,,,,,,,,,,,,1212.8166353999404,1213.849501300021,1211.6332250999985,1211.6332250999985,1211.6332250999985,1211.6332250999985,,new_fruit_22.png,250,4.0,1.1790085000684485,,ID039,00,2025-01-14_13h06.32.601,Surprise recog test,2023.1.3,None,
250,0,250,0,,,,,,,,,,,,,,,,,,,,,,,,,,,,,,,,,,1217.8379226999823,1218.8549668999622,1213.849501300021,1213.849501300021,1213.849501300021,1213.849501300021,,new_fruit_48.png,251,3.0,3.990867199958302,,ID039,00,2025-01-14_13h06.32.601,Surprise recog test,2023.1.3,None,
251,0,251,0,,,,,,,,,,,,,,,,,,,,,,,,,,,,,,,,,,1220.5119369999738,1221.5380295999348,1218.8549668999622,1218.8549668999622,1218.8549668999622,1218.8549668999622,,new_sceneIn_1.png,252,4.0,1.65184780000709,,ID039,00,2025-01-14_13h06.32.601,Surprise recog test,2023.1.3,None,
252,0,252,0,,,,,,,,,,,,,,,,,,,,,,,,,,,,,,,,,,1222.4545814000303,,1221.5380295999348,1221.5380295999348,1221.5380295999348,1221.5380295999348,,old_sceneIn_20.png,253,4.0,0.9184444000711665,,ID039,00,2025-01-14_13h06.32.601,Surprise recog test,2023.1.3,None,
253,0,253,0,,,,,,,,,,,,,,,,,,,,,,,,,,,,,,,,,,1224.6164545000065,1225.6393774999306,1223.486825400032,1223.486825400032,1223.486825400032,1223.486825400032,,old_sceneOut_24.png,254,4.0,1.1313562000868842,,ID039,00,2025-01-14_13h06.32.601,Surprise recog test,2023.1.3,None,
254,0,254,0,,,,,,,,,,,,,,,,,,,,,,,,,,,,,,,,,,1227.1507602999918,1228.1597736999393,1225.6393774999306,1225.6393774999306,1225.6393774999306,1225.6393774999306,,new_fruit_34.png,255,3.0,1.512009400059469,,ID039,00,2025-01-14_13h06.32.601,Surprise recog test,2023.1.3,None,
255,0,255,0,,,,,,,,,,,,,,,,,,,,,,,,,,,,,,,,,,1229.1232299000258,1230.1429626999889,1228.1597736999393,1228.1597736999393,1228.1597736999393,1228.1597736999393,,new_sceneOut_27.png,256,4.0,0.9584992999443784,,ID039,00,2025-01-14_13h06.32.601,Surprise recog test,2023.1.3,None,
256,0,256,0,,,,,,,,,,,,,,,,,,,,,,,,,,,,,,,,,,1231.577651700005,,1230.1429626999889,1230.1429626999889,1230.1429626999889,1230.1429626999889,,old_fruit_28.png,257,3.0,1.4349278999725357,,ID039,00,2025-01-14_13h06.32.601,Surprise recog test,2023.1.3,None,
257,0,257,0,,,,,,,,,,,,,,,,,,,,,,,,,,,,,,,,,,1234.73978980002,1235.7533357000211,1232.6109277999494,1232.6109277999494,1232.6109277999494,1232.6109277999494,,new_sceneOut_23.png,258,4.0,2.130035200039856,,ID039,00,2025-01-14_13h06.32.601,Surprise recog test,2023.1.3,None,
258,0,258,0,,,,,,,,,,,,,,,,,,,,,,,,,,,,,,,,,,1237.976328699966,1238.9978232999565,1235.7533357000211,1235.7533357000211,1235.7533357000211,1235.7533357000211,,new_sceneIn_42.png,259,4.0,2.2179425000213087,,ID039,00,2025-01-14_13h06.32.601,Surprise recog test,2023.1.3,None,
259,0,259,0,,,,,,,,,,,,,,,,,,,,,,,,,,,,,,,,,,1240.5744984999765,1241.5917664000299,1238.9978232999565,1238.9978232999565,1238.9978232999565,1238.9978232999565,,old_stationery_27.png,260,2.0,1.5778667000122368,,ID039,00,2025-01-14_13h06.32.601,Surprise recog test,2023.1.3,None,
260,0,260,0,,,,,,,,,,,,,,,,,,,,,,,,,,,,,,,,,,1244.2440515999915,1245.2605123999529,1241.5917664000299,1241.5917664000299,1241.5917664000299,1241.5917664000299,,new_sceneIn_7.png,261,4.0,2.6429781999904662,,ID039,00,2025-01-14_13h06.32.601,Surprise recog test,2023.1.3,None,
261,0,261,0,,,,,,,,,,,,,,,,,,,,,,,,,,,,,,,,,,1246.9360100999475,1247.94814699993,1245.2605123999529,1245.2605123999529,1245.2605123999529,1245.2605123999529,,new_stationery_40.png,262,4.0,1.670965199940838,,ID039,00,2025-01-14_13h06.32.601,Surprise recog test,2023.1.3,None,
262,0,262,0,,,,,,,,,,,,,,,,,,,,,,,,,,,,,,,,,,1250.8332106999587,1251.865118799964,1247.94814699993,1247.94814699993,1247.94814699993,1247.94814699993,,new_sceneOut_48.png,263,4.0,2.880976299988106,,ID039,00,2025-01-14_13h06.32.601,Surprise recog test,2023.1.3,None,
263,0,263,0,,,,,,,,,,,,,,,,,,,,,,,,,,,,,,,,,,1253.1477921999758,1254.1814903999912,1251.865118799964,1251.865118799964,1251.865118799964,1251.865118799964,,new_sceneIn_45.png,264,4.0,1.2860731000546366,,ID039,00,2025-01-14_13h06.32.601,Surprise recog test,2023.1.3,None,
264,0,264,0,,,,,,,,,,,,,,,,,,,,,,,,,,,,,,,,,,1255.740394399967,1256.754199399962,1254.1814903999912,1254.1814903999912,1254.1814903999912,1254.1814903999912,,old_stationery_42.png,265,2.0,1.5593900999519974,,ID039,00,2025-01-14_13h06.32.601,Surprise recog test,2023.1.3,None,
265,0,265,0,,,,,,,,,,,,,,,,,,,,,,,,,,,,,,,,,,1258.777194299968,1259.7900774999289,1256.754199399962,1256.754199399962,1256.754199399962,1256.754199399962,,new_sceneOut_38.png,266,4.0,2.0177340999944136,,ID039,00,2025-01-14_13h06.32.601,Surprise recog test,2023.1.3,None,
266,0,266,0,,,,,,,,,,,,,,,,,,,,,,,,,,,,,,,,,,1260.6742380999494,1261.7024050999898,1259.7900774999289,1259.7900774999289,1259.7900774999289,1259.7900774999289,,old_sceneOut_32.png,267,4.0,0.8774318000068888,,ID039,00,2025-01-14_13h06.32.601,Surprise recog test,2023.1.3,None,
267,0,267,0,,,,,,,,,,,,,,,,,,,,,,,,,,,,,,,,,,1262.5440843999386,1263.5594548999798,1261.7024050999898,1261.7024050999898,1261.7024050999898,1261.7024050999898,,new_sceneOut_40.png,268,4.0,0.8395251000765711,,ID039,00,2025-01-14_13h06.32.601,Surprise recog test,2023.1.3,None,
268,0,268,0,,,,,,,,,,,,,,,,,,,,,,,,,,,,,,,,,,1264.7931115999818,1265.8242476999294,1263.5594548999798,1263.5594548999798,1263.5594548999798,1263.5594548999798,,new_sceneOut_6.png,269,4.0,1.2287295999703929,,ID039,00,2025-01-14_13h06.32.601,Surprise recog test,2023.1.3,None,
269,0,269,0,,,,,,,,,,,,,,,,,,,,,,,,,,,,,,,,,,1267.5994617999531,1268.6270965000149,1265.8242476999294,1265.8242476999294,1265.8242476999294,1265.8242476999294,,old_sceneOut_46.png,270,4.0,1.7759822000516579,,ID039,00,2025-01-14_13h06.32.601,Surprise recog test,2023.1.3,None,
270,0,270,0,,,,,,,,,,,,,,,,,,,,,,,,,,,,,,,,,,1271.47943019995,,1268.6270965000149,1268.6270965000149,1268.6270965000149,1268.6270965000149,,old_sceneOut_41.png,271,4.0,2.8526828000321984,,ID039,00,2025-01-14_13h06.32.601,Surprise recog test,2023.1.3,None,
271,0,271,0,,,,,,,,,,,,,,,,,,,,,,,,,,,,,,,,,,1275.4176966999657,1276.437007599976,1272.5112418000354,1272.5112418000354,1272.5112418000354,1272.5112418000354,,old_sceneOut_28.png,272,3.0,2.906963699962944,,ID039,00,2025-01-14_13h06.32.601,Surprise recog test,2023.1.3,None,
272,0,272,0,,,,,,,,,,,,,,,,,,,,,,,,,,,,,,,,,,1278.1707088999683,1279.2022596999304,1276.437007599976,1276.437007599976,1276.437007599976,1276.437007599976,,old_sceneOut_11.png,273,4.0,1.7299286000197753,,ID039,00,2025-01-14_13h06.32.601,Surprise recog test,2023.1.3,None,
273,0,273,0,,,,,,,,,,,,,,,,,,,,,,,,,,,,,,,,,,1280.6609368999489,1281.6863398000132,1279.2022596999304,1279.2022596999304,1279.2022596999304,1279.2022596999304,,old_stationery_21.png,274,2.0,1.4602825000183657,,ID039,00,2025-01-14_13h06.32.601,Surprise recog test,2023.1.3,None,
274,0,274,0,,,,,,,,,,,,,,,,,,,,,,,,,,,,,,,,,,1283.8180999000324,1284.8398843000177,1281.6863398000132,1281.6863398000132,1281.6863398000132,1281.6863398000132,,old_stationery_9.png,275,3.0,2.133328999974765,,ID039,00,2025-01-14_13h06.32.601,Surprise recog test,2023.1.3,None,
275,0,275,0,,,,,,,,,,,,,,,,,,,,,,,,,,,,,,,,,,1287.213476600009,1288.2435949000064,1284.8398843000177,1284.8398843000177,1284.8398843000177,1284.8398843000177,,new_stationery_31.png,276,3.0,2.3769765000324696,,ID039,00,2025-01-14_13h06.32.601,Surprise recog test,2023.1.3,None,
276,0,276,0,,,,,,,,,,,,,,,,,,,,,,,,,,,,,,,,,,1292.1444682999281,,1288.2435949000064,1288.2435949000064,1288.2435949000064,1288.2435949000064,,old_stationery_7.png,277,4.0,3.9033263000892475,,ID039,00,2025-01-14_13h06.32.601,Surprise recog test,2023.1.3,None,
277,0,277,0,,,,,,,,,,,,,,,,,,,,,,,,,,,,,,,,,,1294.5311387999682,,1293.187000200036,1293.187000200036,1293.187000200036,1293.187000200036,,new_fruit_2.png,278,3.0,1.3490799000719562,,ID039,00,2025-01-14_13h06.32.601,Surprise recog test,2023.1.3,None,
278,0,278,0,,,,,,,,,,,,,,,,,,,,,,,,,,,,,,,,,,1297.7954848000081,1298.8103513999376,1295.5645595999667,1295.5645595999667,1295.5645595999667,1295.5645595999667,,old_stationery_45.png,279,2.0,2.233713199966587,,ID039,00,2025-01-14_13h06.32.601,Surprise recog test,2023.1.3,None,
279,0,279,0,,,,,,,,,,,,,,,,,,,,,,,,,,,,,,,,,,1300.610578199965,1301.6417597000254,1298.8103513999376,1298.8103513999376,1298.8103513999376,1298.8103513999376,,new_fruit_14.png,280,3.0,1.8011898000258952,,ID039,00,2025-01-14_13h06.32.601,Surprise recog test,2023.1.3,None,
280,0,280,0,,,,,,,,,,,,,,,,,,,,,,,,,,,,,,,,,,1303.9323448999785,1304.9588634999236,1301.6417597000254,1301.6417597000254,1301.6417597000254,1301.6417597000254,,old_fruit_20.png,281,3.0,2.293252700008452,,ID039,00,2025-01-14_13h06.32.601,Surprise recog test,2023.1.3,None,
281,0,281,0,,,,,,,,,,,,,,,,,,,,,,,,,,,,,,,,,,1306.2492076000199,1307.2726981999585,1304.9588634999236,1304.9588634999236,1304.9588634999236,1304.9588634999236,,new_sceneOut_35.png,282,4.0,1.2926394999958575,,ID039,00,2025-01-14_13h06.32.601,Surprise recog test,2023.1.3,None,
282,0,282,0,,,,,,,,,,,,,,,,,,,,,,,,,,,,,,,,,,1309.9488866999745,1310.978331399965,1307.2726981999585,1307.2726981999585,1307.2726981999585,1307.2726981999585,,old_fruit_3.png,283,4.0,2.6734738000668585,,ID039,00,2025-01-14_13h06.32.601,Surprise recog test,2023.1.3,None,
283,0,283,0,,,,,,,,,,,,,,,,,,,,,,,,,,,,,,,,,,1312.694148199982,1313.7010649000295,1310.978331399965,1310.978331399965,1310.978331399965,1310.978331399965,,old_stationery_25.png,284,3.0,1.7155931999441236,,ID039,00,2025-01-14_13h06.32.601,Surprise recog test,2023.1.3,None,
284,0,284,0,,,,,,,,,,,,,,,,,,,,,,,,,,,,,,,,,,1317.1899363999255,1318.2177830999717,1313.7010649000295,1313.7010649000295,1313.7010649000295,1313.7010649000295,,new_fruit_12.png,285,3.0,3.4830811000429094,,ID039,00,2025-01-14_13h06.32.601,Surprise recog test,2023.1.3,None,
285,0,285,0,,,,,,,,,,,,,,,,,,,,,,,,,,,,,,,,,,1319.4902825999307,1320.5239933999255,1318.2177830999717,1318.2177830999717,1318.2177830999717,1318.2177830999717,,old_fruit_13.png,286,3.0,1.2741217999719083,,ID039,00,2025-01-14_13h06.32.601,Surprise recog test,2023.1.3,None,
286,0,286,0,,,,,,,,,,,,,,,,,,,,,,,,,,,,,,,,,,1321.7410416000057,1322.7712561000371,1320.5239933999255,1320.5239933999255,1320.5239933999255,1320.5239933999255,,old_sceneIn_35.png,287,4.0,1.2208850999595597,,ID039,00,2025-01-14_13h06.32.601,Surprise recog test,2023.1.3,None,
287,0,287,0,,,,,,,,,,,,,,,,,,,,,,,,,,,,,,,,,,1325.515308000031,1326.538422600017,1322.7712561000371,1322.7712561000371,1322.7712561000371,1322.7712561000371,,old_stationery_38.png,288,3.0,2.746101400000043,,ID039,00,2025-01-14_13h06.32.601,Surprise recog test,2023.1.3,None,
288,0,288,0,,,,,,,,,,,,,,,,,,,,,,,,,,,,,,,,,,1328.6620371999452,1329.695260999957,1326.538422600017,1326.538422600017,1326.538422600017,1326.538422600017,,new_sceneOut_50.png,289,4.0,2.1255430000601336,,ID039,00,2025-01-14_13h06.32.601,Surprise recog test,2023.1.3,None,
289,0,289,0,,,,,,,,,,,,,,,,,,,,,,,,,,,,,,,,,,1331.0393787999637,1332.0631553999847,1329.695260999957,1329.695260999957,1329.695260999957,1329.695260999957,,old_fruit_18.png,290,2.0,1.3471436999971047,,ID039,00,2025-01-14_13h06.32.601,Surprise recog test,2023.1.3,None,
290,0,290,0,,,,,,,,,,,,,,,,,,,,,,,,,,,,,,,,,,1334.7178568999516,1335.7442061000038,1332.0631553999847,1332.0631553999847,1332.0631553999847,1332.0631553999847,,new_sceneIn_10.png,291,3.0,2.653737699962221,,ID039,00,2025-01-14_13h06.32.601,Surprise recog test,2023.1.3,None,
291,0,291,0,,,,,,,,,,,,,,,,,,,,,,,,,,,,,,,,,,1338.0513855000027,,1335.7442061000038,1335.7442061000038,1335.7442061000038,1335.7442061000038,,new_sceneOut_28.png,292,3.0,2.3062109999591485,,ID039,00,2025-01-14_13h06.32.601,Surprise recog test,2023.1.3,None,
292,0,292,0,,,,,,,,,,,,,,,,,,,,,,,,,,,,,,,,,,1341.4643020000076,1342.4898165999912,1339.078500399948,1339.078500399948,1339.078500399948,1339.078500399948,,new_stationery_48.png,293,3.0,2.3878267999971285,,ID039,00,2025-01-14_13h06.32.601,Surprise recog test,2023.1.3,None,
293,0,293,0,,,,,,,,,,,,,,,,,,,,,,,,,,,,,,,,,,1344.1006387999514,1345.1210530999815,1342.4898165999912,1342.4898165999912,1342.4898165999912,1342.4898165999912,,new_sceneOut_10.png,294,4.0,1.6122522000223398,,ID039,00,2025-01-14_13h06.32.601,Surprise recog test,2023.1.3,None,
294,0,294,0,,,,,,,,,,,,,,,,,,,,,,,,,,,,,,,,,,1346.4424820999848,1347.4659920999547,1345.1210530999815,1345.1210530999815,1345.1210530999815,1345.1210530999815,,old_stationery_2.png,295,4.0,1.3202687000157312,,ID039,00,2025-01-14_13h06.32.601,Surprise recog test,2023.1.3,None,
295,0,295,0,,,,,,,,,,,,,,,,,,,,,,,,,,,,,,,,,,1350.2639329000376,1351.2954562000232,1347.4659920999547,1347.4659920999547,1347.4659920999547,1347.4659920999547,,old_fruit_9.png,296,3.0,2.7941561000188813,,ID039,00,2025-01-14_13h06.32.601,Surprise recog test,2023.1.3,None,
296,0,296,0,,,,,,,,,,,,,,,,,,,,,,,,,,,,,,,,,,1352.7335863999324,1353.768622100004,1351.2954562000232,1351.2954562000232,1351.2954562000232,1351.2954562000232,,old_stationery_3.png,297,2.0,1.4407016999321058,,ID039,00,2025-01-14_13h06.32.601,Surprise recog test,2023.1.3,None,
297,0,297,0,,,,,,,,,,,,,,,,,,,,,,,,,,,,,,,,,,1355.099988700007,1356.1262591999257,1353.768622100004,1353.768622100004,1353.768622100004,1353.768622100004,,new_sceneOut_43.png,298,4.0,1.33587599999737,,ID039,00,2025-01-14_13h06.32.601,Surprise recog test,2023.1.3,None,
298,0,298,0,,,,,,,,,,,,,,,,,,,,,,,,,,,,,,,,,,1358.5360955999931,1359.5661341999657,1356.1262591999257,1356.1262591999257,1356.1262591999257,1356.1262591999257,,old_fruit_25.png,299,4.0,2.407307400018908,,ID039,00,2025-01-14_13h06.32.601,Surprise recog test,2023.1.3,None,
299,0,299,0,,,,,,,,,,,,,,,,,,,,,,,,,,,,,,,,,,1363.0717696000356,,1359.5661341999657,1359.5661341999657,1359.5661341999657,1359.5661341999657,,old_sceneOut_10.png,300,4.0,3.507259999983944,,ID039,00,2025-01-14_13h06.32.601,Surprise recog test,2023.1.3,None,
300,0,300,0,,,,,,,,,,,,,,,,,,,,,,,,,,,,,,,,,,1365.1091876999708,1366.147599500022,1364.089358099969,1364.089358099969,1364.089358099969,1364.089358099969,,old_sceneOut_37.png,301,4.0,1.013671200023964,,ID039,00,2025-01-14_13h06.32.601,Surprise recog test,2023.1.3,None,
301,0,301,0,,,,,,,,,,,,,,,,,,,,,,,,,,,,,,,,,,1367.9764708000002,,1366.147599500022,1366.147599500022,1366.147599500022,1366.147599500022,,old_stationery_47.png,302,3.0,1.8289705999195576,,ID039,00,2025-01-14_13h06.32.601,Surprise recog test,2023.1.3,None,
302,0,302,0,,,,,,,,,,,,,,,,,,,,,,,,,,,,,,,,,,1370.6251324999612,1371.6333376999246,1369.0076591999969,1369.0076591999969,1369.0076591999969,1369.0076591999969,,old_fruit_48.png,303,2.0,1.6202491000294685,,ID039,00,2025-01-14_13h06.32.601,Surprise recog test,2023.1.3,None,
303,0,303,0,,,,,,,,,,,,,,,,,,,,,,,,,,,,,,,,,,1372.996295299963,,1371.6333376999246,1371.6333376999246,1371.6333376999246,1371.6333376999246,,old_fruit_5.png,304,3.0,1.3587921999860555,,ID039,00,2025-01-14_13h06.32.601,Surprise recog test,2023.1.3,None,
304,0,304,0,,,,,,,,,,,,,,,,,,,,,,,,,,,,,,,,,,1376.0355476000113,1377.0667631999822,1374.0257451999933,1374.0257451999933,1374.0257451999933,1374.0257451999933,,old_sceneIn_18.png,305,4.0,2.0092237000353634,,ID039,00,2025-01-14_13h06.32.601,Surprise recog test,2023.1.3,None,
305,0,305,0,,,,,,,,,,,,,,,,,,,,,,,,,,,,,,,,,,1378.7324967000168,1379.7589419999858,1377.0667631999822,1377.0667631999822,1377.0667631999822,1377.0667631999822,,new_sceneOut_3.png,306,4.0,1.668435400002636,,ID039,00,2025-01-14_13h06.32.601,Surprise recog test,2023.1.3,None,
306,0,306,0,,,,,,,,,,,,,,,,,,,,,,,,,,,,,,,,,,1381.1845615999773,1382.2006725999527,1379.7589419999858,1379.7589419999858,1379.7589419999858,1379.7589419999858,,old_sceneOut_35.png,307,4.0,1.431290499982424,,ID039,00,2025-01-14_13h06.32.601,Surprise recog test,2023.1.3,None,
307,0,307,0,,,,,,,,,,,,,,,,,,,,,,,,,,,,,,,,,,1384.5963694999227,1385.6166671999963,1382.2006725999527,1382.2006725999527,1382.2006725999527,1382.2006725999527,,new_fruit_9.png,308,3.0,2.390090399887413,,ID039,00,2025-01-14_13h06.32.601,Surprise recog test,2023.1.3,None,
308,0,308,0,,,,,,,,,,,,,,,,,,,,,,,,,,,,,,,,,,1387.2689081999706,1388.2800966999494,1385.6166671999963,1385.6166671999963,1385.6166671999963,1385.6166671999963,,new_sceneOut_20.png,309,4.0,1.6528925000457093,,ID039,00,2025-01-14_13h06.32.601,Surprise recog test,2023.1.3,None,
309,0,309,0,,,,,,,,,,,,,,,,,,,,,,,,,,,,,,,,,,1391.303913099924,1392.3301711999811,1388.2800966999494,1388.2800966999494,1388.2800966999494,1388.2800966999494,,old_sceneIn_27.png,310,4.0,3.019551799981855,,ID039,00,2025-01-14_13h06.32.601,Surprise recog test,2023.1.3,None,
310,0,310,0,,,,,,,,,,,,,,,,,,,,,,,,,,,,,,,,,,1394.9177210000344,1395.9505307000363,1392.3301711999811,1392.3301711999811,1392.3301711999811,1392.3301711999811,,new_sceneOut_24.png,311,3.0,2.590222300030291,,ID039,00,2025-01-14_13h06.32.601,Surprise recog test,2023.1.3,None,
311,0,311,0,,,,,,,,,,,,,,,,,,,,,,,,,,,,,,,,,,1397.1494579999708,,1395.9505307000363,1395.9505307000363,1395.9505307000363,1395.9505307000363,,new_sceneIn_36.png,312,4.0,1.200135700055398,,ID039,00,2025-01-14_13h06.32.601,Surprise recog test,2023.1.3,None,
312,0,312,0,,,,,,,,,,,,,,,,,,,,,,,,,,,,,,,,,,1400.5921074999496,1401.6048872999381,1398.1836442999775,1398.1836442999775,1398.1836442999775,1398.1836442999775,,new_fruit_23.png,313,4.0,2.410851599997841,,ID039,00,2025-01-14_13h06.32.601,Surprise recog test,2023.1.3,None,
313,0,313,0,,,,,,,,,,,,,,,,,,,,,,,,,,,,,,,,,,1403.2894712999696,,1401.6048872999381,1401.6048872999381,1401.6048872999381,1401.6048872999381,,new_sceneIn_27.png,314,4.0,1.6803387999534607,,ID039,00,2025-01-14_13h06.32.601,Surprise recog test,2023.1.3,None,
314,0,314,0,,,,,,,,,,,,,,,,,,,,,,,,,,,,,,,,,,1405.713323200005,1406.7391609000042,1404.3199425999774,1404.3199425999774,1404.3199425999774,1404.3199425999774,,new_fruit_36.png,315,2.0,1.395084699965082,,ID039,00,2025-01-14_13h06.32.601,Surprise recog test,2023.1.3,None,
315,0,315,0,,,,,,,,,,,,,,,,,,,,,,,,,,,,,,,,,,1408.1779151000082,1409.210607099929,1406.7391609000042,1406.7391609000042,1406.7391609000042,1406.7391609000042,,old_sceneOut_36.png,316,4.0,1.4380631000967696,,ID039,00,2025-01-14_13h06.32.601,Surprise recog test,2023.1.3,None,
316,0,316,0,,,,,,,,,,,,,,,,,,,,,,,,,,,,,,,,,,1411.0218219999224,1412.033016799949,1409.210607099929,1409.210607099929,1409.210607099929,1409.210607099929,,old_sceneIn_12.png,317,4.0,1.8113699000095949,,ID039,00,2025-01-14_13h06.32.601,Surprise recog test,2023.1.3,None,
317,0,317,0,,,,,,,,,,,,,,,,,,,,,,,,,,,,,,,,,,1413.9772201000014,1414.9969068999635,1412.033016799949,1412.033016799949,1412.033016799949,1412.033016799949,,new_sceneIn_40.png,318,4.0,1.9392915000207722,,ID039,00,2025-01-14_13h06.32.601,Surprise recog test,2023.1.3,None,
318,0,318,0,,,,,,,,,,,,,,,,,,,,,,,,,,,,,,,,,,1417.8174527999945,,1414.9969068999635,1414.9969068999635,1414.9969068999635,1414.9969068999635,,new_stationery_43.png,319,3.0,2.8211968999821693,,ID039,00,2025-01-14_13h06.32.601,Surprise recog test,2023.1.3,None,
319,0,319,0,,,,,,,,,,,,,,,,,,,,,,,,,,,,,,,,,,1420.3996357999276,1421.40880189999,1418.85371689999,1418.85371689999,1418.85371689999,1418.85371689999,,new_fruit_29.png,320,3.0,1.5498764999210835,,ID039,00,2025-01-14_13h06.32.601,Surprise recog test,2023.1.3,None,
320,0,320,0,,,,,,,,,,,,,,,,,,,,,,,,,,,,,,,,,,1423.1775163999991,1424.2062489000382,1421.40880189999,1421.40880189999,1421.40880189999,1421.40880189999,,old_sceneIn_29.png,321,4.0,1.7657529000425711,,ID039,00,2025-01-14_13h06.32.601,Surprise recog test,2023.1.3,None,
321,0,321,0,,,,,,,,,,,,,,,,,,,,,,,,,,,,,,,,,,1425.9764103000052,1427.011799699976,1424.2062489000382,1424.2062489000382,1424.2062489000382,1424.2062489000382,,new_fruit_1.png,322,2.0,1.7711855999659747,,ID039,00,2025-01-14_13h06.32.601,Surprise recog test,2023.1.3,None,
322,0,322,0,,,,,,,,,,,,,,,,,,,,,,,,,,,,,,,,,,1428.6055133999325,1429.6294074000325,1427.011799699976,1427.011799699976,1427.011799699976,1427.011799699976,,new_fruit_24.png,323,3.0,1.5954382999334484,,ID039,00,2025-01-14_13h06.32.601,Surprise recog test,2023.1.3,None,
323,0,323,0,,,,,,,,,,,,,,,,,,,,,,,,,,,,,,,,,,1431.147239199956,1432.17998669995,1429.6294074000325,1429.6294074000325,1429.6294074000325,1429.6294074000325,,new_fruit_13.png,324,3.0,1.516562599921599,,ID039,00,2025-01-14_13h06.32.601,Surprise recog test,2023.1.3,None,
324,0,324,0,,,,,,,,,,,,,,,,,,,,,,,,,,,,,,,,,,1437.0926344000036,1438.116790900007,1432.17998669995,1432.17998669995,1432.17998669995,1432.17998669995,,new_sceneOut_31.png,325,4.0,4.913536099949852,,ID039,00,2025-01-14_13h06.32.601,Surprise recog test,2023.1.3,None,
325,0,325,0,,,,,,,,,,,,,,,,,,,,,,,,,,,,,,,,,,1439.699053099961,1440.7201339999447,1438.116790900007,1438.116790900007,1438.116790900007,1438.116790900007,,old_stationery_5.png,326,3.0,1.58345240005292,,ID039,00,2025-01-14_13h06.32.601,Surprise recog test,2023.1.3,None,
326,0,326,0,,,,,,,,,,,,,,,,,,,,,,,,,,,,,,,,,,1442.0321739999345,1443.0531298000133,1440.7201339999447,1440.7201339999447,1440.7201339999447,1440.7201339999447,,new_fruit_41.png,327,3.0,1.3119080000324175,,ID039,00,2025-01-14_13h06.32.601,Surprise recog test,2023.1.3,None,
327,0,327,0,,,,,,,,,,,,,,,,,,,,,,,,,,,,,,,,,,1444.7302986999275,1445.756085800007,1443.0531298000133,1443.0531298000133,1443.0531298000133,1443.0531298000133,,new_sceneOut_45.png,328,4.0,1.6776781000662595,,ID039,00,2025-01-14_13h06.32.601,Surprise recog test,2023.1.3,None,
328,0,328,0,,,,,,,,,,,,,,,,,,,,,,,,,,,,,,,,,,1446.7230373999337,,1445.756085800007,1445.756085800007,1445.756085800007,1445.756085800007,,new_sceneOut_4.png,329,4.0,0.9688473999267444,,ID039,00,2025-01-14_13h06.32.601,Surprise recog test,2023.1.3,None,
329,0,329,0,,,,,,,,,,,,,,,,,,,,,,,,,,,,,,,,,,1449.2372364000184,1450.2574701999547,1447.7600080999546,1447.7600080999546,1447.7600080999546,1447.7600080999546,,old_sceneOut_38.png,330,4.0,1.4776278999634087,,ID039,00,2025-01-14_13h06.32.601,Surprise recog test,2023.1.3,None,
330,0,330,0,,,,,,,,,,,,,,,,,,,,,,,,,,,,,,,,,,1452.91668689996,1453.9369546999224,1450.2574701999547,1450.2574701999547,1450.2574701999547,1450.2574701999547,,new_sceneIn_33.png,331,4.0,2.6583300998900086,,ID039,00,2025-01-14_13h06.32.601,Surprise recog test,2023.1.3,None,
331,0,331,0,,,,,,,,,,,,,,,,,,,,,,,,,,,,,,,,,,1456.5490407999605,,1453.9369546999224,1453.9369546999224,1453.9369546999224,1453.9369546999224,,new_sceneIn_3.png,332,4.0,2.6094522000057623,,ID039,00,2025-01-14_13h06.32.601,Surprise recog test,2023.1.3,None,
332,0,332,0,,,,,,,,,,,,,,,,,,,,,,,,,,,,,,,,,,1459.5896566000301,1460.6075493999524,1457.5819046000252,1457.5819046000252,1457.5819046000252,1457.5819046000252,,new_sceneIn_28.png,333,4.0,2.0075854999013245,,ID039,00,2025-01-14_13h06.32.601,Surprise recog test,2023.1.3,None,
333,0,333,0,,,,,,,,,,,,,,,,,,,,,,,,,,,,,,,,,,1462.4153779000044,1463.4401990999468,1460.6075493999524,1460.6075493999524,1460.6075493999524,1460.6075493999524,,new_sceneIn_4.png,334,4.0,1.802140700048767,,ID039,00,2025-01-14_13h06.32.601,Surprise recog test,2023.1.3,None,
334,0,334,0,,,,,,,,,,,,,,,,,,,,,,,,,,,,,,,,,,1464.8041423999239,1465.822279999964,1463.4401990999468,1463.4401990999468,1463.4401990999468,1463.4401990999468,,old_sceneIn_5.png,335,4.0,1.3673730000155047,,ID039,00,2025-01-14_13h06.32.601,Surprise recog test,2023.1.3,None,
335,0,335,0,,,,,,,,,,,,,,,,,,,,,,,,,,,,,,,,,,1467.228849899955,1468.2464781999588,1465.822279999964,1465.822279999964,1465.822279999964,1465.822279999964,,new_stationery_28.png,336,3.0,1.4084791000932455,,ID039,00,2025-01-14_13h06.32.601,Surprise recog test,2023.1.3,None,
336,0,336,0,,,,,,,,,,,,,,,,,,,,,,,,,,,,,,,,,,1469.4952838999452,1470.5270024000201,1468.2464781999588,1468.2464781999588,1468.2464781999588,1468.2464781999588,,new_sceneOut_49.png,337,4.0,1.2446024999953806,,ID039,00,2025-01-14_13h06.32.601,Surprise recog test,2023.1.3,None,
337,0,337,0,,,,,,,,,,,,,,,,,,,,,,,,,,,,,,,,,,1471.9393913999666,1472.950354599976,1470.5270024000201,1470.5270024000201,1470.5270024000201,1470.5270024000201,,old_fruit_21.png,338,3.0,1.4141209999797866,,ID039,00,2025-01-14_13h06.32.601,Surprise recog test,2023.1.3,None,
338,0,338,0,,,,,,,,,,,,,,,,,,,,,,,,,,,,,,,,,,1474.715579599957,,1472.950354599976,1472.950354599976,1472.950354599976,1472.950354599976,,old_fruit_43.png,339,2.0,1.7587821000488475,,ID039,00,2025-01-14_13h06.32.601,Surprise recog test,2023.1.3,None,
339,0,339,0,,,,,,,,,,,,,,,,,,,,,,,,,,,,,,,,,,1478.6813214999856,1479.7001216999488,1475.7483660000144,1475.7483660000144,1475.7483660000144,1475.7483660000144,,new_fruit_42.png,340,3.0,2.9354515000013635,,ID039,00,2025-01-14_13h06.32.601,Surprise recog test,2023.1.3,None,
340,0,340,0,,,,,,,,,,,,,,,,,,,,,,,,,,,,,,,,,,1480.986471000011,,1479.7001216999488,1479.7001216999488,1479.7001216999488,1479.7001216999488,,old_sceneIn_48.png,341,4.0,1.2842502000276,,ID039,00,2025-01-14_13h06.32.601,Surprise recog test,2023.1.3,None,
341,0,341,0,,,,,,,,,,,,,,,,,,,,,,,,,,,,,,,,,,1483.9028276000172,1484.9107930000173,1482.0156063999748,1482.0156063999748,1482.0156063999748,1482.0156063999748,,new_stationery_2.png,342,3.0,1.8901795001002029,,ID039,00,2025-01-14_13h06.32.601,Surprise recog test,2023.1.3,None,
342,0,342,0,,,,,,,,,,,,,,,,,,,,,,,,,,,,,,,,,,1486.069835799979,1487.090365699958,1484.9107930000173,1484.9107930000173,1484.9107930000173,1484.9107930000173,,new_sceneOut_9.png,343,4.0,1.1561332999262959,,ID039,00,2025-01-14_13h06.32.601,Surprise recog test,2023.1.3,None,
343,0,343,0,,,,,,,,,,,,,,,,,,,,,,,,,,,,,,,,,,1488.9020512999268,1489.9119785999646,1487.090365699958,1487.090365699958,1487.090365699958,1487.090365699958,,new_sceneOut_33.png,344,4.0,1.8120016000466421,,ID039,00,2025-01-14_13h06.32.601,Surprise recog test,2023.1.3,None,
344,0,344,0,,,,,,,,,,,,,,,,,,,,,,,,,,,,,,,,,,1491.5321202999912,1492.5646273000166,1489.9119785999646,1489.9119785999646,1489.9119785999646,1489.9119785999646,,old_stationery_34.png,345,3.0,1.616385499946773,,ID039,00,2025-01-14_13h06.32.601,Surprise recog test,2023.1.3,None,
345,0,345,0,,,,,,,,,,,,,,,,,,,,,,,,,,,,,,,,,,1494.6638679000316,,1492.5646273000166,1492.5646273000166,1492.5646273000166,1492.5646273000166,,new_stationery_22.png,346,2.0,2.101009299978614,,ID039,00,2025-01-14_13h06.32.601,Surprise recog test,2023.1.3,None,
346,0,346,0,,,,,,,,,,,,,,,,,,,,,,,,,,,,,,,,,,1497.3163294999395,,1495.6936549999518,1495.6936549999518,1495.6936549999518,1495.6936549999518,,old_sceneIn_8.png,347,4.0,1.6163115000817925,,ID039,00,2025-01-14_13h06.32.601,Surprise recog test,2023.1.3,None,
347,0,347,0,,,,,,,,,,,,,,,,,,,,,,,,,,,,,,,,,,1499.9509078999981,,1498.3509399000322,1498.3509399000322,1498.3509399000322,1498.3509399000322,,old_sceneOut_39.png,348,4.0,1.602808800060302,,ID039,00,2025-01-14_13h06.32.601,Surprise recog test,2023.1.3,None,
348,0,348,0,,,,,,,,,,,,,,,,,,,,,,,,,,,,,,,,,,1505.9599764000159,,1500.9739011999918,1500.9739011999918,1500.9739011999918,1500.9739011999918,1505.9516968999524,old_sceneIn_44.png,349,None,None,,ID039,00,2025-01-14_13h06.32.601,Surprise recog test,2023.1.3,None,
349,0,349,0,,,,,,,,,,,,,,,,,,,,,,,,,,,,,,,,,,1509.3843148000306,1510.3965577000054,1506.978719900013,1506.978719900013,1506.978719900013,1506.978719900013,,old_fruit_31.png,350,3.0,2.4001656000036746,,ID039,00,2025-01-14_13h06.32.601,Surprise recog test,2023.1.3,None,
350,0,350,0,,,,,,,,,,,,,,,,,,,,,,,,,,,,,,,,,,1511.430534199928,1512.4476847000187,1510.3965577000054,1510.3965577000054,1510.3965577000054,1510.3965577000054,,old_sceneIn_33.png,351,4.0,1.030114799970761,,ID039,00,2025-01-14_13h06.32.601,Surprise recog test,2023.1.3,None,
351,0,351,0,,,,,,,,,,,,,,,,,,,,,,,,,,,,,,,,,,1514.4120645000366,1515.427434299956,1512.4476847000187,1512.4476847000187,1512.4476847000187,1512.4476847000187,,old_sceneOut_42.png,352,4.0,1.9595242999494076,,ID039,00,2025-01-14_13h06.32.601,Surprise recog test,2023.1.3,None,
352,0,352,0,,,,,,,,,,,,,,,,,,,,,,,,,,,,,,,,,,1516.9962161999429,1518.0011899999809,1515.427434299956,1515.427434299956,1515.427434299956,1515.427434299956,,old_stationery_26.png,353,2.0,1.5644580000080168,,ID039,00,2025-01-14_13h06.32.601,Surprise recog test,2023.1.3,None,
353,0,353,0,,,,,,,,,,,,,,,,,,,,,,,,,,,,,,,,,,1519.4376990000019,1520.4709678000072,1518.0011899999809,1518.0011899999809,1518.0011899999809,1518.0011899999809,,old_sceneIn_13.png,354,4.0,1.4320765000302345,,ID039,00,2025-01-14_13h06.32.601,Surprise recog test,2023.1.3,None,
354,0,354,0,,,,,,,,,,,,,,,,,,,,,,,,,,,,,,,,,,1521.9264098999556,1522.9431254999945,1520.4709678000072,1520.4709678000072,1520.4709678000072,1520.4709678000072,,old_fruit_7.png,355,3.0,1.4585348000982776,,ID039,00,2025-01-14_13h06.32.601,Surprise recog test,2023.1.3,None,
355,0,355,0,,,,,,,,,,,,,,,,,,,,,,,,,,,,,,,,,,1524.7770972999278,1525.7961069999728,1522.9431254999945,1522.9431254999945,1522.9431254999945,1522.9431254999945,,old_stationery_23.png,356,1.0,1.8289503999985754,,ID039,00,2025-01-14_13h06.32.601,Surprise recog test,2023.1.3,None,
356,0,356,0,,,,,,,,,,,,,,,,,,,,,,,,,,,,,,,,,,1528.7578208999475,,1525.7961069999728,1525.7961069999728,1525.7961069999728,1525.7961069999728,,new_fruit_17.png,357,2.0,2.9593106999527663,,ID039,00,2025-01-14_13h06.32.601,Surprise recog test,2023.1.3,None,
357,0,357,0,,,,,,,,,,,,,,,,,,,,,,,,,,,,,,,,,,1531.5217969999649,1532.533482800005,1529.7911345999455,1529.7911345999455,1529.7911345999455,1529.7911345999455,,old_fruit_17.png,358,3.0,1.7318171000806615,,ID039,00,2025-01-14_13h06.32.601,Surprise recog test,2023.1.3,None,
358,0,358,0,,,,,,,,,,,,,,,,,,,,,,,,,,,,,,,,,,1534.002909300034,1535.0319525999948,1532.533482800005,1532.533482800005,1532.533482800005,1532.533482800005,,old_stationery_43.png,359,2.0,1.4614080000901595,,ID039,00,2025-01-14_13h06.32.601,Surprise recog test,2023.1.3,None,
359,0,359,0,,,,,,,,,,,,,,,,,,,,,,,,,,,,,,,,,,1536.5253726999508,1537.5450572000118,1535.0319525999948,1535.0319525999948,1535.0319525999948,1535.0319525999948,,old_fruit_35.png,360,2.0,1.4938550000078976,,ID039,00,2025-01-14_13h06.32.601,Surprise recog test,2023.1.3,None,
360,0,360,0,,,,,,,,,,,,,,,,,,,,,,,,,,,,,,,,,,1538.708564199973,1539.73499789997,1537.5450572000118,1537.5450572000118,1537.5450572000118,1537.5450572000118,,new_fruit_45.png,361,2.0,1.164795699995011,,ID039,00,2025-01-14_13h06.32.601,Surprise recog test,2023.1.3,None,
361,0,361,0,,,,,,,,,,,,,,,,,,,,,,,,,,,,,,,,,,1541.0958610000089,1542.1228797000367,1539.73499789997,1539.73499789997,1539.73499789997,1539.73499789997,,old_stationery_39.png,362,2.0,1.3631113999290392,,ID039,00,2025-01-14_13h06.32.601,Surprise recog test,2023.1.3,None,
362,0,362,0,,,,,,,,,,,,,,,,,,,,,,,,,,,,,,,,,,1543.69569209998,1544.722781999968,1542.1228797000367,1542.1228797000367,1542.1228797000367,1542.1228797000367,,old_sceneIn_49.png,363,4.0,1.575508899986744,,ID039,00,2025-01-14_13h06.32.601,Surprise recog test,2023.1.3,None,
363,0,363,0,,,,,,,,,,,,,,,,,,,,,,,,,,,,,,,,,,1546.286981399986,1547.2963422000175,1544.722781999968,1544.722781999968,1544.722781999968,1544.722781999968,,old_stationery_33.png,364,2.0,1.5662113999715075,,ID039,00,2025-01-14_13h06.32.601,Surprise recog test,2023.1.3,None,
364,0,364,0,,,,,,,,,,,,,,,,,,,,,,,,,,,,,,,,,,1548.715918699978,1549.7317725999746,1547.2963422000175,1547.2963422000175,1547.2963422000175,1547.2963422000175,,old_stationery_29.png,365,2.0,1.4140125999692827,,ID039,00,2025-01-14_13h06.32.601,Surprise recog test,2023.1.3,None,
365,0,365,0,,,,,,,,,,,,,,,,,,,,,,,,,,,,,,,,,,1551.1531789000146,1552.177100299974,1549.7317725999746,1549.7317725999746,1549.7317725999746,1549.7317725999746,,new_sceneIn_47.png,366,4.0,1.416177500039339,,ID039,00,2025-01-14_13h06.32.601,Surprise recog test,2023.1.3,None,
