trial_loop.thisRepN,trial_loop.thisTrialN,trial_loop.thisN,trial_loop.thisIndex,VAS_slider.started,VAS_text.started,VAS_notstressed_text.started,VAS_stressed_text.started,continue_input.started,continue_text.started,label0.started,label10.started,label20.started,label30.started,label40.started,label50.started,label60.started,label70.started,label80.started,label90.started,label100.started,VAS_slider.response,VAS_slider.rt,VAS_slider.history,Answer_VAS,continue_input.keys,instruction_text.started,continue_text_2.started,continue_input_2.started,continue_input_2.keys,continue_input_2.rt,continue_input_2.duration,example_text.started,example_slider_2.started,example_image.started,example_slider_2.response,example_slider_2.rt,fixcross.started,fixcross.stopped,front_square.started,stim_images.started,trial_inst_images.started,slider_images.started,thisImg,trial_count,slider_images.response,slider_images.rt,slider_images.stopped,outro.started,participant,condition,date,expName,psychopyVersion,frameRate,
,,,,191.09399130003294,191.09399130003294,191.09399130003294,191.09399130003294,191.09399130003294,191.09399130003294,191.09399130003294,191.09399130003294,191.09399130003294,191.09399130003294,191.09399130003294,191.09399130003294,191.09399130003294,191.09399130003294,191.09399130003294,191.09399130003294,191.09399130003294,0,6.372039099980611,"[(0, 6.372039099980611)]",0,None,,,,,,,,,,,,,,,,,,,,,,,,ID040,01,2025-01-21_16h48.09.094,Surprise recog test,2023.1.3,59.946683418554116,
,,,,,,,,,,,,,,,,,,,,,,,,,,197.49258030002238,197.49258030002238,197.49258030002238,space,25.765301499981433,None,,,,,,,,,,,,,,,,,,ID040,01,2025-01-21_16h48.09.094,Surprise recog test,2023.1.3,59.946683418554116,
0,0,0,0,,,,,,,,,,,,,,,,,,,,,,,,,,,,,223.4103560000076,223.4103560000076,223.4103560000076,3.0,45.47809450002387,272.4631919999956,273.49336150003364,269.83999940002104,269.83999940002104,269.83999940002104,269.83999940002104,new_stationery_6.png,1,4.0,2.6286568999639712,,,ID040,01,2025-01-21_16h48.09.094,Surprise recog test,2023.1.3,59.946683418554116,
1,0,1,0,,,,,,,,,,,,,,,,,,,,,,,,,,,,,,,,,,275.79399090004154,,273.49336150003364,273.49336150003364,273.49336150003364,273.49336150003364,new_fruit_20.png,2,5.0,2.303794300009031,,,ID040,01,2025-01-21_16h48.09.094,Surprise recog test,2023.1.3,59.946683418554116,
2,0,2,0,,,,,,,,,,,,,,,,,,,,,,,,,,,,,,,,,,278.6279089000309,279.6342207000125,276.8216830000165,276.8216830000165,276.8216830000165,276.8216830000165,new_stationery_40.png,3,5.0,1.8073137000319548,,,ID040,01,2025-01-21_16h48.09.094,Surprise recog test,2023.1.3,59.946683418554116,
3,0,3,0,,,,,,,,,,,,,,,,,,,,,,,,,,,,,,,,,,282.1636838000268,283.1857821000158,279.6342207000125,279.6342207000125,279.6342207000125,279.6342207000125,old_fruit_39.png,4,3.0,2.5232191999675706,,,ID040,01,2025-01-21_16h48.09.094,Surprise recog test,2023.1.3,59.946683418554116,
4,0,4,0,,,,,,,,,,,,,,,,,,,,,,,,,,,,,,,,,,284.69217970001046,285.7186576999957,283.1857821000158,283.1857821000158,283.1857821000158,283.1857821000158,new_fruit_50.png,5,2.0,1.5088628000230528,,,ID040,01,2025-01-21_16h48.09.094,Surprise recog test,2023.1.3,59.946683418554116,
5,0,5,0,,,,,,,,,,,,,,,,,,,,,,,,,,,,,,,,,,287.87688260001596,288.8897402000148,285.7186576999957,285.7186576999957,285.7186576999957,285.7186576999957,old_sceneOut_47.png,6,5.0,2.1567171000060625,,,ID040,01,2025-01-21_16h48.09.094,Surprise recog test,2023.1.3,59.946683418554116,
6,0,6,0,,,,,,,,,,,,,,,,,,,,,,,,,,,,,,,,,,290.94937260000734,291.9768952000304,288.8897402000148,288.8897402000148,288.8897402000148,288.8897402000148,old_stationery_42.png,7,3.0,2.0562991999904625,,,ID040,01,2025-01-21_16h48.09.094,Surprise recog test,2023.1.3,59.946683418554116,
7,0,7,0,,,,,,,,,,,,,,,,,,,,,,,,,,,,,,,,,,294.5645860999939,295.5924346999964,291.9768952000304,291.9768952000304,291.9768952000304,291.9768952000304,new_sceneIn_47.png,8,4.0,2.5896208999911323,,,ID040,01,2025-01-21_16h48.09.094,Surprise recog test,2023.1.3,59.946683418554116,
8,0,8,0,,,,,,,,,,,,,,,,,,,,,,,,,,,,,,,,,,297.11865200003376,298.1346388999955,295.5924346999964,295.5924346999964,295.5924346999964,295.5924346999964,old_sceneIn_50.png,9,4.0,1.5252556999912485,,,ID040,01,2025-01-21_16h48.09.094,Surprise recog test,2023.1.3,59.946683418554116,
9,0,9,0,,,,,,,,,,,,,,,,,,,,,,,,,,,,,,,,,,299.79424960003234,300.80374970001867,298.1346388999955,298.1346388999955,298.1346388999955,298.1346388999955,old_sceneIn_31.png,10,1.0,1.6537570000509731,,,ID040,01,2025-01-21_16h48.09.094,Surprise recog test,2023.1.3,59.946683418554116,
10,0,10,0,,,,,,,,,,,,,,,,,,,,,,,,,,,,,,,,,,303.5148819999886,304.5343643000233,300.80374970001867,300.80374970001867,300.80374970001867,300.80374970001867,old_sceneIn_12.png,11,4.0,2.7080676999757998,,,ID040,01,2025-01-21_16h48.09.094,Surprise recog test,2023.1.3,59.946683418554116,
11,0,11,0,,,,,,,,,,,,,,,,,,,,,,,,,,,,,,,,,,307.03775060002226,,304.5343643000233,304.5343643000233,304.5343643000233,304.5343643000233,new_fruit_4.png,12,2.0,2.5032254999969155,,,ID040,01,2025-01-21_16h48.09.094,Surprise recog test,2023.1.3,59.946683418554116,
12,0,12,0,,,,,,,,,,,,,,,,,,,,,,,,,,,,,,,,,,309.6914037000388,310.7261089000385,308.07016310002655,308.07016310002655,308.07016310002655,308.07016310002655,new_fruit_30.png,13,2.0,1.6234743999666534,,,ID040,01,2025-01-21_16h48.09.094,Surprise recog test,2023.1.3,59.946683418554116,
13,0,13,0,,,,,,,,,,,,,,,,,,,,,,,,,,,,,,,,,,312.8719417999964,313.8934118000325,310.7261089000385,310.7261089000385,310.7261089000385,310.7261089000385,new_sceneOut_33.png,14,2.0,2.147552300011739,,,ID040,01,2025-01-21_16h48.09.094,Surprise recog test,2023.1.3,59.946683418554116,
14,0,14,0,,,,,,,,,,,,,,,,,,,,,,,,,,,,,,,,,,316.9506288000266,317.9632115000277,313.8934118000325,313.8934118000325,313.8934118000325,313.8934118000325,new_sceneOut_5.png,15,3.0,3.057039499981329,,,ID040,01,2025-01-21_16h48.09.094,Surprise recog test,2023.1.3,59.946683418554116,
15,0,15,0,,,,,,,,,,,,,,,,,,,,,,,,,,,,,,,,,,320.4452128999983,321.4653326999978,317.9632115000277,317.9632115000277,317.9632115000277,317.9632115000277,old_stationery_21.png,16,3.0,2.4780196999781765,,,ID040,01,2025-01-21_16h48.09.094,Surprise recog test,2023.1.3,59.946683418554116,
16,0,16,0,,,,,,,,,,,,,,,,,,,,,,,,,,,,,,,,,,324.0906794000184,325.1141777000157,321.4653326999978,321.4653326999978,321.4653326999978,321.4653326999978,new_fruit_44.png,17,4.0,2.6300474000163376,,,ID040,01,2025-01-21_16h48.09.094,Surprise recog test,2023.1.3,59.946683418554116,
17,0,17,0,,,,,,,,,,,,,,,,,,,,,,,,,,,,,,,,,,327.0321139000007,328.0411091000424,325.1141777000157,325.1141777000157,325.1141777000157,325.1141777000157,old_sceneIn_20.png,18,4.0,1.9186958000063896,,,ID040,01,2025-01-21_16h48.09.094,Surprise recog test,2023.1.3,59.946683418554116,
18,0,18,0,,,,,,,,,,,,,,,,,,,,,,,,,,,,,,,,,,329.7080204000231,330.7303661000333,328.0411091000424,328.0411091000424,328.0411091000424,328.0411091000424,old_sceneIn_41.png,19,5.0,1.6621515000006184,,,ID040,01,2025-01-21_16h48.09.094,Surprise recog test,2023.1.3,59.946683418554116,
19,0,19,0,,,,,,,,,,,,,,,,,,,,,,,,,,,,,,,,,,334.04092050000327,335.0528370999964,330.7303661000333,330.7303661000333,330.7303661000333,330.7303661000333,old_sceneOut_3.png,20,4.0,3.307517300010659,,,ID040,01,2025-01-21_16h48.09.094,Surprise recog test,2023.1.3,59.946683418554116,
20,0,20,0,,,,,,,,,,,,,,,,,,,,,,,,,,,,,,,,,,337.40097370004514,338.4259269000031,335.0528370999964,335.0528370999964,335.0528370999964,335.0528370999964,old_fruit_40.png,21,1.0,2.3493987999972887,,,ID040,01,2025-01-21_16h48.09.094,Surprise recog test,2023.1.3,59.946683418554116,
21,0,21,0,,,,,,,,,,,,,,,,,,,,,,,,,,,,,,,,,,341.06937750004,342.1002860000008,338.4259269000031,338.4259269000031,338.4259269000031,338.4259269000031,new_stationery_27.png,22,5.0,2.645223699975759,,,ID040,01,2025-01-21_16h48.09.094,Surprise recog test,2023.1.3,59.946683418554116,
22,0,22,0,,,,,,,,,,,,,,,,,,,,,,,,,,,,,,,,,,344.65769690001616,345.6864511000458,342.1002860000008,342.1002860000008,342.1002860000008,342.1002860000008,old_stationery_20.png,23,4.0,2.5599293999839574,,,ID040,01,2025-01-21_16h48.09.094,Surprise recog test,2023.1.3,59.946683418554116,
23,0,23,0,,,,,,,,,,,,,,,,,,,,,,,,,,,,,,,,,,347.0432084000204,348.0709780000034,345.6864511000458,345.6864511000458,345.6864511000458,345.6864511000458,new_sceneIn_30.png,24,5.0,1.3581867999746464,,,ID040,01,2025-01-21_16h48.09.094,Surprise recog test,2023.1.3,59.946683418554116,
24,0,24,0,,,,,,,,,,,,,,,,,,,,,,,,,,,,,,,,,,351.1132282000035,352.14091080002254,348.0709780000034,348.0709780000034,348.0709780000034,348.0709780000034,new_sceneOut_15.png,25,2.0,3.0439102999516763,,,ID040,01,2025-01-21_16h48.09.094,Surprise recog test,2023.1.3,59.946683418554116,
25,0,25,0,,,,,,,,,,,,,,,,,,,,,,,,,,,,,,,,,,353.4395232000388,354.4447463999968,352.14091080002254,352.14091080002254,352.14091080002254,352.14091080002254,old_stationery_12.png,26,1.0,1.3005651000421494,,,ID040,01,2025-01-21_16h48.09.094,Surprise recog test,2023.1.3,59.946683418554116,
26,0,26,0,,,,,,,,,,,,,,,,,,,,,,,,,,,,,,,,,,356.77411649998976,357.8001748000388,354.4447463999968,354.4447463999968,354.4447463999968,354.4447463999968,old_sceneOut_2.png,27,3.0,2.323390199977439,,,ID040,01,2025-01-21_16h48.09.094,Surprise recog test,2023.1.3,59.946683418554116,
27,0,27,0,,,,,,,,,,,,,,,,,,,,,,,,,,,,,,,,,,359.1052499000216,360.1308702999959,357.8001748000388,357.8001748000388,357.8001748000388,357.8001748000388,new_sceneOut_3.png,28,2.0,1.308704100025352,,,ID040,01,2025-01-21_16h48.09.094,Surprise recog test,2023.1.3,59.946683418554116,
28,0,28,0,,,,,,,,,,,,,,,,,,,,,,,,,,,,,,,,,,361.9088943999959,362.9311149000423,360.1308702999959,360.1308702999959,360.1308702999959,360.1308702999959,new_sceneIn_11.png,29,4.0,1.7805514999781735,,,ID040,01,2025-01-21_16h48.09.094,Surprise recog test,2023.1.3,59.946683418554116,
29,0,29,0,,,,,,,,,,,,,,,,,,,,,,,,,,,,,,,,,,364.3569319000235,365.3855232000351,362.9311149000423,362.9311149000423,362.9311149000423,362.9311149000423,new_sceneOut_40.png,30,3.0,1.4246208000113256,,,ID040,01,2025-01-21_16h48.09.094,Surprise recog test,2023.1.3,59.946683418554116,
30,0,30,0,,,,,,,,,,,,,,,,,,,,,,,,,,,,,,,,,,369.1229856000282,370.14102490001824,365.3855232000351,365.3855232000351,365.3855232000351,365.3855232000351,old_sceneIn_23.png,31,4.0,3.740030499990098,,,ID040,01,2025-01-21_16h48.09.094,Surprise recog test,2023.1.3,59.946683418554116,
31,0,31,0,,,,,,,,,,,,,,,,,,,,,,,,,,,,,,,,,,371.59136310004396,,370.14102490001824,370.14102490001824,370.14102490001824,370.14102490001824,new_sceneIn_4.png,32,5.0,1.44689310004469,,,ID040,01,2025-01-21_16h48.09.094,Surprise recog test,2023.1.3,59.946683418554116,
32,0,32,0,,,,,,,,,,,,,,,,,,,,,,,,,,,,,,,,,,375.03965900000185,376.0601583000389,372.62395850004395,372.62395850004395,372.62395850004395,372.62395850004395,old_sceneIn_10.png,33,3.0,2.4178036999655887,,,ID040,01,2025-01-21_16h48.09.094,Surprise recog test,2023.1.3,59.946683418554116,
33,0,33,0,,,,,,,,,,,,,,,,,,,,,,,,,,,,,,,,,,377.58326829998987,378.61043020000216,376.0601583000389,376.0601583000389,376.0601583000389,376.0601583000389,new_sceneIn_43.png,34,5.0,1.5250712999841198,,,ID040,01,2025-01-21_16h48.09.094,Surprise recog test,2023.1.3,59.946683418554116,
34,0,34,0,,,,,,,,,,,,,,,,,,,,,,,,,,,,,,,,,,379.88538019999396,380.9028851999901,378.61043020000216,378.61043020000216,378.61043020000216,378.61043020000216,old_sceneOut_8.png,35,2.0,1.2772935000248253,,,ID040,01,2025-01-21_16h48.09.094,Surprise recog test,2023.1.3,59.946683418554116,
35,0,35,0,,,,,,,,,,,,,,,,,,,,,,,,,,,,,,,,,,382.0101881000446,383.0335861000349,380.9028851999901,380.9028851999901,380.9028851999901,380.9028851999901,old_fruit_3.png,36,2.0,1.100752199999988,,,ID040,01,2025-01-21_16h48.09.094,Surprise recog test,2023.1.3,59.946683418554116,
36,0,36,0,,,,,,,,,,,,,,,,,,,,,,,,,,,,,,,,,,385.45615839998936,386.4895647999947,383.0335861000349,383.0335861000349,383.0335861000349,383.0335861000349,new_stationery_26.png,37,3.0,2.4245504999998957,,,ID040,01,2025-01-21_16h48.09.094,Surprise recog test,2023.1.3,59.946683418554116,
37,0,37,0,,,,,,,,,,,,,,,,,,,,,,,,,,,,,,,,,,388.16786750004394,389.17248619999737,386.4895647999947,386.4895647999947,386.4895647999947,386.4895647999947,old_fruit_14.png,38,1.0,1.6756572999875061,,,ID040,01,2025-01-21_16h48.09.094,Surprise recog test,2023.1.3,59.946683418554116,
38,0,38,0,,,,,,,,,,,,,,,,,,,,,,,,,,,,,,,,,,392.0377650000155,393.05774790002033,389.17248619999737,389.17248619999737,389.17248619999737,389.17248619999737,new_sceneIn_26.png,39,5.0,2.8565753000439145,,,ID040,01,2025-01-21_16h48.09.094,Surprise recog test,2023.1.3,59.946683418554116,
39,0,39,0,,,,,,,,,,,,,,,,,,,,,,,,,,,,,,,,,,394.4736092000385,395.494608100038,393.05774790002033,393.05774790002033,393.05774790002033,393.05774790002033,old_sceneIn_16.png,40,5.0,1.4180429999832995,,,ID040,01,2025-01-21_16h48.09.094,Surprise recog test,2023.1.3,59.946683418554116,
40,0,40,0,,,,,,,,,,,,,,,,,,,,,,,,,,,,,,,,,,397.16604109999025,398.1953754000133,395.494608100038,395.494608100038,395.494608100038,395.494608100038,new_sceneIn_6.png,41,5.0,1.6744003999629058,,,ID040,01,2025-01-21_16h48.09.094,Surprise recog test,2023.1.3,59.946683418554116,
41,0,41,0,,,,,,,,,,,,,,,,,,,,,,,,,,,,,,,,,,401.57623460004106,402.58802399999695,398.1953754000133,398.1953754000133,398.1953754000133,398.1953754000133,old_fruit_31.png,42,4.0,3.383670599956531,,,ID040,01,2025-01-21_16h48.09.094,Surprise recog test,2023.1.3,59.946683418554116,
42,0,42,0,,,,,,,,,,,,,,,,,,,,,,,,,,,,,,,,,,404.6959841999924,405.7184349000454,402.58802399999695,402.58802399999695,402.58802399999695,402.58802399999695,old_sceneOut_50.png,43,4.0,2.101149299996905,,,ID040,01,2025-01-21_16h48.09.094,Surprise recog test,2023.1.3,59.946683418554116,
43,0,43,0,,,,,,,,,,,,,,,,,,,,,,,,,,,,,,,,,,407.71748160000425,408.7466210999992,405.7184349000454,405.7184349000454,405.7184349000454,405.7184349000454,new_sceneIn_21.png,44,4.0,1.9972382999840192,,,ID040,01,2025-01-21_16h48.09.094,Surprise recog test,2023.1.3,59.946683418554116,
44,0,44,0,,,,,,,,,,,,,,,,,,,,,,,,,,,,,,,,,,411.96614920004504,412.97934210003586,408.7466210999992,408.7466210999992,408.7466210999992,408.7466210999992,old_sceneOut_46.png,45,2.0,3.2251148999785073,,,ID040,01,2025-01-21_16h48.09.094,Surprise recog test,2023.1.3,59.946683418554116,
45,0,45,0,,,,,,,,,,,,,,,,,,,,,,,,,,,,,,,,,,414.90980760002276,,412.97934210003586,412.97934210003586,412.97934210003586,412.97934210003586,new_fruit_40.png,46,3.0,1.9235071000293829,,,ID040,01,2025-01-21_16h48.09.094,Surprise recog test,2023.1.3,59.946683418554116,
46,0,46,0,,,,,,,,,,,,,,,,,,,,,,,,,,,,,,,,,,418.1259410000057,419.1435124000418,415.93553360004444,415.93553360004444,415.93553360004444,415.93553360004444,old_sceneOut_4.png,47,4.0,2.190363800036721,,,ID040,01,2025-01-21_16h48.09.094,Surprise recog test,2023.1.3,59.946683418554116,
47,0,47,0,,,,,,,,,,,,,,,,,,,,,,,,,,,,,,,,,,420.82177620002767,421.8497313000262,419.1435124000418,419.1435124000418,419.1435124000418,419.1435124000418,new_sceneOut_34.png,48,2.0,1.6805301000131294,,,ID040,01,2025-01-21_16h48.09.094,Surprise recog test,2023.1.3,59.946683418554116,
48,0,48,0,,,,,,,,,,,,,,,,,,,,,,,,,,,,,,,,,,423.26869980001356,424.29864150000503,421.8497313000262,421.8497313000262,421.8497313000262,421.8497313000262,new_sceneIn_3.png,49,4.0,1.4226051000296138,,,ID040,01,2025-01-21_16h48.09.094,Surprise recog test,2023.1.3,59.946683418554116,
49,0,49,0,,,,,,,,,,,,,,,,,,,,,,,,,,,,,,,,,,425.74308620003285,426.7568092000438,424.29864150000503,424.29864150000503,424.29864150000503,424.29864150000503,new_sceneIn_31.png,50,5.0,1.4431278000120074,,,ID040,01,2025-01-21_16h48.09.094,Surprise recog test,2023.1.3,59.946683418554116,
50,0,50,0,,,,,,,,,,,,,,,,,,,,,,,,,,,,,,,,,,429.3684995000367,430.38615590002155,426.7568092000438,426.7568092000438,426.7568092000438,426.7568092000438,new_sceneIn_20.png,51,5.0,2.6068645999766886,,,ID040,01,2025-01-21_16h48.09.094,Surprise recog test,2023.1.3,59.946683418554116,
51,0,51,0,,,,,,,,,,,,,,,,,,,,,,,,,,,,,,,,,,431.73104320000857,432.7569332999992,430.38615590002155,430.38615590002155,430.38615590002155,430.38615590002155,old_sceneIn_15.png,52,5.0,1.346338499977719,,,ID040,01,2025-01-21_16h48.09.094,Surprise recog test,2023.1.3,59.946683418554116,
52,0,52,0,,,,,,,,,,,,,,,,,,,,,,,,,,,,,,,,,,434.345832800027,435.3807235000422,432.7569332999992,432.7569332999992,432.7569332999992,432.7569332999992,old_fruit_6.png,53,1.0,1.5896788999671116,,,ID040,01,2025-01-21_16h48.09.094,Surprise recog test,2023.1.3,59.946683418554116,
53,0,53,0,,,,,,,,,,,,,,,,,,,,,,,,,,,,,,,,,,437.975781599991,438.98388300003717,435.3807235000422,435.3807235000422,435.3807235000422,435.3807235000422,old_stationery_15.png,54,3.0,2.5997108000447042,,,ID040,01,2025-01-21_16h48.09.094,Surprise recog test,2023.1.3,59.946683418554116,
54,0,54,0,,,,,,,,,,,,,,,,,,,,,,,,,,,,,,,,,,440.1645431999932,,438.98388300003717,438.98388300003717,438.98388300003717,438.98388300003717,new_fruit_49.png,55,1.0,1.176558599981945,,,ID040,01,2025-01-21_16h48.09.094,Surprise recog test,2023.1.3,59.946683418554116,
55,0,55,0,,,,,,,,,,,,,,,,,,,,,,,,,,,,,,,,,,442.4734234000207,443.4998305999907,441.1988154000137,441.1988154000137,441.1988154000137,441.1988154000137,new_stationery_29.png,56,5.0,1.2755147999851033,,,ID040,01,2025-01-21_16h48.09.094,Surprise recog test,2023.1.3,59.946683418554116,
56,0,56,0,,,,,,,,,,,,,,,,,,,,,,,,,,,,,,,,,,444.87097310001263,445.90249860001495,443.4998305999907,443.4998305999907,443.4998305999907,443.4998305999907,new_sceneOut_43.png,57,2.0,1.3729780999710783,,,ID040,01,2025-01-21_16h48.09.094,Surprise recog test,2023.1.3,59.946683418554116,
57,0,57,0,,,,,,,,,,,,,,,,,,,,,,,,,,,,,,,,,,447.984489399998,448.99358609999763,445.90249860001495,445.90249860001495,445.90249860001495,445.90249860001495,new_sceneIn_10.png,58,4.0,2.0830934999976307,,,ID040,01,2025-01-21_16h48.09.094,Surprise recog test,2023.1.3,59.946683418554116,
58,0,58,0,,,,,,,,,,,,,,,,,,,,,,,,,,,,,,,,,,451.2232387000113,,448.99358609999763,448.99358609999763,448.99358609999763,448.99358609999763,new_stationery_49.png,59,5.0,2.2237661000108346,,,ID040,01,2025-01-21_16h48.09.094,Surprise recog test,2023.1.3,59.946683418554116,
59,0,59,0,,,,,,,,,,,,,,,,,,,,,,,,,,,,,,,,,,454.46143339999253,455.4885434000171,452.2573579000309,452.2573579000309,452.2573579000309,452.2573579000309,old_stationery_4.png,60,4.0,2.2063351000542752,,,ID040,01,2025-01-21_16h48.09.094,Surprise recog test,2023.1.3,59.946683418554116,
60,0,60,0,,,,,,,,,,,,,,,,,,,,,,,,,,,,,,,,,,456.61807970004156,457.6318431000109,455.4885434000171,455.4885434000171,455.4885434000171,455.4885434000171,old_fruit_49.png,61,1.0,1.1285039999638684,,,ID040,01,2025-01-21_16h48.09.094,Surprise recog test,2023.1.3,59.946683418554116,
61,0,61,0,,,,,,,,,,,,,,,,,,,,,,,,,,,,,,,,,,461.24674560001586,462.26257600000827,457.6318431000109,457.6318431000109,457.6318431000109,457.6318431000109,new_fruit_8.png,62,3.0,3.6114182000164874,,,ID040,01,2025-01-21_16h48.09.094,Surprise recog test,2023.1.3,59.946683418554116,
62,0,62,0,,,,,,,,,,,,,,,,,,,,,,,,,,,,,,,,,,463.44715610001003,464.46664260001853,462.26257600000827,462.26257600000827,462.26257600000827,462.26257600000827,new_sceneIn_29.png,63,5.0,1.1810597999719903,,,ID040,01,2025-01-21_16h48.09.094,Surprise recog test,2023.1.3,59.946683418554116,
63,0,63,0,,,,,,,,,,,,,,,,,,,,,,,,,,,,,,,,,,468.0881863000104,,464.46664260001853,464.46664260001853,464.46664260001853,464.46664260001853,new_sceneOut_9.png,64,3.0,3.622334100014996,,,ID040,01,2025-01-21_16h48.09.094,Surprise recog test,2023.1.3,59.946683418554116,
64,0,64,0,,,,,,,,,,,,,,,,,,,,,,,,,,,,,,,,,,470.5774539000122,471.5949764000252,469.1218729999964,469.1218729999964,469.1218729999964,469.1218729999964,new_fruit_37.png,65,2.0,1.4554819000186399,,,ID040,01,2025-01-21_16h48.09.094,Surprise recog test,2023.1.3,59.946683418554116,
65,0,65,0,,,,,,,,,,,,,,,,,,,,,,,,,,,,,,,,,,474.4912248000037,475.5091219000169,471.5949764000252,471.5949764000252,471.5949764000252,471.5949764000252,old_stationery_8.png,66,2.0,2.8909486000193283,,,ID040,01,2025-01-21_16h48.09.094,Surprise recog test,2023.1.3,59.946683418554116,
66,0,66,0,,,,,,,,,,,,,,,,,,,,,,,,,,,,,,,,,,476.70530910004163,477.72744280000916,475.5091219000169,475.5091219000169,475.5091219000169,475.5091219000169,old_stationery_35.png,67,1.0,1.1989126999978907,,,ID040,01,2025-01-21_16h48.09.094,Surprise recog test,2023.1.3,59.946683418554116,
67,0,67,0,,,,,,,,,,,,,,,,,,,,,,,,,,,,,,,,,,479.1318876000005,480.1526879000012,477.72744280000916,477.72744280000916,477.72744280000916,477.72744280000916,old_sceneOut_14.png,68,5.0,1.4040444999700412,,,ID040,01,2025-01-21_16h48.09.094,Surprise recog test,2023.1.3,59.946683418554116,
68,0,68,0,,,,,,,,,,,,,,,,,,,,,,,,,,,,,,,,,,482.57700200000545,483.5988567000022,480.1526879000012,480.1526879000012,480.1526879000012,480.1526879000012,new_fruit_31.png,69,3.0,2.419863599992823,,,ID040,01,2025-01-21_16h48.09.094,Surprise recog test,2023.1.3,59.946683418554116,
69,0,69,0,,,,,,,,,,,,,,,,,,,,,,,,,,,,,,,,,,484.9984921000432,486.01607100002,483.5988567000022,483.5988567000022,483.5988567000022,483.5988567000022,old_fruit_35.png,70,1.0,1.3950851000263356,,,ID040,01,2025-01-21_16h48.09.094,Surprise recog test,2023.1.3,59.946683418554116,
70,0,70,0,,,,,,,,,,,,,,,,,,,,,,,,,,,,,,,,,,487.4004397999961,488.416249300004,486.01607100002,486.01607100002,486.01607100002,486.01607100002,old_sceneIn_30.png,71,5.0,1.3844988999771886,,,ID040,01,2025-01-21_16h48.09.094,Surprise recog test,2023.1.3,59.946683418554116,
71,0,71,0,,,,,,,,,,,,,,,,,,,,,,,,,,,,,,,,,,489.72369519999484,490.753615499998,488.416249300004,488.416249300004,488.416249300004,488.416249300004,old_fruit_2.png,72,1.0,1.309537699969951,,,ID040,01,2025-01-21_16h48.09.094,Surprise recog test,2023.1.3,59.946683418554116,
72,0,72,0,,,,,,,,,,,,,,,,,,,,,,,,,,,,,,,,,,493.9157761000097,494.9440302000148,490.753615499998,490.753615499998,490.753615499998,490.753615499998,old_sceneIn_47.png,73,5.0,3.163865100010298,,,ID040,01,2025-01-21_16h48.09.094,Surprise recog test,2023.1.3,59.946683418554116,
73,0,73,0,,,,,,,,,,,,,,,,,,,,,,,,,,,,,,,,,,496.47807130002184,,494.9440302000148,494.9440302000148,494.9440302000148,494.9440302000148,new_stationery_38.png,74,2.0,1.5357699999585748,,,ID040,01,2025-01-21_16h48.09.094,Surprise recog test,2023.1.3,59.946683418554116,
74,0,74,0,,,,,,,,,,,,,,,,,,,,,,,,,,,,,,,,,,499.0358074000105,500.066992600041,497.51093240000773,497.51093240000773,497.51093240000773,497.51093240000773,old_sceneIn_7.png,75,4.0,1.5268379000481218,,,ID040,01,2025-01-21_16h48.09.094,Surprise recog test,2023.1.3,59.946683418554116,
75,0,75,0,,,,,,,,,,,,,,,,,,,,,,,,,,,,,,,,,,501.9047393000219,502.9216369999922,500.066992600041,500.066992600041,500.066992600041,500.066992600041,old_sceneIn_5.png,76,4.0,1.8415304999798536,,,ID040,01,2025-01-21_16h48.09.094,Surprise recog test,2023.1.3,59.946683418554116,
76,0,76,0,,,,,,,,,,,,,,,,,,,,,,,,,,,,,,,,,,504.2526048000436,505.28384230000665,502.9216369999922,502.9216369999922,502.9216369999922,502.9216369999922,new_sceneIn_15.png,77,4.0,1.3261961999814957,,,ID040,01,2025-01-21_16h48.09.094,Surprise recog test,2023.1.3,59.946683418554116,
77,0,77,0,,,,,,,,,,,,,,,,,,,,,,,,,,,,,,,,,,506.76990469999146,,505.28384230000665,505.28384230000665,505.28384230000665,505.28384230000665,old_stationery_34.png,78,1.0,1.4883040999993682,,,ID040,01,2025-01-21_16h48.09.094,Surprise recog test,2023.1.3,59.946683418554116,
78,0,78,0,,,,,,,,,,,,,,,,,,,,,,,,,,,,,,,,,,509.5858092000126,510.61180690000765,507.7911791999941,507.7911791999941,507.7911791999941,507.7911791999941,old_sceneOut_29.png,79,2.0,1.7940287999808788,,,ID040,01,2025-01-21_16h48.09.094,Surprise recog test,2023.1.3,59.946683418554116,
79,0,79,0,,,,,,,,,,,,,,,,,,,,,,,,,,,,,,,,,,512.7170992000028,513.7426741000381,510.61180690000765,510.61180690000765,510.61180690000765,510.61180690000765,new_fruit_35.png,80,2.0,2.1087413000059314,,,ID040,01,2025-01-21_16h48.09.094,Surprise recog test,2023.1.3,59.946683418554116,
80,0,80,0,,,,,,,,,,,,,,,,,,,,,,,,,,,,,,,,,,515.0352475999971,516.0585800000117,513.7426741000381,513.7426741000381,513.7426741000381,513.7426741000381,new_sceneOut_48.png,81,4.0,1.295212899975013,,,ID040,01,2025-01-21_16h48.09.094,Surprise recog test,2023.1.3,59.946683418554116,
81,0,81,0,,,,,,,,,,,,,,,,,,,,,,,,,,,,,,,,,,517.6574660000042,518.6675925000454,516.0585800000117,516.0585800000117,516.0585800000117,516.0585800000117,old_sceneOut_28.png,82,4.0,1.6005802000290714,,,ID040,01,2025-01-21_16h48.09.094,Surprise recog test,2023.1.3,59.946683418554116,
82,0,82,0,,,,,,,,,,,,,,,,,,,,,,,,,,,,,,,,,,520.1217770000221,521.1452973000123,518.6675925000454,518.6675925000454,518.6675925000454,518.6675925000454,new_sceneOut_17.png,83,2.0,1.44788430002518,,,ID040,01,2025-01-21_16h48.09.094,Surprise recog test,2023.1.3,59.946683418554116,
83,0,83,0,,,,,,,,,,,,,,,,,,,,,,,,,,,,,,,,,,522.2319032000378,,521.1452973000123,521.1452973000123,521.1452973000123,521.1452973000123,old_fruit_11.png,84,1.0,1.0877546000410803,,,ID040,01,2025-01-21_16h48.09.094,Surprise recog test,2023.1.3,59.946683418554116,
84,0,84,0,,,,,,,,,,,,,,,,,,,,,,,,,,,,,,,,,,525.8803637000383,526.9066966000246,523.2697069999995,523.2697069999995,523.2697069999995,523.2697069999995,new_stationery_8.png,85,5.0,2.6144321000319906,,,ID040,01,2025-01-21_16h48.09.094,Surprise recog test,2023.1.3,59.946683418554116,
85,0,85,0,,,,,,,,,,,,,,,,,,,,,,,,,,,,,,,,,,528.6262362000416,529.6545770000084,526.9066966000246,526.9066966000246,526.9066966000246,526.9066966000246,old_sceneOut_26.png,86,3.0,1.7217783000087366,,,ID040,01,2025-01-21_16h48.09.094,Surprise recog test,2023.1.3,59.946683418554116,
86,0,86,0,,,,,,,,,,,,,,,,,,,,,,,,,,,,,,,,,,531.6303117999923,532.6566331000067,529.6545770000084,529.6545770000084,529.6545770000084,529.6545770000084,new_sceneOut_27.png,87,2.0,1.977843499975279,,,ID040,01,2025-01-21_16h48.09.094,Surprise recog test,2023.1.3,59.946683418554116,
87,0,87,0,,,,,,,,,,,,,,,,,,,,,,,,,,,,,,,,,,534.2056338000111,535.2146068000002,532.6566331000067,532.6566331000067,532.6566331000067,532.6566331000067,new_sceneOut_26.png,88,2.0,1.5507746000075713,,,ID040,01,2025-01-21_16h48.09.094,Surprise recog test,2023.1.3,59.946683418554116,
88,0,88,0,,,,,,,,,,,,,,,,,,,,,,,,,,,,,,,,,,536.3107856000424,,535.2146068000002,535.2146068000002,535.2146068000002,535.2146068000002,old_sceneOut_49.png,89,2.0,1.093266699986998,,,ID040,01,2025-01-21_16h48.09.094,Surprise recog test,2023.1.3,59.946683418554116,
89,0,89,0,,,,,,,,,,,,,,,,,,,,,,,,,,,,,,,,,,539.0706857999903,540.0857778000063,537.3306150000426,537.3306150000426,537.3306150000426,537.3306150000426,new_stationery_44.png,90,4.0,1.7348923000390641,,,ID040,01,2025-01-21_16h48.09.094,Surprise recog test,2023.1.3,59.946683418554116,
90,0,90,0,,,,,,,,,,,,,,,,,,,,,,,,,,,,,,,,,,541.3360330000287,542.3496788000339,540.0857778000063,540.0857778000063,540.0857778000063,540.0857778000063,new_sceneIn_12.png,91,4.0,1.2461963000241667,,,ID040,01,2025-01-21_16h48.09.094,Surprise recog test,2023.1.3,59.946683418554116,
91,0,91,0,,,,,,,,,,,,,,,,,,,,,,,,,,,,,,,,,,544.9186005000374,,542.3496788000339,542.3496788000339,542.3496788000339,542.3496788000339,new_stationery_19.png,92,3.0,2.563736699987203,,,ID040,01,2025-01-21_16h48.09.094,Surprise recog test,2023.1.3,59.946683418554116,
92,0,92,0,,,,,,,,,,,,,,,,,,,,,,,,,,,,,,,,,,547.6688630999997,548.6851088000112,545.9398234999971,545.9398234999971,545.9398234999971,545.9398234999971,new_stationery_9.png,93,4.0,1.7250147999729961,,,ID040,01,2025-01-21_16h48.09.094,Surprise recog test,2023.1.3,59.946683418554116,
93,0,93,0,,,,,,,,,,,,,,,,,,,,,,,,,,,,,,,,,,551.6371064000414,552.6555454999907,548.6851088000112,548.6851088000112,548.6851088000112,548.6851088000112,new_stationery_47.png,94,4.0,2.945739999995567,,,ID040,01,2025-01-21_16h48.09.094,Surprise recog test,2023.1.3,59.946683418554116,
94,0,94,0,,,,,,,,,,,,,,,,,,,,,,,,,,,,,,,,,,555.946808000037,556.9771183000412,552.6555454999907,552.6555454999907,552.6555454999907,552.6555454999907,old_sceneOut_6.png,95,3.0,3.2929812999791466,,,ID040,01,2025-01-21_16h48.09.094,Surprise recog test,2023.1.3,59.946683418554116,
95,0,95,0,,,,,,,,,,,,,,,,,,,,,,,,,,,,,,,,,,559.3231498000096,560.3348236000165,556.9771183000412,556.9771183000412,556.9771183000412,556.9771183000412,new_fruit_13.png,96,4.0,2.3479902999824844,,,ID040,01,2025-01-21_16h48.09.094,Surprise recog test,2023.1.3,59.946683418554116,
96,0,96,0,,,,,,,,,,,,,,,,,,,,,,,,,,,,,,,,,,562.837406000006,563.8664719000226,560.3348236000165,560.3348236000165,560.3348236000165,560.3348236000165,old_stationery_2.png,97,3.0,2.498387700004969,,,ID040,01,2025-01-21_16h48.09.094,Surprise recog test,2023.1.3,59.946683418554116,
97,0,97,0,,,,,,,,,,,,,,,,,,,,,,,,,,,,,,,,,,565.8250956000411,566.8571852000314,563.8664719000226,563.8664719000226,563.8664719000226,563.8664719000226,old_stationery_41.png,98,3.0,1.960557600017637,,,ID040,01,2025-01-21_16h48.09.094,Surprise recog test,2023.1.3,59.946683418554116,
98,0,98,0,,,,,,,,,,,,,,,,,,,,,,,,,,,,,,,,,,569.0600517000421,570.0887439000071,566.8571852000314,566.8571852000314,566.8571852000314,566.8571852000314,old_sceneOut_16.png,99,2.0,2.205197200004477,,,ID040,01,2025-01-21_16h48.09.094,Surprise recog test,2023.1.3,59.946683418554116,
99,0,99,0,,,,,,,,,,,,,,,,,,,,,,,,,,,,,,,,,,571.3535387000302,572.37277180003,570.0887439000071,570.0887439000071,570.0887439000071,570.0887439000071,new_sceneIn_44.png,100,5.0,1.2669679000391625,,,ID040,01,2025-01-21_16h48.09.094,Surprise recog test,2023.1.3,59.946683418554116,
100,0,100,0,,,,,,,,,,,,,,,,,,,,,,,,,,,,,,,,,,575.0577958000358,576.0772006000043,572.37277180003,572.37277180003,572.37277180003,572.37277180003,old_stationery_48.png,101,4.0,2.686194700014312,,,ID040,01,2025-01-21_16h48.09.094,Surprise recog test,2023.1.3,59.946683418554116,
101,0,101,0,,,,,,,,,,,,,,,,,,,,,,,,,,,,,,,,,,577.8555010000127,578.867476799991,576.0772006000043,576.0772006000043,576.0772006000043,576.0772006000043,new_fruit_43.png,102,5.0,1.780120299954433,,,ID040,01,2025-01-21_16h48.09.094,Surprise recog test,2023.1.3,59.946683418554116,
102,0,102,0,,,,,,,,,,,,,,,,,,,,,,,,,,,,,,,,,,580.8697441000259,581.8923515999923,578.867476799991,578.867476799991,578.867476799991,578.867476799991,old_stationery_6.png,103,4.0,1.9976724999723956,,,ID040,01,2025-01-21_16h48.09.094,Surprise recog test,2023.1.3,59.946683418554116,
103,0,103,0,,,,,,,,,,,,,,,,,,,,,,,,,,,,,,,,,,583.8623009000439,584.8843152000336,581.8923515999923,581.8923515999923,581.8923515999923,581.8923515999923,old_sceneOut_44.png,104,3.0,1.9710000000195578,,,ID040,01,2025-01-21_16h48.09.094,Surprise recog test,2023.1.3,59.946683418554116,
104,0,104,0,,,,,,,,,,,,,,,,,,,,,,,,,,,,,,,,,,587.1317924000323,588.1561841000221,584.8843152000336,584.8843152000336,584.8843152000336,584.8843152000336,old_sceneIn_19.png,105,4.0,2.248524099995848,,,ID040,01,2025-01-21_16h48.09.094,Surprise recog test,2023.1.3,59.946683418554116,
105,0,105,0,,,,,,,,,,,,,,,,,,,,,,,,,,,,,,,,,,588.9217358999886,,588.1561841000221,588.1561841000221,588.1561841000221,588.1561841000221,old_sceneIn_17.png,106,4.0,0.7689729999983683,,,ID040,01,2025-01-21_16h48.09.094,Surprise recog test,2023.1.3,59.946683418554116,
106,0,106,0,,,,,,,,,,,,,,,,,,,,,,,,,,,,,,,,,,593.4619698000024,594.4794733000454,589.95479540003,589.95479540003,589.95479540003,589.95479540003,new_sceneOut_14.png,107,3.0,3.5073825999861583,,,ID040,01,2025-01-21_16h48.09.094,Surprise recog test,2023.1.3,59.946683418554116,
107,0,107,0,,,,,,,,,,,,,,,,,,,,,,,,,,,,,,,,,,598.0815168000408,599.1143788000336,594.4794733000454,594.4794733000454,594.4794733000454,594.4794733000454,old_stationery_10.png,108,2.0,3.59933739999542,,,ID040,01,2025-01-21_16h48.09.094,Surprise recog test,2023.1.3,59.946683418554116,
108,0,108,0,,,,,,,,,,,,,,,,,,,,,,,,,,,,,,,,,,601.7110669999965,602.7322609000257,599.1143788000336,599.1143788000336,599.1143788000336,599.1143788000336,old_sceneIn_28.png,109,4.0,2.5997960999957286,,,ID040,01,2025-01-21_16h48.09.094,Surprise recog test,2023.1.3,59.946683418554116,
109,0,109,0,,,,,,,,,,,,,,,,,,,,,,,,,,,,,,,,,,605.3519035000354,,602.7322609000257,602.7322609000257,602.7322609000257,602.7322609000257,old_fruit_27.png,110,3.0,2.6218577999970876,,,ID040,01,2025-01-21_16h48.09.094,Surprise recog test,2023.1.3,59.946683418554116,
110,0,110,0,,,,,,,,,,,,,,,,,,,,,,,,,,,,,,,,,,607.5297031000373,608.5552752999938,606.3810756000457,606.3810756000457,606.3810756000457,606.3810756000457,old_stationery_29.png,111,1.0,1.1494973000371829,,,ID040,01,2025-01-21_16h48.09.094,Surprise recog test,2023.1.3,59.946683418554116,
111,0,111,0,,,,,,,,,,,,,,,,,,,,,,,,,,,,,,,,,,610.5467688000062,611.5745124000241,608.5552752999938,608.5552752999938,608.5552752999938,608.5552752999938,old_sceneIn_25.png,112,3.0,1.992670600011479,,,ID040,01,2025-01-21_16h48.09.094,Surprise recog test,2023.1.3,59.946683418554116,
112,0,112,0,,,,,,,,,,,,,,,,,,,,,,,,,,,,,,,,,,613.1308383000433,614.1464572999976,611.5745124000241,611.5745124000241,611.5745124000241,611.5745124000241,old_sceneOut_30.png,113,3.0,1.5593373000156134,,,ID040,01,2025-01-21_16h48.09.094,Surprise recog test,2023.1.3,59.946683418554116,
113,0,113,0,,,,,,,,,,,,,,,,,,,,,,,,,,,,,,,,,,615.8627368000452,616.8785255000112,614.1464572999976,614.1464572999976,614.1464572999976,614.1464572999976,new_stationery_33.png,114,3.0,1.7125362000078894,,,ID040,01,2025-01-21_16h48.09.094,Surprise recog test,2023.1.3,59.946683418554116,
114,0,114,0,,,,,,,,,,,,,,,,,,,,,,,,,,,,,,,,,,618.3396663999883,619.3636395999929,616.8785255000112,616.8785255000112,616.8785255000112,616.8785255000112,old_sceneIn_4.png,115,4.0,1.4537319000228308,,,ID040,01,2025-01-21_16h48.09.094,Surprise recog test,2023.1.3,59.946683418554116,
115,0,115,0,,,,,,,,,,,,,,,,,,,,,,,,,,,,,,,,,,621.0023763999925,622.0313140000217,619.3636395999929,619.3636395999929,619.3636395999929,619.3636395999929,old_sceneIn_6.png,116,1.0,1.6411719000316225,,,ID040,01,2025-01-21_16h48.09.094,Surprise recog test,2023.1.3,59.946683418554116,
116,0,116,0,,,,,,,,,,,,,,,,,,,,,,,,,,,,,,,,,,623.2339465999976,,622.0313140000217,622.0313140000217,622.0313140000217,622.0313140000217,new_fruit_2.png,117,1.0,1.2035516999894753,,,ID040,01,2025-01-21_16h48.09.094,Surprise recog test,2023.1.3,59.946683418554116,
117,0,117,0,,,,,,,,,,,,,,,,,,,,,,,,,,,,,,,,,,625.9040673000272,626.9299682000419,624.2543393000378,624.2543393000378,624.2543393000378,624.2543393000378,old_stationery_13.png,118,3.0,1.6456434999709018,,,ID040,01,2025-01-21_16h48.09.094,Surprise recog test,2023.1.3,59.946683418554116,
118,0,118,0,,,,,,,,,,,,,,,,,,,,,,,,,,,,,,,,,,628.8873347000335,,626.9299682000419,626.9299682000419,626.9299682000419,626.9299682000419,new_fruit_47.png,119,3.0,1.9557123000267893,,,ID040,01,2025-01-21_16h48.09.094,Surprise recog test,2023.1.3,59.946683418554116,
119,0,119,0,,,,,,,,,,,,,,,,,,,,,,,,,,,,,,,,,,631.2628172000404,632.2913858999964,629.9226345000206,629.9226345000206,629.9226345000206,629.9226345000206,old_fruit_38.png,120,1.0,1.3435554999741726,,,ID040,01,2025-01-21_16h48.09.094,Surprise recog test,2023.1.3,59.946683418554116,
120,0,120,0,,,,,,,,,,,,,,,,,,,,,,,,,,,,,,,,,,634.6549882999971,635.6765844000038,632.2913858999964,632.2913858999964,632.2913858999964,632.2913858999964,new_stationery_39.png,121,5.0,2.3662962000234984,,,ID040,01,2025-01-21_16h48.09.094,Surprise recog test,2023.1.3,59.946683418554116,
121,0,121,0,,,,,,,,,,,,,,,,,,,,,,,,,,,,,,,,,,637.6350682000048,638.6502602000255,635.6765844000038,635.6765844000038,635.6765844000038,635.6765844000038,new_fruit_42.png,122,3.0,1.9611271999892779,,,ID040,01,2025-01-21_16h48.09.094,Surprise recog test,2023.1.3,59.946683418554116,
122,0,122,0,,,,,,,,,,,,,,,,,,,,,,,,,,,,,,,,,,640.7878429000266,641.8140579000465,638.6502602000255,638.6502602000255,638.6502602000255,638.6502602000255,old_sceneIn_3.png,123,3.0,2.1332882000133395,,,ID040,01,2025-01-21_16h48.09.094,Surprise recog test,2023.1.3,59.946683418554116,
123,0,123,0,,,,,,,,,,,,,,,,,,,,,,,,,,,,,,,,,,643.434107500012,,641.8140579000465,641.8140579000465,641.8140579000465,641.8140579000465,new_stationery_12.png,124,1.0,1.621513899997808,,,ID040,01,2025-01-21_16h48.09.094,Surprise recog test,2023.1.3,59.946683418554116,
124,0,124,0,,,,,,,,,,,,,,,,,,,,,,,,,,,,,,,,,,645.6939910000074,646.7211998000275,644.4644567000214,644.4644567000214,644.4644567000214,644.4644567000214,old_sceneIn_8.png,125,4.0,1.2312649000086822,,,ID040,01,2025-01-21_16h48.09.094,Surprise recog test,2023.1.3,59.946683418554116,
125,0,125,0,,,,,,,,,,,,,,,,,,,,,,,,,,,,,,,,,,648.9090693999897,649.9388514000457,646.7211998000275,646.7211998000275,646.7211998000275,646.7211998000275,new_sceneIn_27.png,126,3.0,2.191756999993231,,,ID040,01,2025-01-21_16h48.09.094,Surprise recog test,2023.1.3,59.946683418554116,
126,0,126,0,,,,,,,,,,,,,,,,,,,,,,,,,,,,,,,,,,652.1832850000355,653.206499300024,649.9388514000457,649.9388514000457,649.9388514000457,649.9388514000457,old_sceneIn_21.png,127,4.0,2.2469245999818668,,,ID040,01,2025-01-21_16h48.09.094,Surprise recog test,2023.1.3,59.946683418554116,
127,0,127,0,,,,,,,,,,,,,,,,,,,,,,,,,,,,,,,,,,654.5063266000361,655.5131989000365,653.206499300024,653.206499300024,653.206499300024,653.206499300024,old_fruit_44.png,128,1.0,1.2994641000404954,,,ID040,01,2025-01-21_16h48.09.094,Surprise recog test,2023.1.3,59.946683418554116,
128,0,128,0,,,,,,,,,,,,,,,,,,,,,,,,,,,,,,,,,,657.813341800007,,655.5131989000365,655.5131989000365,655.5131989000365,655.5131989000365,new_fruit_6.png,129,4.0,2.295963999989908,,,ID040,01,2025-01-21_16h48.09.094,Surprise recog test,2023.1.3,59.946683418554116,
129,0,129,0,,,,,,,,,,,,,,,,,,,,,,,,,,,,,,,,,,661.7568865999929,662.7664886999992,658.8377042000066,658.8377042000066,658.8377042000066,658.8377042000066,old_sceneIn_14.png,130,4.0,2.9196223000180908,,,ID040,01,2025-01-21_16h48.09.094,Surprise recog test,2023.1.3,59.946683418554116,
130,0,130,0,,,,,,,,,,,,,,,,,,,,,,,,,,,,,,,,,,664.5585625999956,665.5759343000245,662.7664886999992,662.7664886999992,662.7664886999992,662.7664886999992,new_sceneOut_29.png,131,4.0,1.7881477999617346,,,ID040,01,2025-01-21_16h48.09.094,Surprise recog test,2023.1.3,59.946683418554116,
131,0,131,0,,,,,,,,,,,,,,,,,,,,,,,,,,,,,,,,,,667.349995800003,668.3730816000025,665.5759343000245,665.5759343000245,665.5759343000245,665.5759343000245,old_sceneIn_11.png,132,4.0,1.7683682000497356,,,ID040,01,2025-01-21_16h48.09.094,Surprise recog test,2023.1.3,59.946683418554116,
132,0,132,0,,,,,,,,,,,,,,,,,,,,,,,,,,,,,,,,,,670.5930198000278,671.622727900045,668.3730816000025,668.3730816000025,668.3730816000025,668.3730816000025,new_sceneOut_12.png,133,3.0,2.223219599982258,,,ID040,01,2025-01-21_16h48.09.094,Surprise recog test,2023.1.3,59.946683418554116,
133,0,133,0,,,,,,,,,,,,,,,,,,,,,,,,,,,,,,,,,,672.8213158000144,673.8297913999995,671.622727900045,671.622727900045,671.622727900045,671.622727900045,old_fruit_47.png,134,1.0,1.1976237000199035,,,ID040,01,2025-01-21_16h48.09.094,Surprise recog test,2023.1.3,59.946683418554116,
134,0,134,0,,,,,,,,,,,,,,,,,,,,,,,,,,,,,,,,,,675.89051930001,676.8970854000072,673.8297913999995,673.8297913999995,673.8297913999995,673.8297913999995,old_sceneIn_9.png,135,4.0,2.0548794000060298,,,ID040,01,2025-01-21_16h48.09.094,Surprise recog test,2023.1.3,59.946683418554116,
135,0,135,0,,,,,,,,,,,,,,,,,,,,,,,,,,,,,,,,,,678.6227468000143,679.6346077999915,676.8970854000072,676.8970854000072,676.8970854000072,676.8970854000072,new_stationery_2.png,136,3.0,1.7216634000069462,,,ID040,01,2025-01-21_16h48.09.094,Surprise recog test,2023.1.3,59.946683418554116,
136,0,136,0,,,,,,,,,,,,,,,,,,,,,,,,,,,,,,,,,,681.4289509000373,682.433076700021,679.6346077999915,679.6346077999915,679.6346077999915,679.6346077999915,new_sceneOut_4.png,137,2.0,1.7905467000091448,,,ID040,01,2025-01-21_16h48.09.094,Surprise recog test,2023.1.3,59.946683418554116,
137,0,137,0,,,,,,,,,,,,,,,,,,,,,,,,,,,,,,,,,,684.2215874000103,685.2432902000146,682.433076700021,682.433076700021,682.433076700021,682.433076700021,new_fruit_38.png,138,4.0,1.7819866999634542,,,ID040,01,2025-01-21_16h48.09.094,Surprise recog test,2023.1.3,59.946683418554116,
138,0,138,0,,,,,,,,,,,,,,,,,,,,,,,,,,,,,,,,,,686.8386462000199,687.85734029999,685.2432902000146,685.2432902000146,685.2432902000146,685.2432902000146,new_stationery_30.png,139,4.0,1.5956732000340708,,,ID040,01,2025-01-21_16h48.09.094,Surprise recog test,2023.1.3,59.946683418554116,
139,0,139,0,,,,,,,,,,,,,,,,,,,,,,,,,,,,,,,,,,690.0631095000426,691.07857469999,687.85734029999,687.85734029999,687.85734029999,687.85734029999,old_sceneOut_42.png,140,4.0,2.202024900005199,,,ID040,01,2025-01-21_16h48.09.094,Surprise recog test,2023.1.3,59.946683418554116,
140,0,140,0,,,,,,,,,,,,,,,,,,,,,,,,,,,,,,,,,,692.8077986999997,,691.07857469999,691.07857469999,691.07857469999,691.07857469999,new_stationery_32.png,141,4.0,1.7265065000392497,,,ID040,01,2025-01-21_16h48.09.094,Surprise recog test,2023.1.3,59.946683418554116,
141,0,141,0,,,,,,,,,,,,,,,,,,,,,,,,,,,,,,,,,,695.1496162000112,696.17684249999,693.8384484000271,693.8384484000271,693.8384484000271,693.8384484000271,new_stationery_22.png,142,3.0,1.3121871000039391,,,ID040,01,2025-01-21_16h48.09.094,Surprise recog test,2023.1.3,59.946683418554116,
142,0,142,0,,,,,,,,,,,,,,,,,,,,,,,,,,,,,,,,,,698.2426954000257,699.2634958000272,696.17684249999,696.17684249999,696.17684249999,696.17684249999,new_stationery_41.png,143,5.0,2.065434299991466,,,ID040,01,2025-01-21_16h48.09.094,Surprise recog test,2023.1.3,59.946683418554116,
143,0,143,0,,,,,,,,,,,,,,,,,,,,,,,,,,,,,,,,,,701.8017003000132,702.8352158000343,699.2634958000272,699.2634958000272,699.2634958000272,699.2634958000272,new_sceneOut_32.png,144,4.0,2.5404252000153065,,,ID040,01,2025-01-21_16h48.09.094,Surprise recog test,2023.1.3,59.946683418554116,
144,0,144,0,,,,,,,,,,,,,,,,,,,,,,,,,,,,,,,,,,704.204804100038,705.2370252000401,702.8352158000343,702.8352158000343,702.8352158000343,702.8352158000343,new_sceneIn_23.png,145,4.0,1.3719780000392348,,,ID040,01,2025-01-21_16h48.09.094,Surprise recog test,2023.1.3,59.946683418554116,
145,0,145,0,,,,,,,,,,,,,,,,,,,,,,,,,,,,,,,,,,706.5192865999998,,705.2370252000401,705.2370252000401,705.2370252000401,705.2370252000401,new_stationery_15.png,146,1.0,1.2859880999894813,,,ID040,01,2025-01-21_16h48.09.094,Surprise recog test,2023.1.3,59.946683418554116,
146,0,146,0,,,,,,,,,,,,,,,,,,,,,,,,,,,,,,,,,,709.0298453000141,710.0510908000288,707.5526742000366,707.5526742000366,707.5526742000366,707.5526742000366,old_fruit_20.png,147,2.0,1.476968200004194,,,ID040,01,2025-01-21_16h48.09.094,Surprise recog test,2023.1.3,59.946683418554116,
147,0,147,0,,,,,,,,,,,,,,,,,,,,,,,,,,,,,,,,,,711.5379568000208,712.5570670000161,710.0510908000288,710.0510908000288,710.0510908000288,710.0510908000288,old_fruit_22.png,148,3.0,1.4886482000001706,,,ID040,01,2025-01-21_16h48.09.094,Surprise recog test,2023.1.3,59.946683418554116,
148,0,148,0,,,,,,,,,,,,,,,,,,,,,,,,,,,,,,,,,,715.6381923000445,716.6610978000099,712.5570670000161,712.5570670000161,712.5570670000161,712.5570670000161,old_stationery_27.png,149,3.0,3.0844746999791823,,,ID040,01,2025-01-21_16h48.09.094,Surprise recog test,2023.1.3,59.946683418554116,
149,0,149,0,,,,,,,,,,,,,,,,,,,,,,,,,,,,,,,,,,717.7838002000353,718.8096205000184,716.6610978000099,716.6610978000099,716.6610978000099,716.6610978000099,old_sceneIn_42.png,150,4.0,1.1246061999700032,,,ID040,01,2025-01-21_16h48.09.094,Surprise recog test,2023.1.3,59.946683418554116,
150,0,150,0,,,,,,,,,,,,,,,,,,,,,,,,,,,,,,,,,,721.036388700013,722.0525100000086,718.8096205000184,718.8096205000184,718.8096205000184,718.8096205000184,old_sceneOut_13.png,151,3.0,2.22888279997278,,,ID040,01,2025-01-21_16h48.09.094,Surprise recog test,2023.1.3,59.946683418554116,
151,0,151,0,,,,,,,,,,,,,,,,,,,,,,,,,,,,,,,,,,724.8968821000308,725.9160016000387,722.0525100000086,722.0525100000086,722.0525100000086,722.0525100000086,old_stationery_38.png,152,2.0,2.8382336999638937,,,ID040,01,2025-01-21_16h48.09.094,Surprise recog test,2023.1.3,59.946683418554116,
152,0,152,0,,,,,,,,,,,,,,,,,,,,,,,,,,,,,,,,,,728.6293561999919,729.6426502999966,725.9160016000387,725.9160016000387,725.9160016000387,725.9160016000387,old_sceneOut_39.png,153,3.0,2.716560400032904,,,ID040,01,2025-01-21_16h48.09.094,Surprise recog test,2023.1.3,59.946683418554116,
153,0,153,0,,,,,,,,,,,,,,,,,,,,,,,,,,,,,,,,,,731.1305743000121,732.1451137000113,729.6426502999966,729.6426502999966,729.6426502999966,729.6426502999966,new_sceneOut_35.png,154,4.0,1.4832900000037625,,,ID040,01,2025-01-21_16h48.09.094,Surprise recog test,2023.1.3,59.946683418554116,
154,0,154,0,,,,,,,,,,,,,,,,,,,,,,,,,,,,,,,,,,733.388198700035,734.4108678000048,732.1451137000113,732.1451137000113,732.1451137000113,732.1451137000113,old_sceneIn_32.png,155,4.0,1.2371052000089549,,,ID040,01,2025-01-21_16h48.09.094,Surprise recog test,2023.1.3,59.946683418554116,
155,0,155,0,,,,,,,,,,,,,,,,,,,,,,,,,,,,,,,,,,736.3954050000175,737.4311856999993,734.4108678000048,734.4108678000048,734.4108678000048,734.4108678000048,old_fruit_17.png,156,3.0,1.9872614999767393,,,ID040,01,2025-01-21_16h48.09.094,Surprise recog test,2023.1.3,59.946683418554116,
156,0,156,0,,,,,,,,,,,,,,,,,,,,,,,,,,,,,,,,,,739.2773357999977,740.2841201000265,737.4311856999993,737.4311856999993,737.4311856999993,737.4311856999993,old_fruit_1.png,157,2.0,1.8503469999996014,,,ID040,01,2025-01-21_16h48.09.094,Surprise recog test,2023.1.3,59.946683418554116,
157,0,157,0,,,,,,,,,,,,,,,,,,,,,,,,,,,,,,,,,,743.3934062999906,744.4048461000202,740.2841201000265,740.2841201000265,740.2841201000265,740.2841201000265,old_stationery_37.png,158,4.0,3.105352699989453,,,ID040,01,2025-01-21_16h48.09.094,Surprise recog test,2023.1.3,59.946683418554116,
158,0,158,0,,,,,,,,,,,,,,,,,,,,,,,,,,,,,,,,,,745.6765812000376,746.7043006000458,744.4048461000202,744.4048461000202,744.4048461000202,744.4048461000202,new_stationery_18.png,159,2.0,1.2678004000335932,,,ID040,01,2025-01-21_16h48.09.094,Surprise recog test,2023.1.3,59.946683418554116,
159,0,159,0,,,,,,,,,,,,,,,,,,,,,,,,,,,,,,,,,,748.0411988000269,749.0675109000294,746.7043006000458,746.7043006000458,746.7043006000458,746.7043006000458,old_fruit_42.png,160,2.0,1.3393254000111483,,,ID040,01,2025-01-21_16h48.09.094,Surprise recog test,2023.1.3,59.946683418554116,
160,0,160,0,,,,,,,,,,,,,,,,,,,,,,,,,,,,,,,,,,750.5278079000418,751.5576811000356,749.0675109000294,749.0675109000294,749.0675109000294,749.0675109000294,old_fruit_12.png,161,2.0,1.461213799950201,,,ID040,01,2025-01-21_16h48.09.094,Surprise recog test,2023.1.3,59.946683418554116,
161,0,161,0,,,,,,,,,,,,,,,,,,,,,,,,,,,,,,,,,,753.4856667999993,754.5093009000411,751.5576811000356,751.5576811000356,751.5576811000356,751.5576811000356,old_fruit_36.png,162,2.0,1.932138800038956,,,ID040,01,2025-01-21_16h48.09.094,Surprise recog test,2023.1.3,59.946683418554116,
162,0,162,0,,,,,,,,,,,,,,,,,,,,,,,,,,,,,,,,,,757.3582080000197,758.3755060000112,754.5093009000411,754.5093009000411,754.5093009000411,754.5093009000411,new_sceneIn_37.png,163,4.0,2.8446085999603383,,,ID040,01,2025-01-21_16h48.09.094,Surprise recog test,2023.1.3,59.946683418554116,
163,0,163,0,,,,,,,,,,,,,,,,,,,,,,,,,,,,,,,,,,761.5190524000209,762.5366162999999,758.3755060000112,758.3755060000112,758.3755060000112,758.3755060000112,old_sceneIn_36.png,164,4.0,3.1419564000098035,,,ID040,01,2025-01-21_16h48.09.094,Surprise recog test,2023.1.3,59.946683418554116,
164,0,164,0,,,,,,,,,,,,,,,,,,,,,,,,,,,,,,,,,,764.8087760999915,765.82595030003,762.5366162999999,762.5366162999999,762.5366162999999,762.5366162999999,old_stationery_49.png,165,2.0,2.2680873000063,,,ID040,01,2025-01-21_16h48.09.094,Surprise recog test,2023.1.3,59.946683418554116,
165,0,165,0,,,,,,,,,,,,,,,,,,,,,,,,,,,,,,,,,,767.7867493000231,,765.82595030003,765.82595030003,765.82595030003,765.82595030003,new_sceneIn_1.png,166,4.0,1.9610496999812312,,,ID040,01,2025-01-21_16h48.09.094,Surprise recog test,2023.1.3,59.946683418554116,
166,0,166,0,,,,,,,,,,,,,,,,,,,,,,,,,,,,,,,,,,772.4277144999942,773.4455596000189,768.8077338000294,768.8077338000294,768.8077338000294,768.8077338000294,new_fruit_33.png,167,4.0,3.613996199972462,,,ID040,01,2025-01-21_16h48.09.094,Surprise recog test,2023.1.3,59.946683418554116,
167,0,167,0,,,,,,,,,,,,,,,,,,,,,,,,,,,,,,,,,,774.5313548000413,775.5608790999977,773.4455596000189,773.4455596000189,773.4455596000189,773.4455596000189,old_sceneOut_15.png,168,4.0,1.0804340000031516,,,ID040,01,2025-01-21_16h48.09.094,Surprise recog test,2023.1.3,59.946683418554116,
168,0,168,0,,,,,,,,,,,,,,,,,,,,,,,,,,,,,,,,,,776.7932444000035,,775.5608790999977,775.5608790999977,775.5608790999977,775.5608790999977,new_sceneOut_41.png,169,2.0,1.2320400000317022,,,ID040,01,2025-01-21_16h48.09.094,Surprise recog test,2023.1.3,59.946683418554116,
169,0,169,0,,,,,,,,,,,,,,,,,,,,,,,,,,,,,,,,,,778.722805300029,779.7449439000338,777.8275484000333,777.8275484000333,777.8275484000333,777.8275484000333,new_sceneIn_7.png,170,4.0,0.8968872000114061,,,ID040,01,2025-01-21_16h48.09.094,Surprise recog test,2023.1.3,59.946683418554116,
170,0,170,0,,,,,,,,,,,,,,,,,,,,,,,,,,,,,,,,,,782.6866899000015,783.7194401000161,779.7449439000338,779.7449439000338,779.7449439000338,779.7449439000338,old_stationery_46.png,171,3.0,2.9412574999732897,,,ID040,01,2025-01-21_16h48.09.094,Surprise recog test,2023.1.3,59.946683418554116,
171,0,171,0,,,,,,,,,,,,,,,,,,,,,,,,,,,,,,,,,,787.1276009000139,788.1501625000383,783.7194401000161,783.7194401000161,783.7194401000161,783.7194401000161,old_stationery_25.png,172,3.0,3.4119702000170946,,,ID040,01,2025-01-21_16h48.09.094,Surprise recog test,2023.1.3,59.946683418554116,
172,0,172,0,,,,,,,,,,,,,,,,,,,,,,,,,,,,,,,,,,789.5849247000297,790.6086657000124,788.1501625000383,788.1501625000383,788.1501625000383,788.1501625000383,old_stationery_7.png,173,4.0,1.4375595000456087,,,ID040,01,2025-01-21_16h48.09.094,Surprise recog test,2023.1.3,59.946683418554116,
173,0,173,0,,,,,,,,,,,,,,,,,,,,,,,,,,,,,,,,,,791.6253800000413,792.6564784999937,790.6086657000124,790.6086657000124,790.6086657000124,790.6086657000124,new_fruit_21.png,174,2.0,1.0195203000330366,,,ID040,01,2025-01-21_16h48.09.094,Surprise recog test,2023.1.3,59.946683418554116,
174,0,174,0,,,,,,,,,,,,,,,,,,,,,,,,,,,,,,,,,,793.827697700006,794.8612626999966,792.6564784999937,792.6564784999937,792.6564784999937,792.6564784999937,old_stationery_14.png,175,2.0,1.173019399982877,,,ID040,01,2025-01-21_16h48.09.094,Surprise recog test,2023.1.3,59.946683418554116,
175,0,175,0,,,,,,,,,,,,,,,,,,,,,,,,,,,,,,,,,,797.1168918000185,798.1459488000255,794.8612626999966,794.8612626999966,794.8612626999966,794.8612626999966,new_stationery_10.png,176,3.0,2.2597775000031106,,,ID040,01,2025-01-21_16h48.09.094,Surprise recog test,2023.1.3,59.946683418554116,
176,0,176,0,,,,,,,,,,,,,,,,,,,,,,,,,,,,,,,,,,799.578704100044,,798.1459488000255,798.1459488000255,798.1459488000255,798.1459488000255,new_sceneOut_37.png,177,4.0,1.4324550000019372,,,ID040,01,2025-01-21_16h48.09.094,Surprise recog test,2023.1.3,59.946683418554116,
177,0,177,0,,,,,,,,,,,,,,,,,,,,,,,,,,,,,,,,,,803.5147978999885,804.5327737000189,800.6004022000125,800.6004022000125,800.6004022000125,800.6004022000125,old_sceneIn_45.png,178,3.0,2.908495900046546,,,ID040,01,2025-01-21_16h48.09.094,Surprise recog test,2023.1.3,59.946683418554116,
178,0,178,0,,,,,,,,,,,,,,,,,,,,,,,,,,,,,,,,,,806.4682363999891,,804.5327737000189,804.5327737000189,804.5327737000189,804.5327737000189,new_sceneIn_34.png,179,3.0,1.9356923999730498,,,ID040,01,2025-01-21_16h48.09.094,Surprise recog test,2023.1.3,59.946683418554116,
179,0,179,0,,,,,,,,,,,,,,,,,,,,,,,,,,,,,,,,,,808.9565710999887,809.975577300007,807.4923785999999,807.4923785999999,807.4923785999999,807.4923785999999,old_sceneOut_7.png,180,4.0,1.4605126000242308,,,ID040,01,2025-01-21_16h48.09.094,Surprise recog test,2023.1.3,59.946683418554116,
180,0,180,0,,,,,,,,,,,,,,,,,,,,,,,,,,,,,,,,,,812.1391526000225,,809.975577300007,809.975577300007,809.975577300007,809.975577300007,old_sceneOut_37.png,181,4.0,2.159247300005518,,,ID040,01,2025-01-21_16h48.09.094,Surprise recog test,2023.1.3,59.946683418554116,
181,0,181,0,,,,,,,,,,,,,,,,,,,,,,,,,,,,,,,,,,814.461020399991,815.4940044000396,813.1708489000448,813.1708489000448,813.1708489000448,813.1708489000448,old_fruit_23.png,182,1.0,1.2909403000376187,,,ID040,01,2025-01-21_16h48.09.094,Surprise recog test,2023.1.3,59.946683418554116,
182,0,182,0,,,,,,,,,,,,,,,,,,,,,,,,,,,,,,,,,,818.308851400041,819.3246301999898,815.4940044000396,815.4940044000396,815.4940044000396,815.4940044000396,new_sceneIn_42.png,183,4.0,2.8097558000008576,,,ID040,01,2025-01-21_16h48.09.094,Surprise recog test,2023.1.3,59.946683418554116,
183,0,183,0,,,,,,,,,,,,,,,,,,,,,,,,,,,,,,,,,,822.3289871000452,823.3350860000355,819.3246301999898,819.3246301999898,819.3246301999898,819.3246301999898,new_sceneIn_50.png,184,4.0,3.000981800025329,,,ID040,01,2025-01-21_16h48.09.094,Surprise recog test,2023.1.3,59.946683418554116,
184,0,184,0,,,,,,,,,,,,,,,,,,,,,,,,,,,,,,,,,,826.0652871000348,827.070403699996,823.3350860000355,823.3350860000355,823.3350860000355,823.3350860000355,new_fruit_28.png,185,3.0,2.721157099993434,,,ID040,01,2025-01-21_16h48.09.094,Surprise recog test,2023.1.3,59.946683418554116,
185,0,185,0,,,,,,,,,,,,,,,,,,,,,,,,,,,,,,,,,,829.4181081000133,830.4226113000186,827.070403699996,827.070403699996,827.070403699996,827.070403699996,old_sceneOut_32.png,186,3.0,2.3382990999962203,,,ID040,01,2025-01-21_16h48.09.094,Surprise recog test,2023.1.3,59.946683418554116,
186,0,186,0,,,,,,,,,,,,,,,,,,,,,,,,,,,,,,,,,,832.3537556999945,833.3584229000262,830.4226113000186,830.4226113000186,830.4226113000186,830.4226113000186,old_stationery_32.png,187,3.0,1.9206915000104345,,,ID040,01,2025-01-21_16h48.09.094,Surprise recog test,2023.1.3,59.946683418554116,
187,0,187,0,,,,,,,,,,,,,,,,,,,,,,,,,,,,,,,,,,834.4722631000332,835.477612800023,833.3584229000262,833.3584229000262,833.3584229000262,833.3584229000262,old_sceneOut_34.png,188,2.0,1.1038524999748915,,,ID040,01,2025-01-21_16h48.09.094,Surprise recog test,2023.1.3,59.946683418554116,
188,0,188,0,,,,,,,,,,,,,,,,,,,,,,,,,,,,,,,,,,836.5239259999944,837.5292729000212,835.477612800023,835.477612800023,835.477612800023,835.477612800023,new_sceneIn_8.png,189,4.0,1.0368980999919586,,,ID040,01,2025-01-21_16h48.09.094,Surprise recog test,2023.1.3,59.946683418554116,
189,0,189,0,,,,,,,,,,,,,,,,,,,,,,,,,,,,,,,,,,838.8258284000331,839.8305136000272,837.5292729000212,837.5292729000212,837.5292729000212,837.5292729000212,new_sceneIn_17.png,190,4.0,1.287565500009805,,,ID040,01,2025-01-21_16h48.09.094,Surprise recog test,2023.1.3,59.946683418554116,
190,0,190,0,,,,,,,,,,,,,,,,,,,,,,,,,,,,,,,,,,842.9960024000029,844.0007932000444,839.8305136000272,839.8305136000272,839.8305136000272,839.8305136000272,old_stationery_3.png,191,3.0,3.1551704999874346,,,ID040,01,2025-01-21_16h48.09.094,Surprise recog test,2023.1.3,59.946683418554116,
191,0,191,0,,,,,,,,,,,,,,,,,,,,,,,,,,,,,,,,,,845.0476889000274,846.052444400033,844.0007932000444,844.0007932000444,844.0007932000444,844.0007932000444,old_fruit_5.png,192,2.0,1.0366557000088505,,,ID040,01,2025-01-21_16h48.09.094,Surprise recog test,2023.1.3,59.946683418554116,
192,0,192,0,,,,,,,,,,,,,,,,,,,,,,,,,,,,,,,,,,847.349567199999,848.3540973000345,846.052444400033,846.052444400033,846.052444400033,846.052444400033,old_sceneOut_18.png,193,4.0,1.2867929000058211,,,ID040,01,2025-01-21_16h48.09.094,Surprise recog test,2023.1.3,59.946683418554116,
193,0,193,0,,,,,,,,,,,,,,,,,,,,,,,,,,,,,,,,,,849.8350678000133,850.8399843000225,848.3540973000345,848.3540973000345,848.3540973000345,848.3540973000345,new_stationery_3.png,194,3.0,1.4707086000125855,,,ID040,01,2025-01-21_16h48.09.094,Surprise recog test,2023.1.3,59.946683418554116,
194,0,194,0,,,,,,,,,,,,,,,,,,,,,,,,,,,,,,,,,,852.2536435000366,853.2590923000243,850.8399843000225,850.8399843000225,850.8399843000225,850.8399843000225,old_stationery_16.png,195,3.0,1.4050174999865703,,,ID040,01,2025-01-21_16h48.09.094,Surprise recog test,2023.1.3,59.946683418554116,
195,0,195,0,,,,,,,,,,,,,,,,,,,,,,,,,,,,,,,,,,854.6725172000006,855.676850799995,853.2590923000243,853.2590923000243,853.2590923000243,853.2590923000243,new_sceneOut_18.png,196,4.0,1.4037933999788947,,,ID040,01,2025-01-21_16h48.09.094,Surprise recog test,2023.1.3,59.946683418554116,
196,0,196,0,,,,,,,,,,,,,,,,,,,,,,,,,,,,,,,,,,857.2410719000036,858.2474577000248,855.676850799995,855.676850799995,855.676850799995,855.676850799995,new_stationery_20.png,197,4.0,1.5537563000107184,,,ID040,01,2025-01-21_16h48.09.094,Surprise recog test,2023.1.3,59.946683418554116,
197,0,197,0,,,,,,,,,,,,,,,,,,,,,,,,,,,,,,,,,,859.7932661999948,860.7976998999948,858.2474577000248,858.2474577000248,858.2474577000248,858.2474577000248,new_fruit_7.png,198,4.0,1.5367510999785736,,,ID040,01,2025-01-21_16h48.09.094,Surprise recog test,2023.1.3,59.946683418554116,
198,0,198,0,,,,,,,,,,,,,,,,,,,,,,,,,,,,,,,,,,862.5789387000259,863.5847698000143,860.7976998999948,860.7976998999948,860.7976998999948,860.7976998999948,new_stationery_4.png,199,4.0,1.7707241000025533,,,ID040,01,2025-01-21_16h48.09.094,Surprise recog test,2023.1.3,59.946683418554116,
199,0,199,0,,,,,,,,,,,,,,,,,,,,,,,,,,,,,,,,,,865.1977135000052,866.2197979000048,863.5847698000143,863.5847698000143,863.5847698000143,863.5847698000143,old_fruit_10.png,200,4.0,1.6054656999767758,,,ID040,01,2025-01-21_16h48.09.094,Surprise recog test,2023.1.3,59.946683418554116,
200,0,200,0,,,,,,,,,,,,,,,,,,,,,,,,,,,,,,,,,,868.592861000041,869.6199819000321,866.2197979000048,866.2197979000048,866.2197979000048,866.2197979000048,new_sceneOut_44.png,201,4.0,2.375372300040908,,,ID040,01,2025-01-21_16h48.09.094,Surprise recog test,2023.1.3,59.946683418554116,
201,0,201,0,,,,,,,,,,,,,,,,,,,,,,,,,,,,,,,,,,871.4516684000264,872.4719098000205,869.6199819000321,869.6199819000321,869.6199819000321,869.6199819000321,old_sceneIn_39.png,202,2.0,1.8336239999625832,,,ID040,01,2025-01-21_16h48.09.094,Surprise recog test,2023.1.3,59.946683418554116,
202,0,202,0,,,,,,,,,,,,,,,,,,,,,,,,,,,,,,,,,,873.4990448000026,874.5135898000444,872.4719098000205,872.4719098000205,872.4719098000205,872.4719098000205,old_stationery_36.png,203,2.0,1.027911800018046,,,ID040,01,2025-01-21_16h48.09.094,Surprise recog test,2023.1.3,59.946683418554116,
203,0,203,0,,,,,,,,,,,,,,,,,,,,,,,,,,,,,,,,,,878.0205974000273,879.0408905000077,874.5135898000444,874.5135898000444,874.5135898000444,874.5135898000444,new_sceneOut_7.png,204,3.0,3.503046300029382,,,ID040,01,2025-01-21_16h48.09.094,Surprise recog test,2023.1.3,59.946683418554116,
204,0,204,0,,,,,,,,,,,,,,,,,,,,,,,,,,,,,,,,,,881.7568068000255,882.7801699000411,879.0408905000077,879.0408905000077,879.0408905000077,879.0408905000077,new_fruit_36.png,205,2.0,2.7165465999860317,,,ID040,01,2025-01-21_16h48.09.094,Surprise recog test,2023.1.3,59.946683418554116,
205,0,205,0,,,,,,,,,,,,,,,,,,,,,,,,,,,,,,,,,,884.7013451000093,,882.7801699000411,882.7801699000411,882.7801699000411,882.7801699000411,new_sceneIn_18.png,206,3.0,1.9234750000177883,,,ID040,01,2025-01-21_16h48.09.094,Surprise recog test,2023.1.3,59.946683418554116,
206,0,206,0,,,,,,,,,,,,,,,,,,,,,,,,,,,,,,,,,,887.0160857000155,888.0366433000308,885.7212494999985,885.7212494999985,885.7212494999985,885.7212494999985,new_fruit_9.png,207,2.0,1.285193799994886,,,ID040,01,2025-01-21_16h48.09.094,Surprise recog test,2023.1.3,59.946683418554116,
207,0,207,0,,,,,,,,,,,,,,,,,,,,,,,,,,,,,,,,,,890.0046963000204,,888.0366433000308,888.0366433000308,888.0366433000308,888.0366433000308,new_fruit_25.png,208,2.0,1.9679429999669082,,,ID040,01,2025-01-21_16h48.09.094,Surprise recog test,2023.1.3,59.946683418554116,
208,0,208,0,,,,,,,,,,,,,,,,,,,,,,,,,,,,,,,,,,892.5538878000225,893.5667477000388,891.0403164000018,891.0403164000018,891.0403164000018,891.0403164000018,new_stationery_35.png,209,1.0,1.5144609999842942,,,ID040,01,2025-01-21_16h48.09.094,Surprise recog test,2023.1.3,59.946683418554116,
209,0,209,0,,,,,,,,,,,,,,,,,,,,,,,,,,,,,,,,,,895.0572822000249,896.0653236000217,893.5667477000388,893.5667477000388,893.5667477000388,893.5667477000388,new_sceneOut_24.png,210,3.0,1.4902873000246473,,,ID040,01,2025-01-21_16h48.09.094,Surprise recog test,2023.1.3,59.946683418554116,
210,0,210,0,,,,,,,,,,,,,,,,,,,,,,,,,,,,,,,,,,898.8340130000142,899.852088100044,896.0653236000217,896.0653236000217,896.0653236000217,896.0653236000217,old_fruit_13.png,211,3.0,2.763492900005076,,,ID040,01,2025-01-21_16h48.09.094,Surprise recog test,2023.1.3,59.946683418554116,
211,0,211,0,,,,,,,,,,,,,,,,,,,,,,,,,,,,,,,,,,904.8475770000368,,899.852088100044,899.852088100044,899.852088100044,899.852088100044,new_sceneOut_8.png,212,None,None,904.8323869000305,,ID040,01,2025-01-21_16h48.09.094,Surprise recog test,2023.1.3,59.946683418554116,
212,0,212,0,,,,,,,,,,,,,,,,,,,,,,,,,,,,,,,,,,908.5228420000058,909.5529843000113,905.8574881000095,905.8574881000095,905.8574881000095,905.8574881000095,old_sceneOut_40.png,213,3.0,2.662532500049565,,,ID040,01,2025-01-21_16h48.09.094,Surprise recog test,2023.1.3,59.946683418554116,
213,0,213,0,,,,,,,,,,,,,,,,,,,,,,,,,,,,,,,,,,910.5052630000282,,909.5529843000113,909.5529843000113,909.5529843000113,909.5529843000113,old_fruit_18.png,214,1.0,0.9509163000038825,,,ID040,01,2025-01-21_16h48.09.094,Surprise recog test,2023.1.3,59.946683418554116,
214,0,214,0,,,,,,,,,,,,,,,,,,,,,,,,,,,,,,,,,,912.8935159000102,913.9130899000447,911.5383073000121,911.5383073000121,911.5383073000121,911.5383073000121,new_fruit_48.png,215,1.0,1.3550616999855265,,,ID040,01,2025-01-21_16h48.09.094,Surprise recog test,2023.1.3,59.946683418554116,
215,0,215,0,,,,,,,,,,,,,,,,,,,,,,,,,,,,,,,,,,915.1861807000241,916.1935294000432,913.9130899000447,913.9130899000447,913.9130899000447,913.9130899000447,old_fruit_16.png,216,1.0,1.2686122999875806,,,ID040,01,2025-01-21_16h48.09.094,Surprise recog test,2023.1.3,59.946683418554116,
216,0,216,0,,,,,,,,,,,,,,,,,,,,,,,,,,,,,,,,,,918.141933100007,919.1621346999891,916.1935294000432,916.1935294000432,916.1935294000432,916.1935294000432,old_fruit_50.png,217,2.0,1.944355399988126,,,ID040,01,2025-01-21_16h48.09.094,Surprise recog test,2023.1.3,59.946683418554116,
217,0,217,0,,,,,,,,,,,,,,,,,,,,,,,,,,,,,,,,,,920.4604739000206,921.4794239000184,919.1621346999891,919.1621346999891,919.1621346999891,919.1621346999891,new_stationery_36.png,218,3.0,1.2999504000181332,,,ID040,01,2025-01-21_16h48.09.094,Surprise recog test,2023.1.3,59.946683418554116,
218,0,218,0,,,,,,,,,,,,,,,,,,,,,,,,,,,,,,,,,,924.7405955000431,925.7556664000149,921.4794239000184,921.4794239000184,921.4794239000184,921.4794239000184,new_sceneIn_25.png,219,4.0,3.26290999999037,,,ID040,01,2025-01-21_16h48.09.094,Surprise recog test,2023.1.3,59.946683418554116,
219,0,219,0,,,,,,,,,,,,,,,,,,,,,,,,,,,,,,,,,,927.4351399000152,,925.7556664000149,925.7556664000149,925.7556664000149,925.7556664000149,old_stationery_24.png,220,4.0,1.6723855000454932,,,ID040,01,2025-01-21_16h48.09.094,Surprise recog test,2023.1.3,59.946683418554116,
220,0,220,0,,,,,,,,,,,,,,,,,,,,,,,,,,,,,,,,,,930.5307210000465,931.55622269999,928.4689471000456,928.4689471000456,928.4689471000456,928.4689471000456,new_stationery_13.png,221,2.0,2.0647738000261597,,,ID040,01,2025-01-21_16h48.09.094,Surprise recog test,2023.1.3,59.946683418554116,
221,0,221,0,,,,,,,,,,,,,,,,,,,,,,,,,,,,,,,,,,932.9791560000158,934.008018499997,931.55622269999,931.55622269999,931.55622269999,931.55622269999,new_sceneIn_22.png,222,4.0,1.4228525999933481,,,ID040,01,2025-01-21_16h48.09.094,Surprise recog test,2023.1.3,59.946683418554116,
222,0,222,0,,,,,,,,,,,,,,,,,,,,,,,,,,,,,,,,,,936.4021587000461,937.4250642000115,934.008018499997,934.008018499997,934.008018499997,934.008018499997,old_sceneIn_26.png,223,4.0,2.3957257999572903,,,ID040,01,2025-01-21_16h48.09.094,Surprise recog test,2023.1.3,59.946683418554116,
223,0,223,0,,,,,,,,,,,,,,,,,,,,,,,,,,,,,,,,,,938.7671434000367,939.7946094000363,937.4250642000115,937.4250642000115,937.4250642000115,937.4250642000115,new_sceneOut_1.png,224,3.0,1.3399829000118189,,,ID040,01,2025-01-21_16h48.09.094,Surprise recog test,2023.1.3,59.946683418554116,
224,0,224,0,,,,,,,,,,,,,,,,,,,,,,,,,,,,,,,,,,940.9192466000095,941.9479307000292,939.7946094000363,939.7946094000363,939.7946094000363,939.7946094000363,new_sceneOut_21.png,225,3.0,1.1275131999864243,,,ID040,01,2025-01-21_16h48.09.094,Surprise recog test,2023.1.3,59.946683418554116,
225,0,225,0,,,,,,,,,,,,,,,,,,,,,,,,,,,,,,,,,,943.4193661000463,944.4514977000072,941.9479307000292,941.9479307000292,941.9479307000292,941.9479307000292,old_stationery_26.png,226,1.0,1.4724590000114404,,,ID040,01,2025-01-21_16h48.09.094,Surprise recog test,2023.1.3,59.946683418554116,
226,0,226,0,,,,,,,,,,,,,,,,,,,,,,,,,,,,,,,,,,946.0403791000135,947.0606376000214,944.4514977000072,944.4514977000072,944.4514977000072,944.4514977000072,new_sceneOut_46.png,227,3.0,1.591543400019873,,,ID040,01,2025-01-21_16h48.09.094,Surprise recog test,2023.1.3,59.946683418554116,
227,0,227,0,,,,,,,,,,,,,,,,,,,,,,,,,,,,,,,,,,950.5086130000418,951.5338599000243,947.0606376000214,947.0606376000214,947.0606376000214,947.0606376000214,old_sceneIn_24.png,228,4.0,3.446899700036738,,,ID040,01,2025-01-21_16h48.09.094,Surprise recog test,2023.1.3,59.946683418554116,
228,0,228,0,,,,,,,,,,,,,,,,,,,,,,,,,,,,,,,,,,953.0239798999974,,951.5338599000243,951.5338599000243,951.5338599000243,951.5338599000243,new_fruit_26.png,229,1.0,1.4888450999860652,,,ID040,01,2025-01-21_16h48.09.094,Surprise recog test,2023.1.3,59.946683418554116,
229,0,229,0,,,,,,,,,,,,,,,,,,,,,,,,,,,,,,,,,,955.6759238000377,,954.0581852000323,954.0581852000323,954.0581852000323,954.0581852000323,new_sceneIn_13.png,230,3.0,1.619620000012219,,,ID040,01,2025-01-21_16h48.09.094,Surprise recog test,2023.1.3,59.946683418554116,
230,0,230,0,,,,,,,,,,,,,,,,,,,,,,,,,,,,,,,,,,958.4464898000006,959.4674617000273,956.6935309999972,956.6935309999972,956.6935309999972,956.6935309999972,new_stationery_31.png,231,5.0,1.748969100008253,,,ID040,01,2025-01-21_16h48.09.094,Surprise recog test,2023.1.3,59.946683418554116,
231,0,231,0,,,,,,,,,,,,,,,,,,,,,,,,,,,,,,,,,,961.0431462000124,962.0641128999996,959.4674617000273,959.4674617000273,959.4674617000273,959.4674617000273,new_sceneIn_48.png,232,5.0,1.5709255000110716,,,ID040,01,2025-01-21_16h48.09.094,Surprise recog test,2023.1.3,59.946683418554116,
232,0,232,0,,,,,,,,,,,,,,,,,,,,,,,,,,,,,,,,,,964.4556896000286,965.4686015000334,962.0641128999996,962.0641128999996,962.0641128999996,962.0641128999996,new_sceneOut_38.png,233,3.0,2.3931257000076585,,,ID040,01,2025-01-21_16h48.09.094,Surprise recog test,2023.1.3,59.946683418554116,
233,0,233,0,,,,,,,,,,,,,,,,,,,,,,,,,,,,,,,,,,968.8621282000095,969.8735652000178,965.4686015000334,965.4686015000334,965.4686015000334,965.4686015000334,old_stationery_17.png,234,3.0,3.3893838000367396,,,ID040,01,2025-01-21_16h48.09.094,Surprise recog test,2023.1.3,59.946683418554116,
234,0,234,0,,,,,,,,,,,,,,,,,,,,,,,,,,,,,,,,,,971.2491445000051,972.2742794000078,969.8735652000178,969.8735652000178,969.8735652000178,969.8735652000178,old_sceneIn_43.png,235,3.0,1.3732416999991983,,,ID040,01,2025-01-21_16h48.09.094,Surprise recog test,2023.1.3,59.946683418554116,
235,0,235,0,,,,,,,,,,,,,,,,,,,,,,,,,,,,,,,,,,976.6528978000279,977.6772530000308,972.2742794000078,972.2742794000078,972.2742794000078,972.2742794000078,old_sceneOut_20.png,236,2.0,4.380615599977318,,,ID040,01,2025-01-21_16h48.09.094,Surprise recog test,2023.1.3,59.946683418554116,
236,0,236,0,,,,,,,,,,,,,,,,,,,,,,,,,,,,,,,,,,979.5963551999885,,977.6772530000308,977.6772530000308,977.6772530000308,977.6772530000308,old_stationery_30.png,237,4.0,1.9189181000110693,,,ID040,01,2025-01-21_16h48.09.094,Surprise recog test,2023.1.3,59.946683418554116,
237,0,237,0,,,,,,,,,,,,,,,,,,,,,,,,,,,,,,,,,,981.6968259999994,,980.6170546000358,980.6170546000358,980.6170546000358,980.6170546000358,old_sceneIn_48.png,238,4.0,1.075419000000693,,,ID040,01,2025-01-21_16h48.09.094,Surprise recog test,2023.1.3,59.946683418554116,
238,0,238,0,,,,,,,,,,,,,,,,,,,,,,,,,,,,,,,,,,984.5487611000426,985.5568041999941,982.7284023000393,982.7284023000393,982.7284023000393,982.7284023000393,old_fruit_29.png,239,2.0,1.820919900026638,,,ID040,01,2025-01-21_16h48.09.094,Surprise recog test,2023.1.3,59.946683418554116,
239,0,239,0,,,,,,,,,,,,,,,,,,,,,,,,,,,,,,,,,,987.4509556000121,988.4670913000009,985.5568041999941,985.5568041999941,985.5568041999941,985.5568041999941,new_sceneOut_13.png,240,5.0,1.8882457000436261,,,ID040,01,2025-01-21_16h48.09.094,Surprise recog test,2023.1.3,59.946683418554116,
240,0,240,0,,,,,,,,,,,,,,,,,,,,,,,,,,,,,,,,,,990.7422900000238,991.7739319000393,988.4670913000009,988.4670913000009,988.4670913000009,988.4670913000009,old_fruit_28.png,241,3.0,2.278290599992033,,,ID040,01,2025-01-21_16h48.09.094,Surprise recog test,2023.1.3,59.946683418554116,
241,0,241,0,,,,,,,,,,,,,,,,,,,,,,,,,,,,,,,,,,993.6208974000183,994.6289811000461,991.7739319000393,991.7739319000393,991.7739319000393,991.7739319000393,new_stationery_24.png,242,3.0,1.8472323000314645,,,ID040,01,2025-01-21_16h48.09.094,Surprise recog test,2023.1.3,59.946683418554116,
242,0,242,0,,,,,,,,,,,,,,,,,,,,,,,,,,,,,,,,,,996.3321950000245,997.3489114000113,994.6289811000461,994.6289811000461,994.6289811000461,994.6289811000461,old_sceneIn_1.png,243,5.0,1.6995353000238538,,,ID040,01,2025-01-21_16h48.09.094,Surprise recog test,2023.1.3,59.946683418554116,
243,0,243,0,,,,,,,,,,,,,,,,,,,,,,,,,,,,,,,,,,998.5618689000257,,997.3489114000113,997.3489114000113,997.3489114000113,997.3489114000113,new_sceneIn_49.png,244,5.0,1.208492900012061,,,ID040,01,2025-01-21_16h48.09.094,Surprise recog test,2023.1.3,59.946683418554116,
244,0,244,0,,,,,,,,,,,,,,,,,,,,,,,,,,,,,,,,,,1000.652698800026,1001.6827986999997,999.5975954000023,999.5975954000023,999.5975954000023,999.5975954000023,new_sceneIn_45.png,245,5.0,1.056587400031276,,,ID040,01,2025-01-21_16h48.09.094,Surprise recog test,2023.1.3,59.946683418554116,
245,0,245,0,,,,,,,,,,,,,,,,,,,,,,,,,,,,,,,,,,1004.4554002000368,1005.4737474000431,1001.6827986999997,1001.6827986999997,1001.6827986999997,1001.6827986999997,new_sceneOut_23.png,246,4.0,2.7752593000186607,,,ID040,01,2025-01-21_16h48.09.094,Surprise recog test,2023.1.3,59.946683418554116,
246,0,246,0,,,,,,,,,,,,,,,,,,,,,,,,,,,,,,,,,,1007.2331473000231,1008.240708700032,1005.4737474000431,1005.4737474000431,1005.4737474000431,1005.4737474000431,new_stationery_11.png,247,5.0,1.7552619999623857,,,ID040,01,2025-01-21_16h48.09.094,Surprise recog test,2023.1.3,59.946683418554116,
247,0,247,0,,,,,,,,,,,,,,,,,,,,,,,,,,,,,,,,,,1009.534303100023,1010.5419528000057,1008.240708700032,1008.240708700032,1008.240708700032,1008.240708700032,old_sceneIn_46.png,248,5.0,1.28873550001299,,,ID040,01,2025-01-21_16h48.09.094,Surprise recog test,2023.1.3,59.946683418554116,
248,0,248,0,,,,,,,,,,,,,,,,,,,,,,,,,,,,,,,,,,1012.0206293000374,1013.038550199999,1010.5419528000057,1010.5419528000057,1010.5419528000057,1010.5419528000057,old_stationery_5.png,249,3.0,1.4723642999888398,,,ID040,01,2025-01-21_16h48.09.094,Surprise recog test,2023.1.3,59.946683418554116,
249,0,249,0,,,,,,,,,,,,,,,,,,,,,,,,,,,,,,,,,,1015.6970279000234,1016.7302065000404,1013.038550199999,1013.038550199999,1013.038550199999,1013.038550199999,new_fruit_3.png,250,3.0,2.658652800018899,,,ID040,01,2025-01-21_16h48.09.094,Surprise recog test,2023.1.3,59.946683418554116,
250,0,250,0,,,,,,,,,,,,,,,,,,,,,,,,,,,,,,,,,,1019.5878452000325,1020.6141501000384,1016.7302065000404,1016.7302065000404,1016.7302065000404,1016.7302065000404,new_sceneOut_50.png,251,3.0,2.858305300003849,,,ID040,01,2025-01-21_16h48.09.094,Surprise recog test,2023.1.3,59.946683418554116,
251,0,251,0,,,,,,,,,,,,,,,,,,,,,,,,,,,,,,,,,,1022.5298829000094,1023.5447830000194,1020.6141501000384,1020.6141501000384,1020.6141501000384,1020.6141501000384,new_fruit_41.png,252,5.0,1.9183246999746189,,,ID040,01,2025-01-21_16h48.09.094,Surprise recog test,2023.1.3,59.946683418554116,
252,0,252,0,,,,,,,,,,,,,,,,,,,,,,,,,,,,,,,,,,1026.5709593000356,1027.603481500002,1023.5447830000194,1023.5447830000194,1023.5447830000194,1023.5447830000194,old_sceneOut_33.png,253,3.0,3.0275014999788254,,,ID040,01,2025-01-21_16h48.09.094,Surprise recog test,2023.1.3,59.946683418554116,
253,0,253,0,,,,,,,,,,,,,,,,,,,,,,,,,,,,,,,,,,1029.6539471000433,,1027.603481500002,1027.603481500002,1027.603481500002,1027.603481500002,old_sceneOut_48.png,254,5.0,2.04978659999324,,,ID040,01,2025-01-21_16h48.09.094,Surprise recog test,2023.1.3,59.946683418554116,
254,0,254,0,,,,,,,,,,,,,,,,,,,,,,,,,,,,,,,,,,1033.3653885000385,1034.3944969000295,1030.6866552000283,1030.6866552000283,1030.6866552000283,1030.6866552000283,new_sceneOut_49.png,255,3.0,2.679825200000778,,,ID040,01,2025-01-21_16h48.09.094,Surprise recog test,2023.1.3,59.946683418554116,
255,0,255,0,,,,,,,,,,,,,,,,,,,,,,,,,,,,,,,,,,1036.2586685999995,1037.2656807000167,1034.3944969000295,1034.3944969000295,1034.3944969000295,1034.3944969000295,old_sceneOut_10.png,256,3.0,1.8664506999775767,,,ID040,01,2025-01-21_16h48.09.094,Surprise recog test,2023.1.3,59.946683418554116,
256,0,256,0,,,,,,,,,,,,,,,,,,,,,,,,,,,,,,,,,,1039.0923459000187,1040.1129475000198,1037.2656807000167,1037.2656807000167,1037.2656807000167,1037.2656807000167,old_stationery_44.png,257,2.0,1.8156617999775335,,,ID040,01,2025-01-21_16h48.09.094,Surprise recog test,2023.1.3,59.946683418554116,
257,0,257,0,,,,,,,,,,,,,,,,,,,,,,,,,,,,,,,,,,1042.5786479000235,1043.59973050002,1040.1129475000198,1040.1129475000198,1040.1129475000198,1040.1129475000198,new_fruit_12.png,258,4.0,2.4619870000169612,,,ID040,01,2025-01-21_16h48.09.094,Surprise recog test,2023.1.3,59.946683418554116,
258,0,258,0,,,,,,,,,,,,,,,,,,,,,,,,,,,,,,,,,,1046.03687489999,1047.070565800008,1043.59973050002,1043.59973050002,1043.59973050002,1043.59973050002,new_stationery_25.png,259,2.0,2.4390172999701463,,,ID040,01,2025-01-21_16h48.09.094,Surprise recog test,2023.1.3,59.946683418554116,
259,0,259,0,,,,,,,,,,,,,,,,,,,,,,,,,,,,,,,,,,1048.306835700001,1049.3396042000386,1047.070565800008,1047.070565800008,1047.070565800008,1047.070565800008,old_stationery_9.png,260,2.0,1.2399673000327311,,,ID040,01,2025-01-21_16h48.09.094,Surprise recog test,2023.1.3,59.946683418554116,
260,0,260,0,,,,,,,,,,,,,,,,,,,,,,,,,,,,,,,,,,1052.0567459000158,,1049.3396042000386,1049.3396042000386,1049.3396042000386,1049.3396042000386,old_fruit_37.png,261,1.0,2.71738499996718,,,ID040,01,2025-01-21_16h48.09.094,Surprise recog test,2023.1.3,59.946683418554116,
261,0,261,0,,,,,,,,,,,,,,,,,,,,,,,,,,,,,,,,,,1054.4814099000068,1055.5100875000353,1053.0905379999895,1053.0905379999895,1053.0905379999895,1053.0905379999895,old_sceneOut_9.png,262,3.0,1.3923730000387877,,,ID040,01,2025-01-21_16h48.09.094,Surprise recog test,2023.1.3,59.946683418554116,
262,0,262,0,,,,,,,,,,,,,,,,,,,,,,,,,,,,,,,,,,1057.8228078000247,1058.8462325000437,1055.5100875000353,1055.5100875000353,1055.5100875000353,1055.5100875000353,new_sceneOut_31.png,263,3.0,2.3152621000190265,,,ID040,01,2025-01-21_16h48.09.094,Surprise recog test,2023.1.3,59.946683418554116,
263,0,263,0,,,,,,,,,,,,,,,,,,,,,,,,,,,,,,,,,,1060.0933564000297,1061.1157835000195,1058.8462325000437,1058.8462325000437,1058.8462325000437,1058.8462325000437,old_fruit_30.png,264,1.0,1.2450926999445073,,,ID040,01,2025-01-21_16h48.09.094,Surprise recog test,2023.1.3,59.946683418554116,
264,0,264,0,,,,,,,,,,,,,,,,,,,,,,,,,,,,,,,,,,1064.5492295000004,,1061.1157835000195,1061.1157835000195,1061.1157835000195,1061.1157835000195,old_stationery_23.png,265,3.0,3.436477599956561,,,ID040,01,2025-01-21_16h48.09.094,Surprise recog test,2023.1.3,59.946683418554116,
265,0,265,0,,,,,,,,,,,,,,,,,,,,,,,,,,,,,,,,,,1066.8921875000233,1067.907443300006,1065.587345500011,1065.587345500011,1065.587345500011,1065.587345500011,new_stationery_21.png,266,5.0,1.3071354000130668,,,ID040,01,2025-01-21_16h48.09.094,Surprise recog test,2023.1.3,59.946683418554116,
266,0,266,0,,,,,,,,,,,,,,,,,,,,,,,,,,,,,,,,,,1068.9901694,1070.0207601000438,1067.907443300006,1067.907443300006,1067.907443300006,1067.907443300006,new_sceneOut_6.png,267,3.0,1.0783715000143275,,,ID040,01,2025-01-21_16h48.09.094,Surprise recog test,2023.1.3,59.946683418554116,
267,0,267,0,,,,,,,,,,,,,,,,,,,,,,,,,,,,,,,,,,1071.4751541000442,1072.4905192000442,1070.0207601000438,1070.0207601000438,1070.0207601000438,1070.0207601000438,old_stationery_31.png,268,1.0,1.4573838000069372,,,ID040,01,2025-01-21_16h48.09.094,Surprise recog test,2023.1.3,59.946683418554116,
268,0,268,0,,,,,,,,,,,,,,,,,,,,,,,,,,,,,,,,,,1075.2393829000066,1076.256973600015,1072.4905192000442,1072.4905192000442,1072.4905192000442,1072.4905192000442,new_fruit_16.png,269,3.0,2.737737499992363,,,ID040,01,2025-01-21_16h48.09.094,Surprise recog test,2023.1.3,59.946683418554116,
269,0,269,0,,,,,,,,,,,,,,,,,,,,,,,,,,,,,,,,,,1079.407934500021,1080.41740570002,1076.256973600015,1076.256973600015,1076.256973600015,1076.256973600015,new_sceneOut_42.png,270,4.0,3.1538470000377856,,,ID040,01,2025-01-21_16h48.09.094,Surprise recog test,2023.1.3,59.946683418554116,
270,0,270,0,,,,,,,,,,,,,,,,,,,,,,,,,,,,,,,,,,1082.2047549000126,1083.2351606000448,1080.41740570002,1080.41740570002,1080.41740570002,1080.41740570002,new_fruit_34.png,271,4.0,1.7817032000166364,,,ID040,01,2025-01-21_16h48.09.094,Surprise recog test,2023.1.3,59.946683418554116,
271,0,271,0,,,,,,,,,,,,,,,,,,,,,,,,,,,,,,,,,,1084.5450340000098,1085.5596912000328,1083.2351606000448,1083.2351606000448,1083.2351606000448,1083.2351606000448,new_sceneOut_19.png,272,3.0,1.3140520000015385,,,ID040,01,2025-01-21_16h48.09.094,Surprise recog test,2023.1.3,59.946683418554116,
272,0,272,0,,,,,,,,,,,,,,,,,,,,,,,,,,,,,,,,,,1087.7551858000224,1088.7864676000318,1085.5596912000328,1085.5596912000328,1085.5596912000328,1085.5596912000328,old_sceneOut_38.png,273,3.0,2.1959947999566793,,,ID040,01,2025-01-21_16h48.09.094,Surprise recog test,2023.1.3,59.946683418554116,
273,0,273,0,,,,,,,,,,,,,,,,,,,,,,,,,,,,,,,,,,1091.076117300021,1092.1092325000209,1088.7864676000318,1088.7864676000318,1088.7864676000318,1088.7864676000318,old_fruit_34.png,274,3.0,2.2920248999726027,,,ID040,01,2025-01-21_16h48.09.094,Surprise recog test,2023.1.3,59.946683418554116,
274,0,274,0,,,,,,,,,,,,,,,,,,,,,,,,,,,,,,,,,,1094.0613035000279,1095.094536699995,1092.1092325000209,1092.1092325000209,1092.1092325000209,1092.1092325000209,old_fruit_41.png,275,1.0,1.9561601000023074,,,ID040,01,2025-01-21_16h48.09.094,Surprise recog test,2023.1.3,59.946683418554116,
275,0,275,0,,,,,,,,,,,,,,,,,,,,,,,,,,,,,,,,,,1097.2074288000003,1098.2277781000012,1095.094536699995,1095.094536699995,1095.094536699995,1095.094536699995,old_sceneOut_11.png,276,3.0,2.1119426999939606,,,ID040,01,2025-01-21_16h48.09.094,Surprise recog test,2023.1.3,59.946683418554116,
276,0,276,0,,,,,,,,,,,,,,,,,,,,,,,,,,,,,,,,,,1099.6695376000134,1100.680958300014,1098.2277781000012,1098.2277781000012,1098.2277781000012,1098.2277781000012,old_sceneIn_35.png,277,5.0,1.4438719999743626,,,ID040,01,2025-01-21_16h48.09.094,Surprise recog test,2023.1.3,59.946683418554116,
277,0,277,0,,,,,,,,,,,,,,,,,,,,,,,,,,,,,,,,,,1101.9166097000125,1102.9464373000083,1100.680958300014,1100.680958300014,1100.680958300014,1100.680958300014,new_sceneOut_36.png,278,5.0,1.229375000053551,,,ID040,01,2025-01-21_16h48.09.094,Surprise recog test,2023.1.3,59.946683418554116,
278,0,278,0,,,,,,,,,,,,,,,,,,,,,,,,,,,,,,,,,,1104.9608212000458,1105.9870195999974,1102.9464373000083,1102.9464373000083,1102.9464373000083,1102.9464373000083,new_fruit_10.png,279,5.0,2.014859300048556,,,ID040,01,2025-01-21_16h48.09.094,Surprise recog test,2023.1.3,59.946683418554116,
279,0,279,0,,,,,,,,,,,,,,,,,,,,,,,,,,,,,,,,,,1107.2664060000097,1108.2883713000338,1105.9870195999974,1105.9870195999974,1105.9870195999974,1105.9870195999974,new_sceneIn_38.png,280,5.0,1.2813009000383317,,,ID040,01,2025-01-21_16h48.09.094,Surprise recog test,2023.1.3,59.946683418554116,
280,0,280,0,,,,,,,,,,,,,,,,,,,,,,,,,,,,,,,,,,1110.3416154000442,1111.3723783000023,1108.2883713000338,1108.2883713000338,1108.2883713000338,1108.2883713000338,new_sceneOut_16.png,281,4.0,2.053821399982553,,,ID040,01,2025-01-21_16h48.09.094,Surprise recog test,2023.1.3,59.946683418554116,
281,0,281,0,,,,,,,,,,,,,,,,,,,,,,,,,,,,,,,,,,1114.0133463999955,1115.0293310999987,1111.3723783000023,1111.3723783000023,1111.3723783000023,1111.3723783000023,new_fruit_15.png,282,3.0,2.642623200023081,,,ID040,01,2025-01-21_16h48.09.094,Surprise recog test,2023.1.3,59.946683418554116,
282,0,282,0,,,,,,,,,,,,,,,,,,,,,,,,,,,,,,,,,,1117.3411379000172,1118.3524097999907,1115.0293310999987,1115.0293310999987,1115.0293310999987,1115.0293310999987,new_sceneIn_41.png,283,4.0,2.307174599962309,,,ID040,01,2025-01-21_16h48.09.094,Surprise recog test,2023.1.3,59.946683418554116,
283,0,283,0,,,,,,,,,,,,,,,,,,,,,,,,,,,,,,,,,,1120.0819186000153,1121.1141384000075,1118.3524097999907,1118.3524097999907,1118.3524097999907,1118.3524097999907,new_stationery_42.png,284,3.0,1.7271818000008352,,,ID040,01,2025-01-21_16h48.09.094,Surprise recog test,2023.1.3,59.946683418554116,
284,0,284,0,,,,,,,,,,,,,,,,,,,,,,,,,,,,,,,,,,1122.2115917000338,1123.2220000000088,1121.1141384000075,1121.1141384000075,1121.1141384000075,1121.1141384000075,new_sceneIn_9.png,285,5.0,1.0945232000085525,,,ID040,01,2025-01-21_16h48.09.094,Surprise recog test,2023.1.3,59.946683418554116,
285,0,285,0,,,,,,,,,,,,,,,,,,,,,,,,,,,,,,,,,,1124.313641900022,1125.3216481000418,1123.2220000000088,1123.2220000000088,1123.2220000000088,1123.2220000000088,new_sceneIn_40.png,286,5.0,1.0880458999890834,,,ID040,01,2025-01-21_16h48.09.094,Surprise recog test,2023.1.3,59.946683418554116,
286,0,286,0,,,,,,,,,,,,,,,,,,,,,,,,,,,,,,,,,,1126.9690827000304,,1125.3216481000418,1125.3216481000418,1125.3216481000418,1125.3216481000418,old_stationery_43.png,287,3.0,1.6435980999958701,,,ID040,01,2025-01-21_16h48.09.094,Surprise recog test,2023.1.3,59.946683418554116,
287,0,287,0,,,,,,,,,,,,,,,,,,,,,,,,,,,,,,,,,,1129.8345610999968,1130.8551812000223,1128.002789399994,1128.002789399994,1128.002789399994,1128.002789399994,old_stationery_45.png,288,2.0,1.8276482000364922,,,ID040,01,2025-01-21_16h48.09.094,Surprise recog test,2023.1.3,59.946683418554116,
288,0,288,0,,,,,,,,,,,,,,,,,,,,,,,,,,,,,,,,,,1133.1598255000426,1134.1955460000318,1130.8551812000223,1130.8551812000223,1130.8551812000223,1130.8551812000223,new_sceneIn_24.png,289,4.0,2.307022200024221,,,ID040,01,2025-01-21_16h48.09.094,Surprise recog test,2023.1.3,59.946683418554116,
289,0,289,0,,,,,,,,,,,,,,,,,,,,,,,,,,,,,,,,,,1136.2175483000465,1137.2451651000301,1134.1955460000318,1134.1955460000318,1134.1955460000318,1134.1955460000318,old_sceneIn_37.png,290,4.0,2.0258060000487603,,,ID040,01,2025-01-21_16h48.09.094,Surprise recog test,2023.1.3,59.946683418554116,
290,0,290,0,,,,,,,,,,,,,,,,,,,,,,,,,,,,,,,,,,1138.7531326000462,1139.779255100002,1137.2451651000301,1137.2451651000301,1137.2451651000301,1137.2451651000301,new_fruit_14.png,291,2.0,1.5101716999779455,,,ID040,01,2025-01-21_16h48.09.094,Surprise recog test,2023.1.3,59.946683418554116,
291,0,291,0,,,,,,,,,,,,,,,,,,,,,,,,,,,,,,,,,,1143.1683044999954,1144.201933000004,1139.779255100002,1139.779255100002,1139.779255100002,1139.779255100002,new_stationery_5.png,292,3.0,3.3909902999876067,,,ID040,01,2025-01-21_16h48.09.094,Surprise recog test,2023.1.3,59.946683418554116,
292,0,292,0,,,,,,,,,,,,,,,,,,,,,,,,,,,,,,,,,,1146.665541400027,1147.6796659000101,1144.201933000004,1144.201933000004,1144.201933000004,1144.201933000004,new_fruit_23.png,293,4.0,2.4664563999976963,,,ID040,01,2025-01-21_16h48.09.094,Surprise recog test,2023.1.3,59.946683418554116,
293,0,293,0,,,,,,,,,,,,,,,,,,,,,,,,,,,,,,,,,,1148.7041688000318,,1147.6796659000101,1147.6796659000101,1147.6796659000101,1147.6796659000101,old_fruit_24.png,294,1.0,1.0256548000033945,,,ID040,01,2025-01-21_16h48.09.094,Surprise recog test,2023.1.3,59.946683418554116,
294,0,294,0,,,,,,,,,,,,,,,,,,,,,,,,,,,,,,,,,,1151.9083296000026,1152.9406808000058,1149.7372724000015,1149.7372724000015,1149.7372724000015,1149.7372724000015,old_stationery_19.png,295,3.0,2.173561699979473,,,ID040,01,2025-01-21_16h48.09.094,Surprise recog test,2023.1.3,59.946683418554116,
295,0,295,0,,,,,,,,,,,,,,,,,,,,,,,,,,,,,,,,,,1155.922810100019,1156.9530176999979,1152.9406808000058,1152.9406808000058,1152.9406808000058,1152.9406808000058,old_sceneOut_12.png,296,4.0,2.9834902999573387,,,ID040,01,2025-01-21_16h48.09.094,Surprise recog test,2023.1.3,59.946683418554116,
296,0,296,0,,,,,,,,,,,,,,,,,,,,,,,,,,,,,,,,,,1158.1195601000218,1159.1445686999941,1156.9530176999979,1156.9530176999979,1156.9530176999979,1156.9530176999979,new_stationery_28.png,297,2.0,1.1688943000044674,,,ID040,01,2025-01-21_16h48.09.094,Surprise recog test,2023.1.3,59.946683418554116,
297,0,297,0,,,,,,,,,,,,,,,,,,,,,,,,,,,,,,,,,,1160.0725790000288,1161.0861384000164,1159.1445686999941,1159.1445686999941,1159.1445686999941,1159.1445686999941,old_sceneIn_18.png,298,4.0,0.9277989999973215,,,ID040,01,2025-01-21_16h48.09.094,Surprise recog test,2023.1.3,59.946683418554116,
298,0,298,0,,,,,,,,,,,,,,,,,,,,,,,,,,,,,,,,,,1162.7469228000264,1163.7538326000213,1161.0861384000164,1161.0861384000164,1161.0861384000164,1161.0861384000164,old_stationery_33.png,299,2.0,1.655895399977453,,,ID040,01,2025-01-21_16h48.09.094,Surprise recog test,2023.1.3,59.946683418554116,
299,0,299,0,,,,,,,,,,,,,,,,,,,,,,,,,,,,,,,,,,1166.0001679999987,,1163.7538326000213,1163.7538326000213,1163.7538326000213,1163.7538326000213,old_stationery_22.png,300,5.0,2.242266299959738,,,ID040,01,2025-01-21_16h48.09.094,Surprise recog test,2023.1.3,59.946683418554116,
300,0,300,0,,,,,,,,,,,,,,,,,,,,,,,,,,,,,,,,,,1168.5640238000196,1169.5944533000002,1167.0340185000096,1167.0340185000096,1167.0340185000096,1167.0340185000096,old_fruit_48.png,301,3.0,1.5320065999985673,,,ID040,01,2025-01-21_16h48.09.094,Surprise recog test,2023.1.3,59.946683418554116,
301,0,301,0,,,,,,,,,,,,,,,,,,,,,,,,,,,,,,,,,,1172.0676312000141,1173.0786376000033,1169.5944533000002,1169.5944533000002,1169.5944533000002,1169.5944533000002,old_sceneIn_29.png,302,2.0,2.4776894000242464,,,ID040,01,2025-01-21_16h48.09.094,Surprise recog test,2023.1.3,59.946683418554116,
302,0,302,0,,,,,,,,,,,,,,,,,,,,,,,,,,,,,,,,,,1175.9681608999963,1176.98695640004,1173.0786376000033,1173.0786376000033,1173.0786376000033,1173.0786376000033,new_stationery_46.png,303,3.0,2.88521189999301,,,ID040,01,2025-01-21_16h48.09.094,Surprise recog test,2023.1.3,59.946683418554116,
303,0,303,0,,,,,,,,,,,,,,,,,,,,,,,,,,,,,,,,,,1178.5538972000359,1179.573862500023,1176.98695640004,1176.98695640004,1176.98695640004,1176.98695640004,new_stationery_34.png,304,5.0,1.5672291000373662,,,ID040,01,2025-01-21_16h48.09.094,Surprise recog test,2023.1.3,59.946683418554116,
304,0,304,0,,,,,,,,,,,,,,,,,,,,,,,,,,,,,,,,,,1180.9040918000392,1181.9337347000255,1179.573862500023,1179.573862500023,1179.573862500023,1179.573862500023,old_fruit_45.png,305,1.0,1.3269564000074752,,,ID040,01,2025-01-21_16h48.09.094,Surprise recog test,2023.1.3,59.946683418554116,
305,0,305,0,,,,,,,,,,,,,,,,,,,,,,,,,,,,,,,,,,1183.413524600037,1184.434245500015,1181.9337347000255,1181.9337347000255,1181.9337347000255,1181.9337347000255,old_fruit_43.png,306,1.0,1.4818391000153497,,,ID040,01,2025-01-21_16h48.09.094,Surprise recog test,2023.1.3,59.946683418554116,
306,0,306,0,,,,,,,,,,,,,,,,,,,,,,,,,,,,,,,,,,1187.0405455,1188.066974700021,1184.434245500015,1184.434245500015,1184.434245500015,1184.434245500015,old_sceneIn_49.png,307,4.0,2.6088178000063635,,,ID040,01,2025-01-21_16h48.09.094,Surprise recog test,2023.1.3,59.946683418554116,
307,0,307,0,,,,,,,,,,,,,,,,,,,,,,,,,,,,,,,,,,1192.1232272000052,,1188.066974700021,1188.066974700021,1188.066974700021,1188.066974700021,old_sceneOut_27.png,308,3.0,4.05559840000933,,,ID040,01,2025-01-21_16h48.09.094,Surprise recog test,2023.1.3,59.946683418554116,
308,0,308,0,,,,,,,,,,,,,,,,,,,,,,,,,,,,,,,,,,1194.4753219000413,,1193.1550971000106,1193.1550971000106,1193.1550971000106,1193.1550971000106,old_stationery_39.png,309,2.0,1.3219309000414796,,,ID040,01,2025-01-21_16h48.09.094,Surprise recog test,2023.1.3,59.946683418554116,
309,0,309,0,,,,,,,,,,,,,,,,,,,,,,,,,,,,,,,,,,1196.7556048000115,1197.7698381000082,1195.495711399999,1195.495711399999,1195.495711399999,1195.495711399999,old_fruit_7.png,310,1.0,1.2535993999917991,,,ID040,01,2025-01-21_16h48.09.094,Surprise recog test,2023.1.3,59.946683418554116,
310,0,310,0,,,,,,,,,,,,,,,,,,,,,,,,,,,,,,,,,,1200.6656772000133,1201.707748200046,1197.7698381000082,1197.7698381000082,1197.7698381000082,1197.7698381000082,old_sceneIn_33.png,311,3.0,2.895924699958414,,,ID040,01,2025-01-21_16h48.09.094,Surprise recog test,2023.1.3,59.946683418554116,
311,0,311,0,,,,,,,,,,,,,,,,,,,,,,,,,,,,,,,,,,1204.9910584000172,1206.0160655000363,1201.707748200046,1201.707748200046,1201.707748200046,1201.707748200046,new_sceneIn_33.png,312,3.0,3.288467700011097,,,ID040,01,2025-01-21_16h48.09.094,Surprise recog test,2023.1.3,59.946683418554116,
312,0,312,0,,,,,,,,,,,,,,,,,,,,,,,,,,,,,,,,,,1209.7137076000217,1210.7389775000047,1206.0160655000363,1206.0160655000363,1206.0160655000363,1206.0160655000363,old_sceneOut_36.png,313,3.0,3.6984748000395484,,,ID040,01,2025-01-21_16h48.09.094,Surprise recog test,2023.1.3,59.946683418554116,
313,0,313,0,,,,,,,,,,,,,,,,,,,,,,,,,,,,,,,,,,1212.983196999994,1214.0090267999913,1210.7389775000047,1210.7389775000047,1210.7389775000047,1210.7389775000047,old_stationery_50.png,314,2.0,2.247617100016214,,,ID040,01,2025-01-21_16h48.09.094,Surprise recog test,2023.1.3,59.946683418554116,
314,0,314,0,,,,,,,,,,,,,,,,,,,,,,,,,,,,,,,,,,1215.2020682000439,1216.225326600019,1214.0090267999913,1214.0090267999913,1214.0090267999913,1214.0090267999913,old_sceneOut_1.png,315,1.0,1.1950224000029266,,,ID040,01,2025-01-21_16h48.09.094,Surprise recog test,2023.1.3,59.946683418554116,
315,0,315,0,,,,,,,,,,,,,,,,,,,,,,,,,,,,,,,,,,1219.092635900015,1220.1119802999892,1216.225326600019,1216.225326600019,1216.225326600019,1216.225326600019,new_fruit_32.png,316,3.0,2.866936100006569,,,ID040,01,2025-01-21_16h48.09.094,Surprise recog test,2023.1.3,59.946683418554116,
316,0,316,0,,,,,,,,,,,,,,,,,,,,,,,,,,,,,,,,,,1222.5536680000369,1223.5695612000418,1220.1119802999892,1220.1119802999892,1220.1119802999892,1220.1119802999892,new_stationery_43.png,317,3.0,2.4440536000183783,,,ID040,01,2025-01-21_16h48.09.094,Surprise recog test,2023.1.3,59.946683418554116,
317,0,317,0,,,,,,,,,,,,,,,,,,,,,,,,,,,,,,,,,,1224.9693526999908,1225.9887713000062,1223.5695612000418,1223.5695612000418,1223.5695612000418,1223.5695612000418,old_sceneIn_2.png,318,3.0,1.3925419000443071,,,ID040,01,2025-01-21_16h48.09.094,Surprise recog test,2023.1.3,59.946683418554116,
318,0,318,0,,,,,,,,,,,,,,,,,,,,,,,,,,,,,,,,,,1228.7741377000348,1229.8028168000164,1225.9887713000062,1225.9887713000062,1225.9887713000062,1225.9887713000062,new_fruit_5.png,319,2.0,2.781512199959252,,,ID040,01,2025-01-21_16h48.09.094,Surprise recog test,2023.1.3,59.946683418554116,
319,0,319,0,,,,,,,,,,,,,,,,,,,,,,,,,,,,,,,,,,1231.1616128000314,1232.1945168999955,1229.8028168000164,1229.8028168000164,1229.8028168000164,1229.8028168000164,new_sceneOut_20.png,320,3.0,1.3602095000096597,,,ID040,01,2025-01-21_16h48.09.094,Surprise recog test,2023.1.3,59.946683418554116,
320,0,320,0,,,,,,,,,,,,,,,,,,,,,,,,,,,,,,,,,,1234.398417600023,1235.4134832000127,1232.1945168999955,1232.1945168999955,1232.1945168999955,1232.1945168999955,new_sceneIn_5.png,321,4.0,2.2080812999629416,,,ID040,01,2025-01-21_16h48.09.094,Surprise recog test,2023.1.3,59.946683418554116,
321,0,321,0,,,,,,,,,,,,,,,,,,,,,,,,,,,,,,,,,,1237.0775970999966,,1235.4134832000127,1235.4134832000127,1235.4134832000127,1235.4134832000127,new_stationery_50.png,322,2.0,1.6567804000223987,,,ID040,01,2025-01-21_16h48.09.094,Surprise recog test,2023.1.3,59.946683418554116,
322,0,322,0,,,,,,,,,,,,,,,,,,,,,,,,,,,,,,,,,,1239.628692600003,,1238.0975709999911,1238.0975709999911,1238.0975709999911,1238.0975709999911,new_stationery_14.png,323,3.0,1.5253875000053085,,,ID040,01,2025-01-21_16h48.09.094,Surprise recog test,2023.1.3,59.946683418554116,
323,0,323,0,,,,,,,,,,,,,,,,,,,,,,,,,,,,,,,,,,1242.562039200042,1243.5817639000015,1240.6617341000238,1240.6617341000238,1240.6617341000238,1240.6617341000238,old_fruit_46.png,324,3.0,1.9023807999910787,,,ID040,01,2025-01-21_16h48.09.094,Surprise recog test,2023.1.3,59.946683418554116,
324,0,324,0,,,,,,,,,,,,,,,,,,,,,,,,,,,,,,,,,,1244.9899293000344,1246.0183482000139,1243.5817639000015,1243.5817639000015,1243.5817639000015,1243.5817639000015,old_sceneOut_41.png,325,3.0,1.4104213999817148,,,ID040,01,2025-01-21_16h48.09.094,Surprise recog test,2023.1.3,59.946683418554116,
325,0,325,0,,,,,,,,,,,,,,,,,,,,,,,,,,,,,,,,,,1248.2997381000314,1249.3213231000118,1246.0183482000139,1246.0183482000139,1246.0183482000139,1246.0183482000139,new_stationery_37.png,326,3.0,2.2785196999902837,,,ID040,01,2025-01-21_16h48.09.094,Surprise recog test,2023.1.3,59.946683418554116,
326,0,326,0,,,,,,,,,,,,,,,,,,,,,,,,,,,,,,,,,,1250.7854391,1251.8104291000054,1249.3213231000118,1249.3213231000118,1249.3213231000118,1249.3213231000118,old_sceneOut_31.png,327,4.0,1.4666868000058457,,,ID040,01,2025-01-21_16h48.09.094,Surprise recog test,2023.1.3,59.946683418554116,
327,0,327,0,,,,,,,,,,,,,,,,,,,,,,,,,,,,,,,,,,1253.5750224000076,,1251.8104291000054,1251.8104291000054,1251.8104291000054,1251.8104291000054,new_fruit_39.png,328,3.0,1.7684582999791019,,,ID040,01,2025-01-21_16h48.09.094,Surprise recog test,2023.1.3,59.946683418554116,
328,0,328,0,,,,,,,,,,,,,,,,,,,,,,,,,,,,,,,,,,1256.0502854000079,1257.060794799996,1254.6098141000257,1254.6098141000257,1254.6098141000257,1254.6098141000257,new_fruit_22.png,329,3.0,1.443768800003454,,,ID040,01,2025-01-21_16h48.09.094,Surprise recog test,2023.1.3,59.946683418554116,
329,0,329,0,,,,,,,,,,,,,,,,,,,,,,,,,,,,,,,,,,1260.4522883000318,1261.4650901000132,1257.060794799996,1257.060794799996,1257.060794799996,1257.060794799996,old_sceneOut_21.png,330,3.0,3.3852540000225417,,,ID040,01,2025-01-21_16h48.09.094,Surprise recog test,2023.1.3,59.946683418554116,
330,0,330,0,,,,,,,,,,,,,,,,,,,,,,,,,,,,,,,,,,1264.1559071000083,1265.1716782000149,1261.4650901000132,1261.4650901000132,1261.4650901000132,1261.4650901000132,new_stationery_17.png,331,4.0,2.6878404000308365,,,ID040,01,2025-01-21_16h48.09.094,Surprise recog test,2023.1.3,59.946683418554116,
331,0,331,0,,,,,,,,,,,,,,,,,,,,,,,,,,,,,,,,,,1267.806151900033,1268.8386674000067,1265.1716782000149,1265.1716782000149,1265.1716782000149,1265.1716782000149,new_fruit_18.png,332,4.0,2.630591800028924,,,ID040,01,2025-01-21_16h48.09.094,Surprise recog test,2023.1.3,59.946683418554116,
332,0,332,0,,,,,,,,,,,,,,,,,,,,,,,,,,,,,,,,,,1270.7385471000453,,1268.8386674000067,1268.8386674000067,1268.8386674000067,1268.8386674000067,old_stationery_28.png,333,3.0,1.904117199999746,,,ID040,01,2025-01-21_16h48.09.094,Surprise recog test,2023.1.3,59.946683418554116,
333,0,333,0,,,,,,,,,,,,,,,,,,,,,,,,,,,,,,,,,,1275.3415865999996,,1271.7700319000287,1271.7700319000287,1271.7700319000287,1271.7700319000287,new_fruit_1.png,334,2.0,3.5709525999845937,,,ID040,01,2025-01-21_16h48.09.094,Surprise recog test,2023.1.3,59.946683418554116,
334,0,334,0,,,,,,,,,,,,,,,,,,,,,,,,,,,,,,,,,,1277.4407687000348,1278.4607325000106,1276.3690475000185,1276.3690475000185,1276.3690475000185,1276.3690475000185,old_stationery_18.png,335,3.0,1.073339800001122,,,ID040,01,2025-01-21_16h48.09.094,Surprise recog test,2023.1.3,59.946683418554116,
335,0,335,0,,,,,,,,,,,,,,,,,,,,,,,,,,,,,,,,,,1280.593181000033,1281.6133178000455,1278.4607325000106,1278.4607325000106,1278.4607325000106,1278.4607325000106,old_fruit_33.png,336,2.0,2.130595099995844,,,ID040,01,2025-01-21_16h48.09.094,Surprise recog test,2023.1.3,59.946683418554116,
336,0,336,0,,,,,,,,,,,,,,,,,,,,,,,,,,,,,,,,,,1283.5291057000286,1284.5498611000367,1281.6133178000455,1281.6133178000455,1281.6133178000455,1281.6133178000455,new_sceneIn_39.png,337,5.0,1.9122766999644227,,,ID040,01,2025-01-21_16h48.09.094,Surprise recog test,2023.1.3,59.946683418554116,
337,0,337,0,,,,,,,,,,,,,,,,,,,,,,,,,,,,,,,,,,1285.849205000035,1286.8681878999923,1284.5498611000367,1284.5498611000367,1284.5498611000367,1284.5498611000367,old_fruit_32.png,338,1.0,1.3013032000162639,,,ID040,01,2025-01-21_16h48.09.094,Surprise recog test,2023.1.3,59.946683418554116,
338,0,338,0,,,,,,,,,,,,,,,,,,,,,,,,,,,,,,,,,,1289.1209686000366,,1286.8681878999923,1286.8681878999923,1286.8681878999923,1286.8681878999923,old_sceneOut_19.png,339,3.0,2.2527399999671616,,,ID040,01,2025-01-21_16h48.09.094,Surprise recog test,2023.1.3,59.946683418554116,
339,0,339,0,,,,,,,,,,,,,,,,,,,,,,,,,,,,,,,,,,1291.1272326000035,1292.1453134000185,1290.1418124000193,1290.1418124000193,1290.1418124000193,1290.1418124000193,new_sceneIn_14.png,340,3.0,0.9812878999509849,,,ID040,01,2025-01-21_16h48.09.094,Surprise recog test,2023.1.3,59.946683418554116,
340,0,340,0,,,,,,,,,,,,,,,,,,,,,,,,,,,,,,,,,,1293.6760847000405,1294.6956183000002,1292.1453134000185,1292.1453134000185,1292.1453134000185,1292.1453134000185,old_sceneIn_27.png,341,4.0,1.5277483999961987,,,ID040,01,2025-01-21_16h48.09.094,Surprise recog test,2023.1.3,59.946683418554116,
341,0,341,0,,,,,,,,,,,,,,,,,,,,,,,,,,,,,,,,,,1296.2075383000192,1297.2293732000398,1294.6956183000002,1294.6956183000002,1294.6956183000002,1294.6956183000002,new_sceneIn_46.png,342,4.0,1.5057377999764867,,,ID040,01,2025-01-21_16h48.09.094,Surprise recog test,2023.1.3,59.946683418554116,
342,0,342,0,,,,,,,,,,,,,,,,,,,,,,,,,,,,,,,,,,1300.4253212999902,1301.4463709000265,1297.2293732000398,1297.2293732000398,1297.2293732000398,1297.2293732000398,old_fruit_21.png,343,2.0,3.1999117999803275,,,ID040,01,2025-01-21_16h48.09.094,Surprise recog test,2023.1.3,59.946683418554116,
343,0,343,0,,,,,,,,,,,,,,,,,,,,,,,,,,,,,,,,,,1303.8093854000326,1304.8366897000233,1301.4463709000265,1301.4463709000265,1301.4463709000265,1301.4463709000265,new_sceneOut_2.png,344,3.0,2.365018400014378,,,ID040,01,2025-01-21_16h48.09.094,Surprise recog test,2023.1.3,59.946683418554116,
344,0,344,0,,,,,,,,,,,,,,,,,,,,,,,,,,,,,,,,,,1306.146314600017,1307.165866700001,1304.8366897000233,1304.8366897000233,1304.8366897000233,1304.8366897000233,new_fruit_11.png,345,2.0,1.313517700007651,,,ID040,01,2025-01-21_16h48.09.094,Surprise recog test,2023.1.3,59.946683418554116,
345,0,345,0,,,,,,,,,,,,,,,,,,,,,,,,,,,,,,,,,,1308.2358461000258,,1307.165866700001,1307.165866700001,1307.165866700001,1307.165866700001,new_sceneIn_2.png,346,4.0,1.071423599962145,,,ID040,01,2025-01-21_16h48.09.094,Surprise recog test,2023.1.3,59.946683418554116,
346,0,346,0,,,,,,,,,,,,,,,,,,,,,,,,,,,,,,,,,,1310.2225071000285,1311.24292660004,1309.2580468000378,1309.2580468000378,1309.2580468000378,1309.2580468000378,old_sceneIn_22.png,347,4.0,0.9615207000169903,,,ID040,01,2025-01-21_16h48.09.094,Surprise recog test,2023.1.3,59.946683418554116,
347,0,347,0,,,,,,,,,,,,,,,,,,,,,,,,,,,,,,,,,,1312.6936674000463,1313.7115398999886,1311.24292660004,1311.24292660004,1311.24292660004,1311.24292660004,new_stationery_1.png,348,4.0,1.4462981999968179,,,ID040,01,2025-01-21_16h48.09.094,Surprise recog test,2023.1.3,59.946683418554116,
348,0,348,0,,,,,,,,,,,,,,,,,,,,,,,,,,,,,,,,,,1316.139467400033,1317.1595844000112,1313.7115398999886,1313.7115398999886,1313.7115398999886,1313.7115398999886,old_sceneOut_24.png,349,4.0,2.4205075000063516,,,ID040,01,2025-01-21_16h48.09.094,Surprise recog test,2023.1.3,59.946683418554116,
